time_stamp before, time_stamp after, Acceleration x, Acceleration y, Acceleration z, Gyro x, Gyro y, Gyro z
1488507730.0147709846,1488507730.0256600380,        0.6240234375,        0.0571289062,       -0.1206054688,        3.4484863281,       -1.6174316406,       -7.2326660156
1488507730.0259668827,1488507730.0291619301,        0.6240234375,        0.0571289062,       -0.1206054688,        3.4484863281,       -1.1901855469,       -6.9427490234
1488507730.0294539928,1488507730.0325269699,        0.6240234375,        0.0571289062,       -0.1142578125,        3.6315917969,       -1.1901855469,       -6.9427490234
1488507730.0328280926,1488507730.0352530479,        0.6181640625,        0.0620117188,       -0.1142578125,        3.8452148438,       -1.3580322266,       -6.3629150391
1488507730.0355319977,1488507730.0379440784,        0.6181640625,        0.0620117188,       -0.1142578125,        3.8452148438,       -1.3580322266,       -6.3629150391
1488507730.0382220745,1488507730.0406410694,        0.6181640625,        0.0620117188,       -0.1142578125,        4.0588378906,       -1.8615722656,       -6.1798095703
1488507730.0409200191,1488507730.0433490276,        0.6250000000,        0.0585937500,       -0.1171875000,        4.0588378906,       -1.8615722656,       -6.1798095703
1488507730.0436260700,1488507730.0460410118,        0.6250000000,        0.0585937500,       -0.1171875000,        4.0740966797,       -1.5411376953,       -5.7067871094
1488507730.0463180542,1488507730.0487380028,        0.6250000000,        0.0585937500,       -0.1171875000,        4.0740966797,       -1.5411376953,       -5.7067871094
1488507730.0490150452,1488507730.0514268875,        0.6250000000,        0.0585937500,       -0.1171875000,        3.8146972656,       -1.1444091797,       -5.5541992188
1488507730.0517160892,1488507730.0540049076,        0.6171875000,        0.0673828125,       -0.1201171875,        3.8146972656,       -1.1444091797,       -5.5541992188
1488507730.0542750359,1488507730.0565690994,        0.6171875000,        0.0673828125,       -0.1201171875,        3.4790039062,       -1.3427734375,       -4.7302246094
1488507730.0568420887,1488507730.0591289997,        0.6171875000,        0.0673828125,       -0.1201171875,        3.4790039062,       -1.3427734375,       -4.7302246094
1488507730.0594010353,1488507730.0618629456,        0.6171875000,        0.0673828125,       -0.1201171875,        3.5552978516,       -1.4190673828,       -4.3487548828
1488507730.0621359348,1488507730.0644268990,        0.6079101562,        0.0693359375,       -0.1162109375,        3.5552978516,       -1.4190673828,       -4.3487548828
1488507730.0646970272,1488507730.0669879913,        0.6079101562,        0.0693359375,       -0.1162109375,        3.5552978516,       -1.4648437500,       -3.8146972656
1488507730.0672590733,1488507730.0695490837,        0.6079101562,        0.0693359375,       -0.1162109375,        3.2501220703,       -1.4648437500,       -3.8146972656
1488507730.0698199272,1488507730.0722539425,        0.6079101562,        0.0693359375,       -0.1162109375,        3.2501220703,       -1.4648437500,       -3.0822753906
1488507730.0725779533,1488507730.0749969482,        0.6132812500,        0.0805664062,       -0.1127929688,        2.3803710938,       -1.2207031250,       -3.0822753906
1488507730.0752780437,1488507730.0777049065,        0.6132812500,        0.0805664062,       -0.1127929688,        2.3803710938,       -1.4190673828,       -2.8381347656
1488507730.0779869556,1488507730.0803999901,        0.6132812500,        0.0805664062,       -0.1127929688,        2.2277832031,       -1.4190673828,       -2.8381347656
1488507730.0806789398,1488507730.0831110477,        0.6132812500,        0.0805664062,       -0.1181640625,        2.2277832031,       -1.4190673828,       -2.1667480469
1488507730.0833930969,1488507730.0858108997,        0.6093750000,        0.0737304688,       -0.1181640625,        1.6632080078,       -1.4038085938,       -2.1667480469
1488507730.0860919952,1488507730.0885069370,        0.6093750000,        0.0737304688,       -0.1181640625,        1.6632080078,       -1.4038085938,       -1.4190673828
1488507730.0889539719,1488507730.0913789272,        0.6093750000,        0.0737304688,       -0.1181640625,        1.6632080078,       -1.0528564453,       -1.4190673828
1488507730.0917000771,1488507730.0941181183,        0.6079101562,        0.0693359375,       -0.1259765625,        1.6632080078,       -0.8544921875,       -0.6561279297
1488507730.0943999290,1488507730.0968160629,        0.6079101562,        0.0693359375,       -0.1259765625,        1.2207031250,       -0.8544921875,       -0.6561279297
1488507730.0970969200,1488507730.0995230675,        0.6079101562,        0.0693359375,       -0.1259765625,        1.2207031250,       -0.5187988281,       -0.2441406250
1488507730.0998039246,1488507730.1022219658,        0.6079101562,        0.0693359375,       -0.1259765625,        0.0457763672,       -0.5187988281,       -0.2441406250
1488507730.1025030613,1488507730.1049220562,        0.6127929688,        0.0717773438,       -0.1293945312,        0.0457763672,       -0.6561279297,        0.4882812500
1488507730.1052019596,1488507730.1076140404,        0.6127929688,        0.0717773438,       -0.1293945312,        0.3356933594,       -0.6561279297,        0.4882812500
1488507730.1078960896,1488507730.1103110313,        0.6127929688,        0.0717773438,       -0.1293945312,        0.3356933594,       -0.6561279297,        0.7019042969
1488507730.1105930805,1488507730.1129639149,        0.6127929688,        0.0717773438,       -0.1298828125,       -0.1220703125,       -0.7171630859,        0.7019042969
1488507730.1132400036,1488507730.1155340672,        0.6181640625,        0.0742187500,       -0.1298828125,       -0.1220703125,       -0.7171630859,        1.4801025391
1488507730.1158089638,1488507730.1180999279,        0.6181640625,        0.0742187500,       -0.1298828125,       -0.0915527344,       -0.7324218750,        1.4801025391
1488507730.1183741093,1488507730.1206729412,        0.6181640625,        0.0742187500,       -0.1298828125,       -0.0915527344,       -0.7324218750,        1.4801025391
1488507730.1209468842,1488507730.1232569218,        0.6181640625,        0.0742187500,       -0.1342773438,       -0.3662109375,       -0.1678466797,        2.1514892578
1488507730.1235320568,1488507730.1258258820,        0.6225585938,        0.0668945312,       -0.1342773438,       -0.3662109375,       -0.1678466797,        2.1514892578
1488507730.1260991096,1488507730.1285018921,        0.6225585938,        0.0668945312,       -0.1342773438,       -0.3509521484,        0.4882812500,        2.7923583984
1488507730.1287789345,1488507730.1310749054,        0.6225585938,        0.0668945312,       -0.1342773438,       -0.3509521484,        0.4882812500,        2.7923583984
1488507730.1313509941,1488507730.1337540150,        0.6225585938,        0.0590820312,       -0.1347656250,       -1.0986328125,        0.2441406250,        3.1127929688
1488507730.1340360641,1488507730.1364490986,        0.6196289062,        0.0590820312,       -0.1347656250,       -1.0986328125,        0.2441406250,        3.1127929688
1488507730.1367299557,1488507730.1391410828,        0.6196289062,        0.0590820312,       -0.1347656250,       -2.3956298828,        0.0457763672,        3.4790039062
1488507730.1394219398,1488507730.1418390274,        0.6196289062,        0.0590820312,       -0.1347656250,       -2.3956298828,        0.0457763672,        3.4790039062
1488507730.1421189308,1488507730.1445291042,        0.6230468750,        0.0498046875,       -0.1240234375,       -3.1280517578,       -0.0152587891,        4.3487548828
1488507730.1448109150,1488507730.1472260952,        0.6230468750,        0.0498046875,       -0.1240234375,       -3.1280517578,       -0.0152587891,        4.3487548828
1488507730.1475100517,1488507730.1499209404,        0.6230468750,        0.0498046875,       -0.1240234375,       -3.8909912109,       -0.5950927734,        5.2795410156
1488507730.1502020359,1488507730.1526200771,        0.6230468750,        0.0498046875,       -0.1240234375,       -3.8909912109,       -0.5950927734,        5.2795410156
1488507730.1530230045,1488507730.1554379463,        0.6240234375,        0.0527343750,       -0.1079101562,       -3.6010742188,       -0.8392333984,        5.3405761719
1488507730.1557199955,1488507730.1581380367,        0.6240234375,        0.0527343750,       -0.1079101562,       -3.6010742188,       -0.8392333984,        5.3405761719
1488507730.1584188938,1488507730.1608281136,        0.6240234375,        0.0527343750,       -0.1079101562,       -3.0670166016,       -0.4882812500,        4.8828125000
1488507730.1611130238,1488507730.1634459496,        0.6240234375,        0.0527343750,       -0.1137695312,       -3.0670166016,       -0.4882812500,        4.8828125000
1488507730.1637210846,1488507730.1660120487,        0.6259765625,        0.0463867188,       -0.1137695312,       -1.8920898438,       -0.5645751953,        4.8980712891
1488507730.1662859917,1488507730.1685760021,        0.6259765625,        0.0463867188,       -0.1137695312,       -1.8920898438,       -0.5645751953,        4.8980712891
1488507730.1688489914,1488507730.1711339951,        0.6259765625,        0.0463867188,       -0.1137695312,       -0.9307861328,       -0.3051757812,        4.5471191406
1488507730.1714088917,1488507730.1737210751,        0.6259765625,        0.0463867188,       -0.1108398438,       -0.9307861328,       -0.3051757812,        4.5471191406
1488507730.1739969254,1488507730.1762900352,        0.6176757812,        0.0346679688,       -0.1108398438,       -0.9613037109,       -0.2288818359,        4.5013427734
1488507730.1765649319,1488507730.1788549423,        0.6176757812,        0.0346679688,       -0.1108398438,       -0.9613037109,       -0.2288818359,        4.5013427734
1488507730.1791288853,1488507730.1814200878,        0.6176757812,        0.0346679688,       -0.1108398438,       -1.0070800781,       -0.6256103516,        4.6844482422
1488507730.1818211079,1488507730.1842370033,        0.6176757812,        0.0507812500,       -0.1098632812,       -1.0070800781,       -0.6256103516,        4.6844482422
1488507730.1845209599,1488507730.1869390011,        0.6088867188,        0.0507812500,       -0.1098632812,       -0.8850097656,       -0.8087158203,        4.6081542969
1488507730.1872229576,1488507730.1896400452,        0.6088867188,        0.0507812500,       -0.1098632812,       -0.8850097656,       -0.8087158203,        4.6081542969
1488507730.1899220943,1488507730.1923460960,        0.6088867188,        0.0507812500,       -0.1098632812,       -0.8850097656,       -0.5187988281,        4.3029785156
1488507730.1926269531,1488507730.1950418949,        0.6176757812,        0.0595703125,       -0.1308593750,       -1.2512207031,       -0.5187988281,        4.3029785156
1488507730.1953210831,1488507730.1977329254,        0.6176757812,        0.0595703125,       -0.1308593750,       -1.2512207031,       -0.3051757812,        4.3792724609
1488507730.1980159283,1488507730.2004320621,        0.6176757812,        0.0595703125,       -0.1308593750,       -1.9836425781,       -0.3051757812,        4.3792724609
1488507730.2007141113,1488507730.2031381130,        0.6176757812,        0.0595703125,       -0.1308593750,       -1.9836425781,       -0.4882812500,        5.1727294922
1488507730.2034170628,1488507730.2058310509,        0.6137695312,        0.0385742188,       -0.1284179688,       -2.5024414062,       -0.4882812500,        5.1727294922
1488507730.2061119080,1488507730.2085309029,        0.6137695312,        0.0385742188,       -0.1284179688,       -2.5024414062,       -0.1983642578,        5.4626464844
1488507730.2088110447,1488507730.2112240791,        0.6137695312,        0.0385742188,       -0.1284179688,       -2.7008056641,       -0.1983642578,        5.4626464844
1488507730.2115039825,1488507730.2138149738,        0.6137695312,        0.0385742188,       -0.1259765625,       -2.7008056641,       -0.3814697266,        5.4321289062
1488507730.2140889168,1488507730.2163779736,        0.6079101562,        0.0273437500,       -0.1259765625,       -2.4261474609,       -0.3814697266,        5.4321289062
1488507730.2167630196,1488507730.2190549374,        0.6079101562,        0.0273437500,       -0.1259765625,       -2.4261474609,       -0.3814697266,        4.9438476562
1488507730.2193300724,1488507730.2216200829,        0.6079101562,        0.0273437500,       -0.1259765625,       -2.1820068359,       -0.3967285156,        4.9438476562
1488507730.2219760418,1488507730.2244429588,        0.6079101562,        0.0346679688,       -0.1313476562,       -2.1820068359,       -0.3967285156,        4.5318603516
1488507730.2247169018,1488507730.2270140648,        0.6088867188,        0.0346679688,       -0.1313476562,       -1.1444091797,       -0.7324218750,        4.5318603516
1488507730.2272870541,1488507730.2295770645,        0.6088867188,        0.0346679688,       -0.1313476562,       -1.1444091797,       -0.7324218750,        4.0740966797
1488507730.2298500538,1488507730.2322518826,        0.6088867188,        0.0346679688,       -0.1313476562,       -1.2512207031,       -0.5645751953,        4.0740966797
1488507730.2325339317,1488507730.2349169254,        0.6088867188,        0.0415039062,       -0.1230468750,       -1.2512207031,       -0.5645751953,        0.1678466797
1488507730.2351980209,1488507730.2376968861,        0.6166992188,        0.0415039062,       -0.1230468750,       -1.0223388672,       -0.1220703125,        3.8604736328
1488507730.2379779816,1488507730.2403550148,        0.6166992188,        0.0415039062,       -0.1230468750,       -1.0223388672,       -0.1220703125,        7.7667236328
1488507730.2410299778,1488507730.2434959412,        0.6166992188,        0.0415039062,       -0.1230468750,       -0.9460449219,       -0.1678466797,        4.0283203125
1488507730.2437789440,1488507730.2462010384,        0.6113281250,        0.0473632812,       -0.1250000000,       -0.9460449219,       -0.1678466797,        4.2266845703
1488507730.2464840412,1488507730.2489039898,        0.6113281250,        0.0473632812,       -0.1250000000,       -1.6021728516,       -0.5035400391,        4.2266845703
1488507730.2491860390,1488507730.2516000271,        0.6113281250,        0.0473632812,       -0.1250000000,       -1.6021728516,       -0.5035400391,        4.0893554688
1488507730.2519259453,1488507730.2542209625,        0.6113281250,        0.0473632812,       -0.1264648438,       -1.8615722656,       -0.4577636719,        4.0893554688
1488507730.2544939518,1488507730.2567880154,        0.6118164062,        0.0332031250,       -0.1264648438,       -1.8615722656,       -0.4577636719,        4.0893554688
1488507730.2570629120,1488507730.2593510151,        0.6118164062,        0.0332031250,       -0.1264648438,       -2.4719238281,       -0.4577636719,        4.0588378906
1488507730.2596259117,1488507730.2619490623,        0.6118164062,        0.0332031250,       -0.1264648438,       -2.4719238281,       -0.4577636719,        4.0588378906
1488507730.2622289658,1488507730.2646420002,        0.6118164062,        0.0332031250,       -0.1298828125,       -2.8686523438,       -0.3356933594,        4.2266845703
1488507730.2649250031,1488507730.2673449516,        0.6088867188,        0.0278320312,       -0.1298828125,       -2.8686523438,       -0.3356933594,        4.2266845703
1488507730.2676260471,1488507730.2700409889,        0.6088867188,        0.0278320312,       -0.1298828125,       -3.0517578125,       -0.4272460938,        4.2572021484
1488507730.2703239918,1488507730.2727010250,        0.6088867188,        0.0278320312,       -0.1298828125,       -3.0517578125,       -0.4272460938,        4.2572021484
1488507730.2729771137,1488507730.2752790451,        0.6191406250,        0.0258789062,       -0.1215820312,       -3.5858154297,       -0.6256103516,        3.8452148438
1488507730.2755560875,1488507730.2778460979,        0.6191406250,        0.0258789062,       -0.1215820312,       -3.5858154297,       -0.6256103516,        3.8452148438
1488507730.2781200409,1488507730.2804069519,        0.6191406250,        0.0258789062,       -0.1215820312,       -4.3640136719,       -1.1444091797,        3.3721923828
1488507730.2807879448,1488507730.2831900120,        0.6191406250,        0.0258789062,       -0.1215820312,       -4.3640136719,       -1.1444091797,        3.3721923828
1488507730.2834649086,1488507730.2857561111,        0.6191406250,        0.0190429688,       -0.1093750000,       -5.1422119141,       -1.8768310547,        2.7008056641
1488507730.2860310078,1488507730.2883319855,        0.6191406250,        0.0190429688,       -0.1093750000,       -5.1422119141,       -1.8768310547,        2.7008056641
1488507730.2886049747,1488507730.2909030914,        0.6191406250,        0.0190429688,       -0.1093750000,       -5.0048828125,       -2.1514892578,        2.0599365234
1488507730.2911748886,1488507730.2936499119,        0.6191406250,        0.0190429688,       -0.1093750000,       -5.0048828125,       -2.1514892578,        2.0599365234
1488507730.2939329147,1488507730.2963581085,        0.6196289062,        0.0209960938,       -0.1030273438,       -4.6386718750,       -2.5177001953,        1.4190673828
1488507730.2966399193,1488507730.2990601063,        0.6196289062,        0.0209960938,       -0.1030273438,       -4.6386718750,       -2.5177001953,        1.4190673828
1488507730.2993409634,1488507730.3017649651,        0.6196289062,        0.0209960938,       -0.1030273438,       -4.1961669922,       -2.3193359375,        1.0223388672
1488507730.3020379543,1488507730.3043320179,        0.6196289062,        0.0209960938,       -0.1030273438,       -4.1961669922,       -2.3193359375,        1.0223388672
1488507730.3046059608,1488507730.3068950176,        0.6230468750,        0.0141601562,       -0.1044921875,       -4.3487548828,       -2.7008056641,        0.4577636719
1488507730.3071689606,1488507730.3094639778,        0.6230468750,        0.0141601562,       -0.1044921875,       -4.3487548828,       -2.7008056641,        0.4577636719
1488507730.3097391129,1488507730.3121020794,        0.6230468750,        0.0141601562,       -0.1044921875,       -0.4425048828,       -2.7465820312,       -0.1831054688
1488507730.3123838902,1488507730.3148009777,        0.6230468750,        0.0141601562,       -0.1044921875,       -3.7689208984,       -2.7465820312,       -0.1831054688
1488507730.3150858879,1488507730.3175070286,        0.6132812500,        0.0087890625,       -0.1127929688,       -3.7689208984,       -1.9226074219,       -1.1596679688
1488507730.3177878857,1488507730.3202021122,        0.6132812500,        0.0087890625,       -0.1127929688,       -2.4414062500,       -1.9226074219,       -1.1596679688
1488507730.3204829693,1488507730.3228518963,        0.6132812500,        0.0087890625,       -0.1127929688,       -2.4414062500,       -1.9073486328,       -1.9531250000
1488507730.3231279850,1488507730.3254249096,        0.6132812500,        0.0063476562,       -0.1230468750,       -1.8920898438,       -1.9073486328,       -1.9531250000
1488507730.3257000446,1488507730.3279869556,        0.6083984375,        0.0063476562,       -0.1230468750,       -1.8920898438,       -1.9073486328,       -2.6397705078
1488507730.3282599449,1488507730.3305580616,        0.6083984375,        0.0063476562,       -0.1230468750,       -1.6326904297,       -2.2888183594,       -2.6397705078
1488507730.3308310509,1488507730.3332269192,        0.6083984375,        0.0063476562,       -0.1230468750,       -1.6326904297,       -2.2888183594,       -3.0975341797
1488507730.3335030079,1488507730.3357920647,        0.6083984375,        0.0156250000,       -0.1245117188,       -1.4343261719,       -2.4871826172,       -3.0975341797
1488507730.3360660076,1488507730.3383638859,        0.6103515625,        0.0156250000,       -0.1245117188,       -1.4343261719,       -2.4871826172,       -3.0975341797
1488507730.3386380672,1488507730.3409290314,        0.6103515625,        0.0156250000,       -0.1245117188,       -1.1901855469,       -1.9836425781,       -3.3111572266
1488507730.3412010670,1488507730.3436460495,        0.6103515625,        0.0156250000,       -0.1245117188,       -1.1901855469,       -1.9836425781,       -3.3111572266
1488507730.3440320492,1488507730.3464159966,        0.6083984375,        0.0405273438,       -0.1269531250,       -1.1138916016,       -1.8920898438,       -3.7994384766
1488507730.3466939926,1488507730.3494050503,        0.6083984375,        0.0405273438,       -0.1269531250,       -1.1138916016,       -1.8920898438,       -4.7454833984
1488507730.3496890068,1488507730.3521819115,        0.6083984375,        0.0405273438,       -0.1269531250,       -0.7781982422,       -2.4566650391,       -4.7454833984
1488507730.3524749279,1488507730.3547759056,        0.6083984375,        0.0405273438,       -0.1269531250,       -0.7781982422,       -2.4566650391,       -4.7454833984
1488507730.3550529480,1488507730.3573451042,        0.6059570312,        0.0429687500,       -0.1245117188,       -1.4343261719,       -2.0141601562,       -4.9591064453
1488507730.3576209545,1488507730.3599119186,        0.6059570312,        0.0429687500,       -0.1245117188,       -1.4343261719,       -2.0141601562,       -4.9591064453
1488507730.3601849079,1488507730.3625540733,        0.6059570312,        0.0429687500,       -0.1245117188,       -1.6937255859,       -2.0446777344,       -5.1269531250
1488507730.3628349304,1488507730.3652560711,        0.6059570312,        0.0429687500,       -0.2495117188,       -1.6937255859,       -2.0446777344,       -5.1269531250
1488507730.3655359745,1488507730.3679521084,        0.6176757812,        0.0424804688,       -0.1347656250,       -1.8920898438,       -1.9073486328,       -4.9896240234
1488507730.3682329655,1488507730.3706519604,        0.6176757812,        0.0424804688,       -0.1347656250,       -1.8920898438,       -1.9073486328,       -4.9896240234
1488507730.3709330559,1488507730.3733649254,        0.6176757812,        0.0424804688,       -0.1347656250,       -1.9531250000,       -1.6937255859,       -5.1879882812
1488507730.3736441135,1488507730.3760609627,        0.6176757812,        0.0332031250,       -0.1337890625,       -1.9531250000,       -1.6937255859,       -5.1879882812
1488507730.3763411045,1488507730.3787651062,        0.6152343750,        0.0332031250,       -0.1337890625,       -1.5716552734,       -1.6174316406,       -4.9591064453
1488507730.3790440559,1488507730.3814599514,        0.6152343750,        0.0332031250,       -0.1337890625,       -1.5716552734,       -1.6174316406,       -4.9591064453
1488507730.3817501068,1488507730.3840410709,        0.6152343750,        0.0332031250,       -0.1337890625,       -1.1444091797,       -2.0446777344,       -5.3558349609
1488507730.3843140602,1488507730.3866090775,        0.6127929688,        0.0361328125,       -0.1196289062,       -1.1444091797,       -2.0446777344,       -5.3558349609
1488507730.3868839741,1488507730.3891758919,        0.6127929688,        0.0361328125,       -0.1196289062,       -0.5950927734,       -1.8920898438,       -5.4321289062
1488507730.3894500732,1488507730.3917489052,        0.6127929688,        0.0361328125,       -0.1196289062,       -0.5950927734,       -1.8920898438,       -5.4321289062
1488507730.3920240402,1488507730.3943240643,        0.6127929688,        0.0361328125,       -0.1196289062,       -0.3967285156,       -2.4261474609,       -5.5084228516
1488507730.3945989609,1488507730.3968920708,        0.6103515625,        0.0410156250,       -0.1196289062,       -0.3967285156,       -2.4261474609,       -5.5084228516
1488507730.3971669674,1488507730.3994638920,        0.6103515625,        0.0410156250,       -0.1196289062,       -0.2136230469,       -2.4261474609,       -5.6457519531
1488507730.3997380733,1488507730.4021949768,        0.6103515625,        0.0410156250,       -0.1196289062,       -0.2136230469,       -2.4261474609,       -5.6457519531
1488507730.4024689198,1488507730.4047629833,        0.6103515625,        0.0410156250,       -0.1196289062,       -0.0762939453,       -2.5787353516,       -6.0424804688
1488507730.4050369263,1488507730.4073359966,        0.6162109375,        0.0463867188,       -0.1269531250,       -0.0762939453,       -2.5787353516,       -6.0424804688
1488507730.4077100754,1488507730.4100029469,        0.6162109375,        0.0463867188,       -0.1269531250,        3.8299560547,       -2.4871826172,       -5.8135986328
1488507730.4102768898,1488507730.4127140045,        0.6162109375,        0.0463867188,       -0.1269531250,        0.3509521484,       -2.4871826172,       -5.8135986328
1488507730.4129960537,1488507730.4154191017,        0.6162109375,        0.0463867188,       -0.1269531250,        0.3509521484,       -2.7160644531,       -5.5389404297
1488507730.4156999588,1488507730.4181199074,        0.6191406250,        0.0581054688,       -0.1171875000,        0.5340576172,       -2.7160644531,       -5.5389404297
1488507730.4184010029,1488507730.4208230972,        0.6191406250,        0.0581054688,       -0.1171875000,        0.5340576172,       -2.4414062500,       -5.2032470703
1488507730.4211039543,1488507730.4235289097,        0.6191406250,        0.0581054688,       -0.1171875000,        0.2288818359,       -2.4414062500,       -5.2032470703
1488507730.4238109589,1488507730.4262230396,        0.6191406250,        0.0581054688,       -0.1181640625,        0.2288818359,       -2.1667480469,       -4.9743652344
1488507730.4265038967,1488507730.4289240837,        0.6118164062,        0.0629882812,       -0.1181640625,        0.1525878906,       -2.1667480469,       -4.9743652344
1488507730.4292039871,1488507730.4316210747,        0.6118164062,        0.0629882812,       -0.1181640625,        0.1525878906,       -1.8157958984,       -4.6386718750
1488507730.4319710732,1488507730.4343841076,        0.6118164062,        0.0629882812,       -0.1181640625,       -0.0915527344,       -1.8157958984,       -4.6386718750
1488507730.4346640110,1488507730.4370839596,        0.6044921875,        0.0610351562,       -0.1347656250,       -0.0915527344,       -1.0681152344,       -4.0740966797
1488507730.4373660088,1488507730.4397799969,        0.6044921875,        0.0610351562,       -0.1347656250,       -0.2288818359,       -1.0681152344,       -4.0740966797
1488507730.4400599003,1488507730.4425299168,        0.6044921875,        0.0610351562,       -0.1347656250,       -0.2288818359,       -1.0528564453,       -4.0130615234
1488507730.4428100586,1488507730.4452259541,        0.6044921875,        0.0610351562,       -0.1347656250,        0.0152587891,       -1.0528564453,       -4.0130615234
1488507730.4455080032,1488507730.4479238987,        0.6064453125,        0.0610351562,       -0.1206054688,        0.0152587891,       -1.0986328125,       -3.9672851562
1488507730.4482049942,1488507730.4506249428,        0.6064453125,        0.0610351562,       -0.1206054688,        0.0305175781,       -1.0986328125,       -3.9672851562
1488507730.4509069920,1488507730.4533329010,        0.6064453125,        0.0610351562,       -0.1206054688,        0.0305175781,       -0.8697509766,       -3.8452148438
1488507730.4536159039,1488507730.4560348988,        0.6064453125,        0.0610351562,       -0.1206054688,        0.4425048828,       -0.8697509766,       -3.8452148438
1488507730.4563159943,1488507730.4587359428,        0.5937500000,        0.0556640625,       -0.1206054688,        0.4425048828,       -1.3885498047,       -3.9520263672
1488507730.4590198994,1488507730.4614338875,        0.5937500000,        0.0556640625,       -0.1206054688,        0.3356933594,       -1.3885498047,       -3.9520263672
1488507730.4617249966,1488507730.4641480446,        0.5937500000,        0.0556640625,       -0.1206054688,        0.3356933594,       -1.3885498047,       -3.9978027344
1488507730.4644300938,1488507730.4668478966,        0.5937500000,        0.0468750000,       -0.1230468750,        0.5035400391,       -1.2054443359,       -3.9978027344
1488507730.4671289921,1488507730.4696159363,        0.5986328125,        0.0468750000,       -0.1230468750,        0.5035400391,       -1.2054443359,       -3.7231445312
1488507730.4698989391,1488507730.4726309776,        0.5986328125,        0.0468750000,       -0.1230468750,        0.9613037109,       -0.9613037109,       -3.7231445312
1488507730.4729170799,1488507730.4753460884,        0.5986328125,        0.0468750000,       -0.1230468750,        0.9613037109,       -0.8850097656,       -3.4179687500
1488507730.4757349491,1488507730.4781539440,        0.6079101562,        0.0493164062,       -0.1298828125,        1.4801025391,       -0.8850097656,       -3.4179687500
1488507730.4784359932,1488507730.4808630943,        0.6079101562,        0.0493164062,       -0.1298828125,        2.0751953125,       -0.6866455078,       -3.5095214844
1488507730.4811429977,1488507730.4835720062,        0.6079101562,        0.0493164062,       -0.1298828125,        2.0751953125,       -0.6866455078,       -3.5095214844
1488507730.4838550091,1488507730.4862740040,        0.6079101562,        0.0493164062,       -0.1298828125,        2.0751953125,       -0.6408691406,       -3.7384033203
1488507730.4865550995,1488507730.4889700413,        0.6054687500,        0.0415039062,       -0.1274414062,        2.5939941406,       -0.6408691406,       -3.7384033203
1488507730.4892499447,1488507730.4917130470,        0.6054687500,        0.0415039062,       -0.1274414062,        2.5939941406,       -1.0375976562,       -4.1046142578
1488507730.4919939041,1488507730.4944128990,        0.6054687500,        0.0415039062,       -0.1274414062,        3.0822753906,       -1.0375976562,       -4.1046142578
1488507730.4946930408,1488507730.4971060753,        0.6054687500,        0.0478515625,       -0.1352539062,        3.0822753906,       -0.9307861328,       -4.3182373047
1488507730.4973890781,1488507730.4998068810,        0.6098632812,        0.0478515625,       -0.1352539062,        3.0517578125,       -0.9307861328,       -4.3182373047
1488507730.5000910759,1488507730.5024809837,        0.6098632812,        0.0478515625,       -0.1352539062,        3.0517578125,       -0.8087158203,       -4.6844482422
1488507730.5027549267,1488507730.5050470829,        0.6098632812,        0.0478515625,       -0.1352539062,        3.2806396484,       -0.8087158203,       -4.6844482422
1488507730.5053210258,1488507730.5076160431,        0.6049804688,        0.0502929688,       -0.1240234375,        3.2806396484,       -0.8087158203,       -4.1656494141
1488507730.5078909397,1488507730.5101830959,        0.6049804688,        0.0502929688,       -0.1240234375,        3.8452148438,       -0.4119873047,       -4.1656494141
1488507730.5104560852,1488507730.5127539635,        0.6049804688,        0.0502929688,       -0.1240234375,        3.8452148438,       -0.4119873047,       -3.8757324219
1488507730.5130300522,1488507730.5153379440,        0.6049804688,        0.0502929688,       -0.1240234375,        4.3029785156,       -0.4119873047,       -3.8757324219
1488507730.5156109333,1488507730.5179009438,        0.6059570312,        0.0634765625,       -0.1176757812,        4.3029785156,       -0.4119873047,       -7.7819824219
1488507730.5181760788,1488507730.5204710960,        0.6059570312,        0.0634765625,       -0.1176757812,        4.3334960938,       -0.5493164062,       -3.9672851562
1488507730.5207450390,1488507730.5231881142,        0.6059570312,        0.0634765625,       -0.1176757812,        4.3334960938,       -0.5493164062,       -3.9672851562
1488507730.5234630108,1488507730.5257549286,        0.6059570312,        0.0634765625,       -0.1176757812,        4.5928955078,       -0.2136230469,       -3.4332275391
1488507730.5260300636,1488507730.5283238888,        0.5927734375,        0.0708007812,       -0.1142578125,        4.5928955078,       -0.2136230469,       -3.4332275391
1488507730.5285999775,1488507730.5308918953,        0.5927734375,        0.0708007812,       -0.1142578125,        4.1046142578,       -0.2288818359,       -3.2043457031
1488507730.5311639309,1488507730.5336480141,        0.5927734375,        0.0708007812,       -0.1142578125,        4.1046142578,       -0.2288818359,       -3.2043457031
1488507730.5339300632,1488507730.5363481045,        0.5927734375,        0.0708007812,       -0.1142578125,        4.7607421875,       -0.0305175781,       -2.7008056641
1488507730.5366289616,1488507730.5390429497,        0.6020507812,        0.0673828125,       -0.1210937500,        4.7607421875,       -0.0305175781,       -2.7008056641
1488507730.5394310951,1488507730.5418939590,        0.6020507812,        0.0673828125,       -0.1210937500,        5.6457519531,        0.0915527344,       -2.0599365234
1488507730.5421769619,1488507730.5445919037,        0.6020507812,        0.0673828125,       -0.1210937500,        5.6457519531,        0.0915527344,       -2.0599365234
1488507730.5448729992,1488507730.5472879410,        0.6020507812,        0.0673828125,       -0.1254882812,        6.2408447266,        0.2899169922,       -2.0141601562
1488507730.5475690365,1488507730.5499930382,        0.6142578125,        0.0649414062,       -0.1254882812,        6.2408447266,        0.2899169922,       -2.0141601562
1488507730.5502750874,1488507730.5526490211,        0.6142578125,        0.0649414062,       -0.1254882812,        6.1035156250,        0.2136230469,       -1.6937255859
1488507730.5529229641,1488507730.5552110672,        0.6142578125,        0.0649414062,       -0.1254882812,        6.1035156250,        0.2136230469,       -1.6937255859
1488507730.5554840565,1488507730.5577790737,        0.6142578125,        0.0712890625,       -0.1337890625,        6.6375732422,        0.2136230469,       -1.0223388672
1488507730.5580520630,1488507730.5603389740,        0.6215820312,        0.0712890625,       -0.1337890625,        6.6375732422,        0.2136230469,       -1.0223388672
1488507730.5606129169,1488507730.5629959106,        0.6215820312,        0.0712890625,       -0.1337890625,        6.5612792969,        0.3356933594,       -0.5645751953
1488507730.5632789135,1488507730.5656991005,        0.6215820312,        0.0712890625,       -0.1337890625,        6.5612792969,        0.3356933594,       -0.5645751953
1488507730.5659809113,1488507730.5683999062,        0.6269531250,        0.0673828125,       -0.1259765625,        6.0577392578,        0.6866455078,        0.0762939453
1488507730.5686819553,1488507730.5711040497,        0.6269531250,        0.0673828125,       -0.1259765625,        6.0577392578,        0.6866455078,        0.0762939453
1488507730.5713860989,1488507730.5738110542,        0.6269531250,        0.0673828125,       -0.1259765625,        5.6762695312,        0.8392333984,        0.7171630859
1488507730.5740919113,1488507730.5765030384,        0.6269531250,        0.0673828125,       -0.1259765625,        5.6762695312,        0.8392333984,        0.7171630859
1488507730.5767838955,1488507730.5792100430,        0.6455078125,        0.0688476562,       -0.1240234375,        5.3253173828,        0.8087158203,        1.3122558594
1488507730.5794909000,1488507730.5819180012,        0.6455078125,        0.0688476562,       -0.1240234375,        5.3253173828,        0.8087158203,        1.3122558594
1488507730.5822000504,1488507730.5846240520,        0.6455078125,        0.0688476562,       -0.1240234375,        5.2032470703,        0.7781982422,        1.9226074219
1488507730.5849049091,1488507730.5873239040,        0.6455078125,        0.0688476562,       -0.2490234375,        5.2032470703,        0.7781982422,        1.9226074219
1488507730.5876030922,1488507730.5902891159,        0.6489257812,        0.0595703125,       -0.1313476562,        4.3029785156,        0.9765625000,        2.2735595703
1488507730.5905721188,1488507730.5934031010,        0.6489257812,        0.0595703125,       -0.1313476562,        4.3029785156,        0.9765625000,        2.2735595703
1488507730.5936861038,1488507730.5961019993,        0.6489257812,        0.0595703125,       -0.1313476562,        3.9215087891,        1.1444091797,        2.7923583984
1488507730.5963809490,1488507730.5988080502,        0.6474609375,        0.0571289062,       -0.1220703125,        3.9215087891,        1.1444091797,        2.7923583984
1488507730.5990889072,1488507730.6015079021,        0.6474609375,        0.0571289062,       -0.1220703125,        3.2196044922,        1.5258789062,        2.8228759766
1488507730.6017990112,1488507730.6040918827,        0.6474609375,        0.0571289062,       -0.1220703125,        3.2196044922,        1.5258789062,        2.8228759766
1488507730.6044690609,1488507730.6067700386,        0.6474609375,        0.0571289062,       -0.1220703125,        2.3193359375,        1.6479492188,        3.3111572266
1488507730.6070430279,1488507730.6093308926,        0.6425781250,        0.0473632812,       -0.1181640625,        2.3193359375,        1.6479492188,        3.3111572266
1488507730.6096038818,1488507730.6119420528,        0.6425781250,        0.0473632812,       -0.1181640625,        1.6174316406,        1.5563964844,        3.6468505859
1488507730.6122150421,1488507730.6145100594,        0.6425781250,        0.0473632812,       -0.1181640625,        1.6174316406,        1.5563964844,        3.6468505859
1488507730.6147820950,1488507730.6170740128,        0.6425781250,        0.0473632812,       -0.1181640625,        1.3732910156,        1.5258789062,        3.6468505859
1488507730.6173460484,1488507730.6196439266,        0.6303710938,        0.0307617188,       -0.1240234375,        1.3732910156,        1.5258789062,        3.6468505859
1488507730.6199159622,1488507730.6222109795,        0.6303710938,        0.0307617188,       -0.1240234375,        1.3732910156,        1.7242431641,        3.0212402344
1488507730.6224861145,1488507730.6247770786,        0.6303710938,        0.0307617188,       -0.1240234375,        1.4648437500,        1.7242431641,        3.0212402344
1488507730.6250500679,1488507730.6273460388,        0.6303710938,        0.0307617188,       -0.1240234375,        1.4648437500,        1.7242431641,        2.5024414062
1488507730.6276199818,1488507730.6299850941,        0.6137695312,        0.0346679688,       -0.1323242188,        1.6326904297,        1.6784667969,        2.5024414062
1488507730.6302769184,1488507730.6326539516,        0.6137695312,        0.0346679688,       -0.1323242188,        1.6326904297,        1.6784667969,        1.8920898438
1488507730.6329290867,1488507730.6352159977,        0.6137695312,        0.0346679688,       -0.1323242188,        1.6784667969,        1.7395019531,        1.8920898438
1488507730.6354899406,1488507730.6377749443,        0.6137695312,        0.0346679688,       -0.1298828125,        1.6784667969,        1.7395019531,        1.8920898438
1488507730.6380488873,1488507730.6403388977,        0.6083984375,        0.0366210938,       -0.1298828125,        1.6937255859,        1.7242431641,        1.6021728516
1488507730.6406118870,1488507730.6429030895,        0.6083984375,        0.0366210938,       -0.1298828125,        1.6937255859,        1.7242431641,        1.6021728516
1488507730.6431770325,1488507730.6454620361,        0.6083984375,        0.0366210938,       -0.1298828125,        1.4953613281,        1.6784667969,        1.4038085938
1488507730.6457340717,1488507730.6480240822,        0.6083984375,        0.0366210938,       -0.1230468750,        1.4953613281,        1.6784667969,        1.4038085938
1488507730.6482970715,1488507730.6505830288,        0.5966796875,        0.0385742188,       -0.1230468750,        0.6408691406,        1.7089843750,        0.7781982422
1488507730.6508569717,1488507730.6531479359,        0.5966796875,        0.0385742188,       -0.1230468750,        0.6408691406,        1.7089843750,        0.7781982422
1488507730.6534209251,1488507730.6557118893,        0.5966796875,        0.0385742188,       -0.1230468750,       -0.6561279297,        2.3651123047,       -0.2746582031
1488507730.6559860706,1488507730.6582720280,        0.5966796875,        0.0385742188,       -0.1264648438,       -0.6561279297,        2.3651123047,       -0.2746582031
1488507730.6585469246,1488507730.6608378887,        0.6044921875,        0.0302734375,       -0.1264648438,       -0.6408691406,        2.3803710938,       -1.2207031250
1488507730.6611111164,1488507730.6634640694,        0.6044921875,        0.0302734375,       -0.1264648438,       -0.6408691406,        2.3803710938,       -1.2207031250
1488507730.6637380123,1488507730.6660220623,        0.6044921875,        0.0302734375,       -0.1264648438,       -0.1525878906,        1.8157958984,       -1.5258789062
1488507730.6664040089,1488507730.6686949730,        0.6044921875,        0.0244140625,       -0.1342773438,       -0.1525878906,        1.8157958984,       -1.5258789062
1488507730.6689679623,1488507730.6712551117,        0.6035156250,        0.0244140625,       -0.1342773438,       -0.1525878906,        1.3732910156,       -1.7547607422
1488507730.6715281010,1488507730.6739459038,        0.6035156250,        0.0244140625,       -0.1342773438,       -0.1678466797,        1.3732910156,       -1.7547607422
1488507730.6742229462,1488507730.6765129566,        0.6035156250,        0.0244140625,       -0.1342773438,       -0.1678466797,        1.1291503906,       -2.4261474609
1488507730.6767859459,1488507730.6790781021,        0.5986328125,        0.0000000000,       -0.1313476562,       -0.3509521484,        1.1291503906,       -2.4261474609
1488507730.6793489456,1488507730.6816360950,        0.5986328125,        0.0000000000,       -0.1313476562,       -0.3509521484,        1.1291503906,       -3.3721923828
1488507730.6820900440,1488507730.6843779087,        0.5986328125,        0.0000000000,       -0.1313476562,        0.2136230469,        0.3814697266,       -3.3721923828
1488507730.6846520901,1488507730.6869330406,        0.5986328125,        0.0000000000,       -0.1313476562,        0.2136230469,        0.3814697266,       -4.9438476562
1488507730.6872069836,1488507730.6894969940,        0.5961914062,       -0.0107421875,       -0.1225585938,        1.5411376953,       -0.2288818359,       -4.9438476562
1488507730.6897718906,1488507730.6921010017,        0.5961914062,       -0.0107421875,       -0.1225585938,        1.5411376953,       -0.2288818359,       -4.9438476562
1488507730.6923758984,1488507730.6946599483,        0.5961914062,       -0.0107421875,       -0.1225585938,        2.4566650391,       -0.6408691406,       -6.5917968750
1488507730.6949350834,1488507730.6972200871,        0.5961914062,       -0.0107421875,       -0.1225585938,        2.4566650391,       -0.6408691406,       -6.5917968750
1488507730.6974940300,1488507730.6997799873,        0.6035156250,       -0.0058593750,       -0.1206054688,        3.1280517578,       -0.9460449219,       -8.2702636719
1488507730.7000560760,1488507730.7023549080,        0.6035156250,       -0.0058593750,       -0.1206054688,        3.1280517578,       -0.9460449219,       -8.2702636719
1488507730.7026319504,1488507730.7049241066,        0.6035156250,       -0.0058593750,       -0.1206054688,        3.6621093750,       -1.2207031250,      -10.4980468750
1488507730.7052059174,1488507730.7074980736,        0.6035156250,       -0.0058593750,       -0.1206054688,        3.6621093750,       -1.2207031250,      -10.4980468750
1488507730.7077779770,1488507730.7100739479,        0.6054687500,       -0.0019531250,       -0.1064453125,        4.3945312500,       -2.1057128906,      -13.0615234375
1488507730.7103528976,1488507730.7127408981,        0.6054687500,       -0.0019531250,       -0.1064453125,        4.3945312500,       -2.1057128906,      -13.0615234375
1488507730.7130270004,1488507730.7154419422,        0.6054687500,       -0.0019531250,       -0.1064453125,        4.6997070312,       -2.5787353516,      -15.7775878906
1488507730.7157289982,1488507730.7181410789,        0.6054687500,       -0.0019531250,       -0.1064453125,        4.6997070312,       -2.5787353516,      -15.7775878906
1488507730.7184259892,1488507730.7208449841,        0.5957031250,       -0.0122070312,       -0.1015625000,        4.4708251953,       -3.0059814453,      -18.6767578125
1488507730.7211310863,1488507730.7235579491,        0.5957031250,       -0.0122070312,       -0.1015625000,        4.4708251953,       -3.0059814453,      -18.6767578125
1488507730.7238450050,1488507730.7262609005,        0.5957031250,       -0.0122070312,       -0.1015625000,        4.7149658203,       -4.0435791016,      -22.3236083984
1488507730.7265479565,1488507730.7289640903,        0.5957031250,       -0.0122070312,       -0.0825195312,        4.7149658203,       -4.0435791016,      -22.3236083984
1488507730.7293579578,1488507730.7317869663,        0.6088867188,       -0.0327148438,       -0.0825195312,        5.3710937500,       -5.1727294922,      -26.4892578125
1488507730.7320740223,1488507730.7344930172,        0.6088867188,       -0.0327148438,       -0.0825195312,        5.3710937500,       -5.1727294922,      -26.4892578125
1488507730.7347788811,1488507730.7371950150,        0.6088867188,       -0.0327148438,       -0.0825195312,        5.4168701172,       -6.4544677734,      -30.8685302734
1488507730.7375900745,1488507730.7400279045,        0.6259765625,       -0.0927734375,       -0.0546875000,        5.4168701172,       -6.4544677734,      -30.8685302734
1488507730.7403149605,1488507730.7429859638,        0.6259765625,       -0.0927734375,       -0.0546875000,        7.4005126953,       -7.3394775391,      -35.5377197266
1488507730.7432739735,1488507730.7456910610,        0.6259765625,       -0.0927734375,       -0.0546875000,        7.4005126953,       -7.3394775391,      -35.5377197266
1488507730.7459759712,1488507730.7483909130,        0.6259765625,       -0.0927734375,       -0.0546875000,       11.8713378906,       -7.4920654297,      -39.9780273438
1488507730.7486810684,1488507730.7510929108,        0.6362304688,       -0.1621093750,       -0.0512695312,       11.8713378906,       -7.4920654297,      -39.9780273438
1488507730.7513840199,1488507730.7537109852,        0.6362304688,       -0.1621093750,       -0.0512695312,       16.3421630859,       -9.3383789062,      -43.7622070312
1488507730.7539930344,1488507730.7562839985,        0.6362304688,       -0.1621093750,       -0.0512695312,       16.3421630859,       -9.3383789062,      -43.7622070312
1488507730.7565660477,1488507730.7588589191,        0.6362304688,       -0.1621093750,       -0.0512695312,       21.7895507812,      -11.9628906250,      -47.7905273438
1488507730.7591440678,1488507730.7614369392,        0.6015625000,       -0.0830078125,       -0.0708007812,       21.7895507812,      -11.9628906250,      -47.7905273438
1488507730.7617290020,1488507730.7641460896,        0.6015625000,       -0.0830078125,       -0.0708007812,       27.5115966797,      -14.1143798828,      -51.4984130859
1488507730.7644400597,1488507730.7668581009,        0.6015625000,       -0.0830078125,       -0.0708007812,       27.5115966797,      -14.1143798828,      -51.4984130859
1488507730.7671499252,1488507730.7695629597,        0.6015625000,        0.0341796875,       -0.0878906250,       30.8227539062,      -15.4876708984,      -54.0161132812
1488507730.7698559761,1488507730.7722880840,        0.6083984375,        0.0341796875,       -0.0878906250,       30.8227539062,      -15.4876708984,      -54.0161132812
1488507730.7725739479,1488507730.7748689651,        0.6083984375,        0.0341796875,       -0.0878906250,       30.6396484375,      -16.7694091797,      -55.9234619141
1488507730.7751541138,1488507730.7774450779,        0.6083984375,        0.0341796875,       -0.0878906250,       30.6396484375,      -16.7694091797,      -55.9234619141
1488507730.7777290344,1488507730.7800269127,        0.5927734375,        0.1235351562,       -0.0854492188,       30.6396484375,      -17.9748535156,      -57.0373535156
1488507730.7803111076,1488507730.7826590538,        0.5927734375,        0.1235351562,       -0.0854492188,       28.2897949219,      -17.9748535156,      -57.0373535156
1488507730.7829430103,1488507730.7852358818,        0.5927734375,        0.1235351562,       -0.0854492188,       28.2897949219,      -17.9748535156,      -57.7545166016
1488507730.7855200768,1488507730.7878150940,        0.5927734375,        0.1235351562,       -0.0854492188,       24.8565673828,      -19.4396972656,      -57.7545166016
1488507730.7881000042,1488507730.7903919220,        0.6010742188,        0.1899414062,       -0.0957031250,       24.8565673828,      -19.4396972656,      -58.7158203125
1488507730.7906780243,1488507730.7930119038,        0.6010742188,        0.1899414062,       -0.0957031250,       21.0266113281,      -20.1416015625,      -58.7158203125
1488507730.7934060097,1488507730.7956950665,        0.6010742188,        0.1899414062,       -0.0957031250,       21.0266113281,      -20.1416015625,      -58.7158203125
1488507730.7959799767,1488507730.7982718945,        0.6010742188,        0.1899414062,       -0.0957031250,       15.9759521484,      -20.7672119141,      -59.2651367188
1488507730.7985579967,1488507730.8008539677,        0.6191406250,        0.1713867188,       -0.1079101562,       15.9759521484,      -20.7672119141,      -59.2651367188
1488507730.8011379242,1488507730.8036520481,        0.6191406250,        0.1713867188,       -0.1079101562,       11.5356445312,      -21.2707519531,      -59.9517822266
1488507730.8039450645,1488507730.8063600063,        0.6191406250,        0.1713867188,       -0.1079101562,       11.5356445312,      -21.2707519531,      -59.9517822266
1488507730.8066530228,1488507730.8090720177,        0.6191406250,        0.1713867188,       -0.1079101562,        7.9193115234,      -22.2320556641,      -60.2264404297
1488507730.8093619347,1488507730.8117909431,        0.6010742188,        0.0947265625,       -0.1333007812,        7.9193115234,      -22.2320556641,      -60.2264404297
1488507730.8120799065,1488507730.8144979477,        0.6010742188,        0.0947265625,       -0.1333007812,        5.0201416016,      -23.7274169922,      -60.4248046875
1488507730.8147859573,1488507730.8172020912,        0.6010742188,        0.0947265625,       -0.1333007812,        5.0201416016,      -23.7274169922,      -60.4248046875
1488507730.8174901009,1488507730.8199069500,        0.6010742188,        0.0947265625,       -0.1284179688,        3.4027099609,      -25.1007080078,      -61.0961914062
1488507730.8201990128,1488507730.8226211071,        0.5883789062,        0.0488281250,       -0.1284179688,        3.4027099609,      -25.1007080078,      -61.0961914062
1488507730.8229119778,1488507730.8253300190,        0.5883789062,        0.0488281250,       -0.1284179688,        1.2054443359,      -26.0162353516,      -61.7523193359
1488507730.8256208897,1488507730.8280379772,        0.5883789062,        0.0488281250,       -0.1284179688,        1.2054443359,      -26.0162353516,      -61.7523193359
1488507730.8283250332,1488507730.8307449818,        0.5473632812,        0.0322265625,       -0.1210937500,        1.1596679688,      -25.1922607422,      -62.6525878906
1488507730.8310329914,1488507730.8334519863,        0.5473632812,        0.0322265625,       -0.1210937500,        1.1596679688,      -25.1922607422,      -62.6525878906
1488507730.8337430954,1488507730.8361659050,        0.5473632812,        0.0322265625,       -0.1210937500,        2.1209716797,      -25.0854492188,      -63.4155273438
1488507730.8364551067,1488507730.8388650417,        0.5473632812,        0.0322265625,       -0.1210937500,        2.1209716797,      -25.0854492188,      -63.4155273438
1488507730.8391571045,1488507730.8415730000,        0.4873046875,        0.0908203125,       -0.1474609375,        2.4261474609,      -25.6958007812,      -63.2019042969
1488507730.8420150280,1488507730.8443090916,        0.4873046875,        0.0908203125,       -0.1474609375,        2.4261474609,      -25.6958007812,      -63.2019042969
1488507730.8445920944,1488507730.8468859196,        0.4873046875,        0.0908203125,       -0.1474609375,        2.5482177734,      -25.8789062500,      -63.3697509766
1488507730.8471679688,1488507730.8494610786,        0.4873046875,        0.0908203125,       -0.1474609375,        2.5482177734,      -25.8789062500,      -63.3697509766
1488507730.8497419357,1488507730.8521289825,        0.5244140625,        0.1567382812,       -0.1806640625,        1.4343261719,      -26.0620117188,      -63.9801025391
1488507730.8524169922,1488507730.8547940254,        0.5244140625,        0.1567382812,       -0.1806640625,        1.4343261719,      -26.0620117188,      -63.9801025391
1488507730.8550789356,1488507730.8574590683,        0.5244140625,        0.1567382812,       -0.1806640625,       -0.1983642578,      -26.3671875000,      -64.6667480469
1488507730.8581199646,1488507730.8604989052,        0.5244140625,        0.1772460938,       -0.2143554688,       -0.1983642578,      -26.3671875000,      -64.6667480469
1488507730.8607869148,1488507730.8633430004,        0.5532226562,        0.1772460938,       -0.2143554688,       -1.6937255859,      -26.5197753906,      -65.2465820312
1488507730.8636360168,1488507730.8660581112,        0.5532226562,        0.1772460938,       -0.2143554688,       -1.6937255859,      -26.5197753906,      -65.2465820312
1488507730.8663470745,1488507730.8687629700,        0.5532226562,        0.1772460938,       -0.2143554688,       -3.6010742188,      -27.0996093750,      -65.7806396484
1488507730.8690519333,1488507730.8714690208,        0.6176757812,        0.1591796875,       -0.1699218750,       -3.6010742188,      -27.0996093750,      -65.7806396484
1488507730.8717648983,1488507730.8741838932,        0.6176757812,        0.1591796875,       -0.1699218750,       -6.7749023438,      -26.8859863281,      -67.1234130859
1488507730.8744719028,1488507730.8768920898,        0.6176757812,        0.1591796875,       -0.1699218750,       -6.7749023438,      -26.8859863281,      -67.1234130859
1488507730.8771810532,1488507730.8796019554,        0.6176757812,        0.1591796875,       -0.1699218750,       -9.7351074219,      -26.4282226562,      -68.1304931641
1488507730.8798909187,1488507730.8822889328,        0.6118164062,        0.0668945312,       -0.1381835938,       -9.7351074219,      -26.4282226562,      -68.1304931641
1488507730.8825709820,1488507730.8848650455,        0.6118164062,        0.0668945312,       -0.1381835938,       -9.7656250000,      -25.3601074219,      -69.4274902344
1488507730.8851470947,1488507730.8874399662,        0.6118164062,        0.0668945312,       -0.1381835938,       -9.7656250000,      -25.3601074219,      -69.4274902344
1488507730.8877229691,1488507730.8900129795,        0.6118164062,        0.0668945312,       -0.1381835938,       -5.8746337891,      -25.6652832031,      -71.8536376953
1488507730.8902950287,1488507730.8926010132,        0.5898437500,        0.0229492188,       -0.1518554688,       -5.8746337891,      -25.6652832031,      -71.8536376953
1488507730.8928821087,1488507730.8951740265,        0.5898437500,        0.0229492188,       -0.1518554688,       -1.5258789062,      -25.0396728516,      -74.9816894531
1488507730.8954560757,1488507730.8977429867,        0.5898437500,        0.0229492188,       -0.1518554688,       -1.5258789062,      -25.0396728516,      -74.9816894531
1488507730.8980250359,1488507730.9003129005,        0.5898437500,        0.0229492188,       -0.1489257812,        3.5095214844,      -24.5361328125,      -78.5217285156
1488507730.9005949497,1488507730.9028959274,        0.5668945312,        0.0029296875,       -0.1489257812,        3.5095214844,      -24.5361328125,      -78.5217285156
1488507730.9031789303,1488507730.9054739475,        0.5668945312,        0.0029296875,       -0.1489257812,        9.8571777344,      -24.2309570312,      -81.5734863281
1488507730.9057569504,1488507730.9080479145,        0.5668945312,        0.0029296875,       -0.1489257812,        9.8571777344,      -24.2309570312,      -81.5734863281
1488507730.9083299637,1488507730.9106240273,        0.5668945312,       -0.1220703125,       -0.2055664062,        9.8571777344,      -25.8483886719,      -84.2132568359
1488507730.9109060764,1488507730.9133479595,        0.4760742188,       -0.0419921875,       -0.2055664062,       18.3258056641,      -25.8483886719,      -84.2132568359
1488507730.9136319160,1488507730.9159300327,        0.4760742188,       -0.0419921875,       -0.2055664062,       18.3258056641,      -29.7546386719,      -86.4257812500
1488507730.9162139893,1488507730.9185059071,        0.4760742188,       -0.0419921875,       -0.2055664062,       27.6184082031,      -27.7709960938,      -86.4257812500
1488507730.9187901020,1488507730.9210801125,        0.4760742188,        0.0556640625,       -0.2504882812,       27.6184082031,      -27.7709960938,      -88.1500244141
1488507730.9214758873,1488507730.9240219593,        0.4760742188,        0.0556640625,       -0.2504882812,       34.2559814453,      -29.6325683594,      -88.1500244141
1488507730.9243140221,1488507730.9267320633,        0.4760742188,        0.0556640625,       -0.2504882812,       34.2559814453,      -29.6325683594,      -89.4775390625
1488507730.9270260334,1488507730.9294450283,        0.4760742188,        0.0556640625,       -0.2504882812,       37.6281738281,      -30.6243896484,      -89.4775390625
1488507730.9297370911,1488507730.9321410656,        0.5444335938,        0.2377929688,       -0.2421875000,       37.6281738281,      -30.6243896484,      -89.1876220703
1488507730.9324290752,1488507730.9347200394,        0.5444335938,        0.2377929688,       -0.2421875000,       36.7126464844,      -30.7312011719,      -89.1876220703
1488507730.9350080490,1488507730.9372940063,        0.5444335938,        0.2377929688,       -0.2421875000,       36.7126464844,      -30.7312011719,      -88.4704589844
1488507730.9375770092,1488507730.9398679733,        0.5444335938,        0.2377929688,       -0.2421875000,       31.2042236328,      -30.4718017578,      -88.4704589844
1488507730.9401509762,1488507730.9425289631,        0.6064453125,        0.3129882812,       -0.1933593750,       31.2042236328,      -30.4718017578,      -88.4704589844
1488507730.9428200722,1488507730.9452219009,        0.6064453125,        0.3129882812,       -0.1933593750,       23.5748291016,      -29.5562744141,      -88.2720947266
1488507730.9455130100,1488507730.9479179382,        0.6064453125,        0.3129882812,       -0.1933593750,       23.5748291016,      -29.5562744141,      -88.2720947266
1488507730.9482080936,1488507730.9506130219,        0.6064453125,        0.3129882812,       -0.1933593750,       16.3269042969,      -28.9001464844,      -88.1500244141
1488507730.9509069920,1488507730.9533040524,        0.5996093750,        0.2597656250,       -0.1411132812,       16.3269042969,      -28.9001464844,      -88.1500244141
1488507730.9535961151,1488507730.9559810162,        0.5996093750,        0.2597656250,       -0.1411132812,       11.7797851562,      -29.1290283203,      -88.1347656250
1488507730.9562718868,1488507730.9586570263,        0.5996093750,        0.2597656250,       -0.1411132812,       11.7797851562,      -29.1290283203,      -88.1347656250
1488507730.9589450359,1488507730.9613249302,        0.5996093750,        0.2011718750,       -0.1489257812,        9.4451904297,      -29.6173095703,      -88.0432128906
1488507730.9616119862,1488507730.9639461040,        0.5629882812,        0.2011718750,       -0.1489257812,        9.4451904297,      -29.6173095703,      -88.0432128906
1488507730.9642291069,1488507730.9665219784,        0.5629882812,        0.2011718750,       -0.1489257812,        8.5449218750,      -29.7698974609,      -88.1347656250
1488507730.9668040276,1488507730.9690959454,        0.5629882812,        0.2011718750,       -0.1489257812,        8.5449218750,      -29.7698974609,      -88.1347656250
1488507730.9693789482,1488507730.9717240334,        0.5629882812,        0.1420898438,       -0.1630859375,       10.5438232422,      -29.8919677734,      -88.3331298828
1488507730.9720170498,1488507730.9744260311,        0.5068359375,        0.1420898438,       -0.1630859375,       10.5438232422,      -29.8919677734,      -88.3331298828
1488507730.9747200012,1488507730.9771370888,        0.5068359375,        0.1420898438,       -0.1630859375,       16.0217285156,      -30.5786132812,      -89.4470214844
1488507730.9774279594,1488507730.9799890518,        0.5068359375,        0.1420898438,       -0.1630859375,       16.0217285156,      -30.5786132812,      -89.4470214844
1488507730.9802811146,1488507730.9829919338,        0.4755859375,        0.1938476562,       -0.2392578125,       23.3154296875,      -31.4941406250,      -89.7369384766
1488507730.9832799435,1488507730.9855749607,        0.4755859375,        0.1938476562,       -0.2392578125,       23.3154296875,      -31.4941406250,      -89.7369384766
1488507730.9859778881,1488507730.9882709980,        0.4755859375,        0.1938476562,       -0.2392578125,       29.5257568359,      -31.3720703125,      -89.1418457031
1488507730.9885559082,1488507730.9908459187,        0.4755859375,        0.1938476562,       -0.3642578125,       29.5257568359,      -31.3720703125,      -89.1418457031
1488507730.9911289215,1488507730.9935491085,        0.4916992188,        0.3051757812,       -0.2641601562,       31.8450927734,      -30.3497314453,      -88.7756347656
1488507730.9938399792,1488507730.9962520599,        0.4916992188,        0.3051757812,       -0.2641601562,       31.8450927734,      -30.3497314453,      -88.7756347656
1488507730.9965419769,1488507730.9989581108,        0.4916992188,        0.3051757812,       -0.2641601562,       30.9295654297,      -29.9530029297,      -88.7451171875
1488507730.9992489815,1488507731.0017058849,        0.4916992188,        0.3051757812,       -0.2543945312,       30.9295654297,      -29.9530029297,      -88.7451171875
1488507731.0019989014,1488507731.0044150352,        0.4863281250,        0.3330078125,       -0.2543945312,       28.1372070312,      -30.4107666016,      -87.9211425781
1488507731.0047080517,1488507731.0071249008,        0.4863281250,        0.3330078125,       -0.2543945312,       28.1372070312,      -30.4107666016,      -87.9211425781
1488507731.0074169636,1488507731.0098359585,        0.4863281250,        0.3330078125,       -0.2543945312,       23.8800048828,      -30.9448242188,      -85.5407714844
1488507731.0101289749,1488507731.0125179291,        0.5693359375,        0.3793945312,       -0.2739257812,       23.8800048828,      -30.9448242188,      -85.5407714844
1488507731.0128030777,1488507731.0150980949,        0.5693359375,        0.3793945312,       -0.2739257812,       17.6696777344,      -29.7088623047,      -83.0230712891
1488507731.0153820515,1488507731.0176720619,        0.5693359375,        0.3793945312,       -0.2739257812,       17.6696777344,      -29.7088623047,      -83.0230712891
1488507731.0179560184,1488507731.0202510357,        0.5693359375,        0.3793945312,       -0.2739257812,       11.7492675781,      -29.4647216797,      -81.2835693359
1488507731.0205349922,1488507731.0228800774,        0.5634765625,        0.4140625000,       -0.1777343750,       11.7492675781,      -29.4647216797,      -81.2835693359
1488507731.0231649876,1488507731.0254569054,        0.5634765625,        0.4140625000,       -0.1777343750,        7.8582763672,      -30.7464599609,      -80.3070068359
1488507731.0257389545,1488507731.0280311108,        0.5634765625,        0.4140625000,       -0.1777343750,        7.8582763672,      -30.7464599609,      -80.3070068359
1488507731.0283119678,1488507731.0306038857,        0.5634765625,        0.4140625000,       -0.1777343750,        4.5318603516,      -30.4260253906,      -78.3233642578
1488507731.0308849812,1488507731.0333509445,        0.5346679688,        0.4370117188,       -0.2275390625,        4.5318603516,      -30.4260253906,      -78.3233642578
1488507731.0336329937,1488507731.0359249115,        0.5346679688,        0.4370117188,       -0.2275390625,        0.6256103516,      -29.4342041016,      -75.0885009766
1488507731.0362069607,1488507731.0385079384,        0.5346679688,        0.4370117188,       -0.2275390625,        3.0975341797,      -29.4342041016,      -75.0885009766
1488507731.0387899876,1488507731.0410840511,        0.5346679688,        0.4370117188,       -0.2275390625,        3.0975341797,      -29.4342041016,      -72.7539062500
1488507731.0413649082,1488507731.0439190865,        0.5834960938,        0.4580078125,       -0.2133789062,        2.5329589844,      -28.7780761719,      -72.7539062500
1488507731.0442070961,1488507731.0466020107,        0.5834960938,        0.4580078125,       -0.2133789062,        2.5329589844,      -28.7780761719,      -72.1588134766
1488507731.0468909740,1488507731.0492839813,        0.5834960938,        0.4580078125,       -0.2133789062,        0.5950927734,      -28.9916992188,      -72.1588134766
1488507731.0496809483,1488507731.0520939827,        0.5834960938,        0.4580078125,       -0.1728515625,        0.5950927734,      -30.0445556641,      -71.4874267578
1488507731.0523829460,1488507731.0547831059,        0.5224609375,        0.4174804688,       -0.1728515625,       -2.1667480469,      -30.0445556641,      -71.4874267578
1488507731.0550711155,1488507731.0574710369,        0.5224609375,        0.4174804688,       -0.1728515625,       -2.1667480469,      -33.9508056641,      -69.4885253906
1488507731.0577580929,1488507731.0601530075,        0.5224609375,        0.4174804688,       -0.1728515625,       -5.5541992188,      -32.4096679688,      -69.4885253906
1488507731.0604410172,1488507731.0628969669,        0.4746093750,        0.3989257812,       -0.1840820312,       -5.5541992188,      -32.4096679688,      -67.9168701172
1488507731.0631868839,1488507731.0655870438,        0.4746093750,        0.3989257812,       -0.1840820312,       -6.7749023438,      -33.7982177734,      -67.9168701172
1488507731.0658750534,1488507731.0682759285,        0.4746093750,        0.3989257812,       -0.1840820312,       -6.7749023438,      -37.7044677734,      -66.7724609375
1488507731.0685629845,1488507731.0709550381,        0.4746093750,        0.3989257812,       -0.1840820312,       -5.5999755859,      -35.8123779297,      -66.7724609375
1488507731.0712420940,1488507731.0736780167,        0.4809570312,        0.3764648438,       -0.1474609375,       -5.5999755859,      -35.8123779297,      -66.7419433594
1488507731.0739650726,1488507731.0763649940,        0.4809570312,        0.3764648438,       -0.1474609375,       -4.7302246094,      -37.5671386719,      -66.7419433594
1488507731.0766520500,1488507731.0790541172,        0.4809570312,        0.3764648438,       -0.1474609375,       -4.7302246094,      -37.5671386719,      -67.5048828125
1488507731.0793399811,1488507731.0817461014,        0.4809570312,        0.3764648438,       -0.1474609375,       -3.7231445312,      -38.9556884766,      -67.5048828125
1488507731.0820341110,1488507731.0844359398,        0.4252929688,        0.3125000000,       -0.1650390625,       -3.7231445312,      -38.9556884766,      -67.9779052734
1488507731.0847229958,1488507731.0871191025,        0.4252929688,        0.3125000000,       -0.1650390625,       -1.4648437500,      -38.8641357422,      -67.9779052734
1488507731.0874059200,1488507731.0898029804,        0.4252929688,        0.3125000000,       -0.1650390625,       -1.4648437500,      -38.8641357422,      -66.6961669922
1488507731.0900928974,1488507731.0925090313,        0.4252929688,        0.3398437500,       -0.2587890625,        2.4566650391,      -39.7644042969,      -66.6961669922
1488507731.0927970409,1488507731.0952119827,        0.4282226562,        0.3398437500,       -0.2587890625,        2.4566650391,      -39.7644042969,      -64.8651123047
1488507731.0954999924,1488507731.0979180336,        0.4282226562,        0.3398437500,       -0.2587890625,        7.0037841797,      -40.6951904297,      -64.8651123047
1488507731.0982170105,1488507731.1006391048,        0.4282226562,        0.3398437500,       -0.2587890625,        7.0037841797,      -40.6951904297,      -63.3392333984
1488507731.1009309292,1488507731.1037549973,        0.4389648438,        0.4462890625,       -0.3217773438,       10.2081298828,      -38.9556884766,      -63.3392333984
1488507731.1041359901,1488507731.1065518856,        0.4389648438,        0.4462890625,       -0.3217773438,       10.2081298828,      -36.5142822266,      -62.5915527344
1488507731.1068449020,1488507731.1092629433,        0.4389648438,        0.4462890625,       -0.3217773438,        8.6364746094,      -36.5142822266,      -62.5915527344
1488507731.1095519066,1488507731.1119821072,        0.4389648438,        0.4462890625,       -0.3217773438,        8.6364746094,      -34.4848632812,      -60.8062744141
1488507731.1122710705,1488507731.1146869659,        0.4165039062,        0.4711914062,       -0.3808593750,        3.6315917969,      -34.4848632812,      -60.8062744141
1488507731.1150810719,1488507731.1175010204,        0.4165039062,        0.4711914062,       -0.3808593750,        3.6315917969,      -32.5927734375,      -58.3648681641
1488507731.1177880764,1488507731.1202070713,        0.4165039062,        0.4711914062,       -0.3808593750,       -0.5950927734,      -32.5927734375,      -58.3648681641
1488507731.1204938889,1488507731.1229178905,        0.4165039062,        0.4282226562,       -0.3803710938,       -0.5950927734,      -30.5633544922,      -55.7403564453
1488507731.1232049465,1488507731.1256189346,        0.4614257812,        0.4282226562,       -0.3803710938,       -3.5858154297,      -30.5633544922,      -55.7403564453
1488507731.1259069443,1488507731.1283218861,        0.4614257812,        0.4282226562,       -0.3803710938,       -3.5858154297,      -28.9611816406,      -54.6112060547
1488507731.1286110878,1488507731.1310288906,        0.4614257812,        0.4282226562,       -0.3803710938,       -6.7749023438,      -28.9611816406,      -54.6112060547
1488507731.1313169003,1488507731.1336469650,        0.4716796875,        0.4716796875,       -0.3276367188,       -6.7749023438,      -28.9611816406,      -54.5501708984
1488507731.1339290142,1488507731.1362218857,        0.4716796875,        0.4716796875,       -0.3276367188,      -10.2996826172,      -27.3895263672,      -54.5501708984
1488507731.1365060806,1488507731.1387948990,        0.4716796875,        0.4716796875,       -0.3276367188,      -10.2996826172,      -27.3895263672,      -53.2836914062
1488507731.1390779018,1488507731.1413741112,        0.4716796875,        0.4716796875,       -0.3276367188,      -13.6566162109,      -26.0620117188,      -53.2836914062
1488507731.1417078972,1488507731.1440000534,        0.5419921875,        0.4667968750,       -0.2578125000,      -13.6566162109,      -26.0620117188,      -53.2836914062
1488507731.1442849636,1488507731.1465768814,        0.5419921875,        0.4667968750,       -0.2578125000,      -15.3198242188,      -23.7884521484,      -51.7883300781
1488507731.1468610764,1488507731.1491510868,        0.5419921875,        0.4667968750,       -0.2578125000,      -15.3198242188,      -23.7884521484,      -51.7883300781
1488507731.1494350433,1488507731.1518549919,        0.5419921875,        0.4667968750,       -0.2578125000,      -15.3503417969,      -22.5219726562,      -50.6286621094
1488507731.1521399021,1488507731.1544330120,        0.4926757812,        0.4404296875,       -0.2260742188,      -15.3503417969,      -22.5219726562,      -50.6286621094
1488507731.1547191143,1488507731.1570119858,        0.4926757812,        0.4404296875,       -0.2260742188,      -13.7939453125,      -21.0418701172,      -50.0488281250
1488507731.1572959423,1488507731.1595931053,        0.4926757812,        0.4404296875,       -0.2260742188,      -13.7939453125,      -21.0418701172,      -50.0488281250
1488507731.1598770618,1488507731.1623029709,        0.4926757812,        0.4404296875,       -0.2260742188,      -11.3830566406,      -18.9971923828,      -49.8809814453
1488507731.1625969410,1488507731.1650140285,        0.4028320312,        0.4902343750,       -0.2260742188,      -11.3830566406,      -18.9971923828,      -49.8809814453
1488507731.1653060913,1488507731.1677229404,        0.4028320312,        0.4902343750,       -0.2260742188,       -9.6435546875,      -17.3797607422,      -49.6368408203
1488507731.1680119038,1488507731.1704258919,        0.4028320312,        0.4902343750,       -0.2260742188,       -9.6435546875,      -17.3797607422,      -49.6368408203
1488507731.1707150936,1488507731.1730730534,        0.4028320312,        0.4902343750,       -0.2719726562,       -7.9345703125,      -15.1977539062,      -49.2095947266
1488507731.1733560562,1488507731.1756510735,        0.4467773438,        0.4785156250,       -0.2719726562,       -7.9345703125,      -15.1977539062,      -49.2095947266
1488507731.1759309769,1488507731.1782200336,        0.4467773438,        0.4785156250,       -0.2719726562,       -6.5002441406,      -12.4206542969,      -49.2248535156
1488507731.1785020828,1488507731.1807870865,        0.4467773438,        0.4785156250,       -0.2719726562,       -6.5002441406,      -12.4206542969,      -49.2248535156
1488507731.1811749935,1488507731.1835749149,        0.4467773438,        0.4453125000,       -0.3369140625,       -5.1116943359,       -9.7198486328,      -48.1719970703
1488507731.1838600636,1488507731.1862759590,        0.4125976562,        0.4453125000,       -0.3369140625,       -5.1116943359,       -9.7198486328,      -48.1719970703
1488507731.1865599155,1488507731.1889750957,        0.4125976562,        0.4453125000,       -0.3369140625,       -5.3405761719,       -7.7667236328,      -46.4324951172
1488507731.1892580986,1488507731.1917099953,        0.4125976562,        0.4453125000,       -0.3369140625,       -5.3405761719,       -7.7667236328,      -46.4324951172
1488507731.1919970512,1488507731.1944079399,        0.3920898438,        0.5122070312,       -0.3784179688,       -6.8359375000,       -7.0343017578,      -44.2199707031
1488507731.1946918964,1488507731.1971080303,        0.3920898438,        0.5122070312,       -0.3784179688,       -6.8359375000,       -7.0343017578,      -44.2199707031
1488507731.1973919868,1488507731.1998059750,        0.3920898438,        0.5122070312,       -0.3784179688,       -8.8653564453,       -5.9051513672,      -42.1295166016
1488507731.2000908852,1488507731.2025148869,        0.3920898438,        0.5122070312,       -0.3784179688,       -8.8653564453,       -5.9051513672,      -42.1295166016
1488507731.2028000355,1488507731.2052168846,        0.4296875000,        0.5527343750,       -0.3544921875,      -11.7645263672,       -4.3029785156,      -38.8336181641
1488507731.2055070400,1488507731.2079200745,        0.4296875000,        0.5527343750,       -0.3544921875,      -11.7645263672,       -4.3029785156,      -38.8336181641
1488507731.2082090378,1488507731.2106249332,        0.4296875000,        0.5527343750,       -0.3544921875,      -14.3737792969,       -2.8228759766,      -35.7513427734
1488507731.2109129429,1488507731.2134010792,        0.4296875000,        0.5527343750,       -0.2890625000,      -14.3737792969,       -2.8228759766,      -35.7513427734
1488507731.2136890888,1488507731.2160699368,        0.4130859375,        0.5356445312,       -0.2890625000,      -15.9149169922,       -2.0141601562,      -32.6080322266
1488507731.2163579464,1488507731.2189218998,        0.4130859375,        0.5356445312,       -0.2890625000,      -15.9149169922,       -2.0141601562,      -32.6080322266
1488507731.2192130089,1488507731.2216200829,        0.4130859375,        0.5356445312,       -0.2890625000,      -16.0217285156,       -1.3122558594,      -29.8004150391
1488507731.2223610878,1488507731.2246539593,        0.3984375000,        0.5439453125,       -0.2529296875,      -16.0217285156,       -1.3122558594,      -29.8004150391
1488507731.2249350548,1488507731.2272250652,        0.3984375000,        0.5439453125,       -0.2529296875,      -14.9993896484,       -0.8697509766,      -26.4739990234
1488507731.2275049686,1488507731.2297999859,        0.3984375000,        0.5439453125,       -0.2529296875,      -14.9993896484,       -0.8697509766,      -26.4739990234
1488507731.2300820351,1488507731.2324240208,        0.3984375000,        0.5439453125,       -0.2529296875,      -14.0228271484,       -0.7324218750,      -22.6745605469
1488507731.2327120304,1488507731.2351269722,        0.4008789062,        0.5957031250,       -0.2275390625,      -14.0228271484,       -0.7324218750,      -22.6745605469
1488507731.2354180813,1488507731.2378349304,        0.4008789062,        0.5957031250,       -0.2275390625,      -13.3514404297,       -0.3356933594,      -18.9971923828
1488507731.2381229401,1488507731.2405400276,        0.4008789062,        0.5957031250,       -0.2275390625,      -13.3514404297,       -0.3356933594,      -18.9971923828
1488507731.2408280373,1488507731.2432889938,        0.4008789062,        0.5957031250,       -0.2275390625,      -13.4124755859,        0.1525878906,      -15.5487060547
1488507731.2435779572,1488507731.2459959984,        0.4609375000,        0.5732421875,       -0.2377929688,      -13.4124755859,        0.1525878906,      -15.5487060547
1488507731.2463939190,1488507731.2488119602,        0.4609375000,        0.5732421875,       -0.2377929688,      -13.2904052734,        0.9918212891,      -11.4135742188
1488507731.2491021156,1488507731.2515170574,        0.4609375000,        0.5732421875,       -0.2377929688,      -13.2904052734,        0.9918212891,      -11.4135742188
1488507731.2518150806,1488507731.2541069984,        0.4609375000,        0.5253906250,       -0.2397460938,      -12.8326416016,        1.3427734375,       -7.1563720703
1488507731.2543859482,1488507731.2566781044,        0.4287109375,        0.5253906250,       -0.2397460938,      -12.8326416016,        1.3427734375,       -7.1563720703
1488507731.2569549084,1488507731.2592499256,        0.4287109375,        0.5253906250,       -0.2397460938,      -11.5966796875,        1.4495849609,       -2.5024414062
1488507731.2595269680,1488507731.2618210316,        0.4287109375,        0.5253906250,       -0.2397460938,      -11.5966796875,        1.4495849609,       -2.5024414062
1488507731.2620980740,1488507731.2643880844,        0.4287109375,        0.5556640625,       -0.2675781250,      -11.5966796875,        1.5106201172,        1.3427734375
1488507731.2646639347,1488507731.2669630051,        0.3891601562,        0.5556640625,       -0.2675781250,       -9.5367431641,        1.5106201172,        1.3427734375
1488507731.2672359943,1488507731.2695300579,        0.3891601562,        0.5556640625,       -0.2675781250,       -9.5367431641,        1.5106201172,        5.6610107422
1488507731.2698030472,1488507731.2722508907,        0.3891601562,        0.5556640625,       -0.2675781250,       -9.3841552734,        1.4801025391,        5.6610107422
1488507731.2725250721,1488507731.2748169899,        0.3427734375,        0.5917968750,       -0.2871093750,       -9.3841552734,        1.4801025391,       11.1389160156
1488507731.2750959396,1488507731.2773859501,        0.3427734375,        0.5917968750,       -0.2871093750,      -11.5814208984,        1.0986328125,       11.1389160156
1488507731.2776679993,1488507731.2799649239,        0.3427734375,        0.5917968750,       -0.2871093750,      -11.5814208984,        1.0986328125,       11.1389160156
1488507731.2802460194,1488507731.2827000618,        0.3427734375,        0.5917968750,       -0.2871093750,      -15.1062011719,        0.4425048828,       17.0288085938
1488507731.2829890251,1488507731.2853920460,        0.3276367188,        0.6035156250,       -0.3271484375,      -15.1062011719,        0.4425048828,       17.0288085938
1488507731.2856800556,1488507731.2880771160,        0.3276367188,        0.6035156250,       -0.3271484375,      -19.8059082031,       -0.2746582031,       23.4069824219
1488507731.2883648872,1488507731.2907650471,        0.3276367188,        0.6035156250,       -0.3271484375,      -19.8059082031,       -0.2746582031,       23.4069824219
1488507731.2910530567,1488507731.2934989929,        0.3276367188,        0.6035156250,       -0.3271484375,      -23.5290527344,       -1.8768310547,       30.2886962891
1488507731.2937870026,1488507731.2961850166,        0.3530273438,        0.5678710938,       -0.3300781250,      -23.5290527344,       -1.8768310547,       30.2886962891
1488507731.2964720726,1488507731.2988760471,        0.3530273438,        0.5678710938,       -0.3300781250,      -25.5279541016,       -2.5024414062,       36.1633300781
1488507731.2991631031,1488507731.3015599251,        0.3530273438,        0.5678710938,       -0.3300781250,      -25.5279541016,       -2.5024414062,       36.1633300781
1488507731.3018469810,1488507731.3042500019,        0.3530273438,        0.5678710938,       -0.3295898438,      -28.0609130859,       -1.6326904297,       41.7327880859
1488507731.3045380116,1488507731.3069341183,        0.4296875000,        0.5629882812,       -0.3295898438,      -28.0609130859,       -1.6326904297,       41.7327880859
1488507731.3072199821,1488507731.3096179962,        0.4296875000,        0.5629882812,       -0.3295898438,      -30.6854248047,       -0.4119873047,       47.8820800781
1488507731.3100149632,1488507731.3124189377,        0.4296875000,        0.5629882812,       -0.3295898438,      -30.6854248047,       -0.4119873047,       47.8820800781
1488507731.3127079010,1488507731.3151049614,        0.4633789062,        0.5483398438,       -0.3222656250,      -32.5012207031,        0.7171630859,       53.6499023438
1488507731.3153951168,1488507731.3177950382,        0.4633789062,        0.5483398438,       -0.3222656250,      -32.5012207031,        0.7171630859,       53.6499023438
1488507731.3180840015,1488507731.3204820156,        0.4633789062,        0.5483398438,       -0.3222656250,      -32.9895019531,        1.3427734375,       57.2204589844
1488507731.3207681179,1488507731.3231759071,        0.4633789062,        0.5483398438,       -0.3222656250,      -32.9895019531,        1.3427734375,       57.2204589844
1488507731.3234639168,1488507731.3258619308,        0.5058593750,        0.5356445312,       -0.3696289062,      -34.6069335938,        2.3498535156,       60.3485107422
1488507731.3261480331,1488507731.3285489082,        0.5058593750,        0.5356445312,       -0.3696289062,      -34.6069335938,        2.3498535156,       60.3485107422
1488507731.3288359642,1488507731.3312358856,        0.5058593750,        0.5356445312,       -0.3696289062,      -37.2161865234,        2.3498535156,       64.4226074219
1488507731.3315250874,1488507731.3339500427,        0.5058593750,        0.5356445312,       -0.3696289062,      -37.2161865234,        2.3498535156,       64.4226074219
1488507731.3342390060,1488507731.3366560936,        0.5312500000,        0.5776367188,       -0.3696289062,      -42.8161621094,        1.9073486328,       68.1457519531
1488507731.3369429111,1488507731.3394579887,        0.5312500000,        0.5776367188,       -0.3696289062,      -42.8161621094,        1.9073486328,       68.1457519531
1488507731.3397490978,1488507731.3421630859,        0.5312500000,        0.5776367188,       -0.3696289062,      -54.2907714844,        1.3885498047,       70.8923339844
1488507731.3428781033,1488507731.3452990055,        0.6196289062,        0.6406250000,       -0.3164062500,      -54.2907714844,        1.3885498047,       70.8923339844
1488507731.3455889225,1488507731.3480069637,        0.6196289062,        0.6406250000,       -0.3164062500,      -52.2155761719,        5.5541992188,       75.8819580078
1488507731.3482959270,1488507731.3507139683,        0.6196289062,        0.6406250000,       -0.3164062500,      -52.2155761719,        5.5541992188,       75.8819580078
1488507731.3510050774,1488507731.3534200191,        0.6196289062,        0.6406250000,       -0.3164062500,      -54.1076660156,        3.8146972656,       81.2072753906
1488507731.3537099361,1488507731.3561251163,        0.6953125000,        0.5380859375,       -0.2880859375,      -54.1076660156,        3.8146972656,       81.2072753906
1488507731.3564140797,1488507731.3588271141,        0.6953125000,        0.5380859375,       -0.2880859375,      -56.4270019531,        7.7056884766,       83.2061767578
1488507731.3591160774,1488507731.3615350723,        0.6953125000,        0.5380859375,       -0.2880859375,      -56.4270019531,        7.7056884766,       83.2061767578
1488507731.3618330956,1488507731.3642499447,        0.6953125000,        0.5380859375,       -0.2880859375,      -52.5665283203,       11.9018554688,       84.7167968750
1488507731.3645429611,1488507731.3669579029,        0.7661132812,        0.5463867188,       -0.1635742188,      -52.5665283203,       11.9018554688,       84.7167968750
1488507731.3672521114,1488507731.3696670532,        0.7661132812,        0.5463867188,       -0.1635742188,      -46.8902587891,       14.2364501953,       87.9211425781
1488507731.3699579239,1488507731.3723590374,        0.7661132812,        0.5463867188,       -0.1635742188,      -46.8902587891,       14.2364501953,       87.9211425781
1488507731.3726439476,1488507731.3749399185,        0.7661132812,        0.5463867188,       -0.1435546875,      -42.8924560547,       19.7906494141,       91.0949707031
1488507731.3753321171,1488507731.3776240349,        0.8330078125,        0.5786132812,       -0.1435546875,      -42.8924560547,       19.7906494141,       91.0949707031
1488507731.3779079914,1488507731.3802011013,        0.8330078125,        0.5786132812,       -0.1435546875,      -39.8101806641,       26.2908935547,       94.0856933594
1488507731.3804850578,1488507731.3827860355,        0.8330078125,        0.5786132812,       -0.1435546875,      -39.8101806641,       26.2908935547,       94.0856933594
1488507731.3830699921,1488507731.3853609562,        0.8330078125,        0.6118164062,       -0.1533203125,      -35.2783203125,       31.6314697266,       99.6856689453
1488507731.3856461048,1488507731.3879389763,        0.8178710938,        0.6118164062,       -0.1533203125,      -35.2783203125,       31.6314697266,       99.6856689453
1488507731.3882238865,1488507731.3905160427,        0.8178710938,        0.6118164062,       -0.1533203125,      -30.7464599609,       37.5366210938,      106.6589355469
1488507731.3907990456,1488507731.3932120800,        0.8178710938,        0.6118164062,       -0.1533203125,      -30.7464599609,       37.5366210938,      106.6589355469
1488507731.3934979439,1488507731.3957939148,        0.8110351562,        0.6562500000,       -0.1918945312,      -26.9317626953,       43.9453125000,      113.9678955078
1488507731.3960800171,1488507731.3983740807,        0.8110351562,        0.6562500000,       -0.1918945312,      -26.9317626953,       43.9453125000,      113.9678955078
1488507731.3986580372,1488507731.4009540081,        0.8110351562,        0.6562500000,       -0.1918945312,      -24.0325927734,       50.0946044922,      123.1842041016
1488507731.4012370110,1488507731.4036529064,        0.8110351562,        0.6562500000,       -0.1918945312,      -24.0325927734,       50.0946044922,      123.1842041016
1488507731.4039471149,1488507731.4063630104,        0.8710937500,        0.7187500000,       -0.2153320312,      -21.5911865234,       56.1370849609,      133.9263916016
1488507731.4066550732,1488507731.4090731144,        0.8710937500,        0.7187500000,       -0.2153320312,      -21.5911865234,       56.1370849609,      133.9263916016
1488507731.4093649387,1488507731.4117939472,        0.8710937500,        0.7187500000,       -0.2153320312,      -20.2026367188,       62.5762939453,      147.1405029297
1488507731.4120860100,1488507731.4145030975,        0.8710937500,        0.7187500000,       -0.2153320312,      -20.2026367188,       62.5762939453,      147.1405029297
1488507731.4147961140,1488507731.4172120094,        1.0551757812,        0.8154296875,       -0.2280273438,      -19.4396972656,       69.2749023438,      162.0635986328
1488507731.4175031185,1488507731.4199190140,        1.0551757812,        0.8154296875,       -0.2280273438,      -19.4396972656,       69.2749023438,      162.0635986328
1488507731.4202110767,1488507731.4225819111,        1.0551757812,        0.8154296875,       -0.2280273438,      -19.3786621094,       76.6448974609,      178.0853271484
1488507731.4228680134,1488507731.4251599312,        1.0551757812,        0.8154296875,       -0.2500000000,      -19.3786621094,       76.6448974609,      178.0853271484
1488507731.4254450798,1488507731.4277360439,        1.4169921875,        0.8017578125,       -0.2500000000,      -19.3786621094,       83.8165283203,      196.8078613281
1488507731.4280200005,1488507731.4303159714,        1.4169921875,        0.8017578125,       -0.2500000000,      -17.0745849609,       83.8165283203,      196.8078613281
1488507731.4305999279,1488507731.4328970909,        1.4169921875,        0.8017578125,       -0.2500000000,      -17.0745849609,       87.7227783203,      218.3380126953
1488507731.4331810474,1488507731.4354751110,        1.4169921875,        0.6767578125,       -0.3085937500,      -13.0157470703,       89.7369384766,      218.3380126953
1488507731.4357590675,1488507731.4380569458,        2.0073242188,        0.6313476562,       -0.3085937500,      -13.0157470703,       89.7369384766,      241.3635253906
1488507731.4384500980,1488507731.4407470226,        2.0073242188,        0.6313476562,       -0.3085937500,       -9.5520019531,       94.9249267578,      241.3635253906
1488507731.4410300255,1488507731.4434878826,        2.0073242188,        0.6313476562,       -0.3085937500,       -9.5520019531,       94.9249267578,      268.7988281250
1488507731.4437689781,1488507731.4460639954,        2.8823242188,        0.1704101562,       -0.4956054688,       -4.6234130859,       99.7924804688,      268.7988281250
1488507731.4463460445,1488507731.4486310482,        2.9111328125,        0.1704101562,       -0.4956054688,       -4.6234130859,       99.7924804688,      268.7988281250
1488507731.4489150047,1488507731.4512019157,        2.9111328125,        0.1704101562,       -0.4956054688,        6.1492919922,      104.6905517578,      302.4444580078
1488507731.4514830112,1488507731.4539430141,        2.9111328125,        0.1704101562,       -0.4956054688,        6.1492919922,      104.6905517578,      302.4444580078
1488507731.4542300701,1488507731.4566440582,        3.7436523438,       -0.9975585938,       -0.8974609375,       20.2941894531,      111.7858886719,      341.7053222656
1488507731.4569349289,1488507731.4594719410,        3.7436523438,       -0.9975585938,       -0.8974609375,       20.2941894531,      111.7858886719,      341.7053222656
1488507731.4597671032,1488507731.4622480869,        3.7436523438,       -0.9975585938,       -0.8974609375,       30.9143066406,      121.8414306641,      374.9084472656
1488507731.4625539780,1488507731.4649839401,        3.7436523438,       -0.9975585938,       -0.8974609375,       30.9143066406,      121.8414306641,      374.9084472656
1488507731.4652800560,1488507731.4676969051,        3.7768554688,       -1.8642578125,       -1.0458984375,       48.2330322266,      127.2735595703,      402.1911621094
1488507731.4679870605,1488507731.4704039097,        3.7768554688,       -1.8642578125,       -1.0458984375,       48.2330322266,      127.2735595703,      402.1911621094
1488507731.4706931114,1488507731.4730510712,        3.7768554688,       -1.8642578125,       -1.0458984375,       73.5778808594,      137.6495361328,      424.5758056641
1488507731.4733328819,1488507731.4756240845,        3.7768554688,       -1.8642578125,       -1.2641601562,       73.5778808594,      137.6495361328,      424.5758056641
1488507731.4759049416,1488507731.4781970978,        3.6630859375,       -0.5268554688,       -1.2641601562,       94.6197509766,      145.8740234375,      398.7274169922
1488507731.4784801006,1488507731.4807739258,        3.6630859375,       -0.5268554688,       -1.2641601562,       94.6197509766,      145.8740234375,      398.7274169922
1488507731.4810569286,1488507731.4834458828,        3.6630859375,       -0.5268554688,       -1.2641601562,      100.7080078125,      130.7983398438,      315.3381347656
1488507731.4837369919,1488507731.4861590862,        3.6630859375,        2.2641601562,       -1.6557617188,      100.7080078125,      130.7983398438,      315.3381347656
1488507731.4864499569,1488507731.4888620377,        2.5512695312,        2.2641601562,       -1.6557617188,       61.9201660156,      110.8093261719,      224.5178222656
1488507731.4891500473,1488507731.4915668964,        2.5512695312,        2.2641601562,       -1.6557617188,       61.9201660156,      110.8093261719,      224.5178222656
1488507731.4918489456,1488507731.4941411018,        2.5512695312,        2.2641601562,       -1.6557617188,       22.7355957031,       95.5352783203,      143.9361572266
1488507731.4944219589,1488507731.4967179298,       -2.8168945312,        5.0209960938,       -1.7534179688,       22.7355957031,       95.5352783203,      143.9361572266
1488507731.4969971180,1488507731.4992930889,       -2.8168945312,        5.0209960938,       -1.7534179688,      -59.0057373047,        5.1269531250,      100.2197265625
1488507731.4995710850,1488507731.5019109249,       -2.8168945312,        5.0209960938,       -1.7534179688,      -59.0057373047,        5.1269531250,      100.2197265625
1488507731.5022969246,1488507731.5045919418,       -2.8168945312,        5.0209960938,       -1.7534179688,     -135.4827880859,     -119.0948486328,       30.4107666016
1488507731.5048730373,1488507731.5071671009,       -0.7294921875,        0.0522460938,       -0.9858398438,     -135.4827880859,     -119.0948486328,       30.4107666016
1488507731.5074551105,1488507731.5097460747,       -0.7294921875,        0.0522460938,       -0.9858398438,     -122.6348876953,     -121.4904785156,      -55.1605224609
1488507731.5100300312,1488507731.5124039650,       -0.7294921875,        0.0522460938,       -0.9858398438,     -122.6348876953,     -121.4904785156,      -55.1605224609
1488507731.5126910210,1488507731.5149888992,       -0.7294921875,        0.0522460938,       -0.9858398438,      -87.4786376953,     -119.0948486328,     -126.0986328125
1488507731.5152750015,1488507731.5175631046,        0.6860351562,       -0.4140625000,        0.3237304688,      -86.6699218750,     -119.0948486328,     -126.0986328125
1488507731.5178480148,1488507731.5201430321,        0.6860351562,       -0.4140625000,        0.3237304688,      -86.6699218750,     -115.1885986328,     -183.5479736328
1488507731.5204269886,1488507731.5228528976,        0.6860351562,       -0.4140625000,        0.3237304688,      -26.0162353516,     -113.3422851562,     -183.5479736328
1488507731.5231389999,1488507731.5254271030,        0.6860351562,       -0.4140625000,        0.3237304688,      -26.0162353516,      -89.9047851562,     -223.2971191406
1488507731.5257120132,1488507731.5280001163,        0.8798828125,        0.7070312500,        0.1430664062,       15.4724121094,      -93.5668945312,     -223.2971191406
1488507731.5282850266,1488507731.5305800438,        0.8798828125,        0.7070312500,        0.1430664062,       15.4724121094,      -93.5668945312,     -239.6240234375
1488507731.5308649540,1488507731.5332460403,        0.8798828125,        0.7070312500,        0.1430664062,       25.5279541016,      -77.8656005859,     -239.6240234375
1488507731.5335409641,1488507731.5359549522,        0.8798828125,        0.7070312500,        0.1430664062,       25.5279541016,      -77.8656005859,     -235.7177734375
1488507731.5362479687,1488507731.5386600494,        0.6083984375,        0.2509765625,        0.2128906250,       21.1334228516,      -76.7211914062,     -234.5123291016
1488507731.5389509201,1488507731.5413689613,        0.6083984375,        0.2509765625,        0.2128906250,       21.1334228516,      -76.7211914062,     -226.6998291016
1488507731.5417010784,1488507731.5441160202,        0.6083984375,        0.2509765625,        0.2128906250,       17.4865722656,      -80.9631347656,     -226.8829345703
1488507731.5444068909,1488507731.5468249321,        0.6083984375,       -0.5737304688,        0.7392578125,       17.4865722656,      -80.9631347656,     -215.1641845703
1488507731.5471169949,1488507731.5495328903,        0.7773437500,       -0.5737304688,        0.7392578125,       22.0489501953,      -82.0312500000,     -214.8895263672
1488507731.5498259068,1488507731.5523319244,        0.7773437500,       -0.5737304688,        0.7392578125,       22.0489501953,      -82.0312500000,     -195.3582763672
1488507731.5526189804,1488507731.5549130440,        0.7773437500,       -0.5737304688,        0.7392578125,       30.1971435547,      -76.5838623047,     -198.2574462891
1488507731.5551989079,1488507731.5574979782,        0.6157226562,       -0.5458984375,        0.7885742188,       30.1971435547,      -76.5838623047,     -198.2574462891
1488507731.5577828884,1488507731.5600790977,        0.6157226562,       -0.5458984375,        0.7885742188,       36.1022949219,      -67.8405761719,     -179.7637939453
1488507731.5603630543,1488507731.5628719330,        0.6157226562,       -0.5458984375,        0.7885742188,       36.1022949219,      -67.8405761719,     -179.7637939453
1488507731.5631630421,1488507731.5655488968,        0.6157226562,       -0.5458984375,        0.7885742188,       35.7971191406,      -61.3403320312,     -159.4696044922
1488507731.5659470558,1488507731.5688889027,        0.0688476562,       -0.0683593750,        0.6435546875,       35.7971191406,      -61.3403320312,     -138.9923095703
1488507731.5691759586,1488507731.5714690685,        0.0688476562,       -0.0683593750,        0.6435546875,       26.8249511719,      -59.7076416016,     -138.9923095703
1488507731.5717520714,1488507731.5740380287,        0.0688476562,       -0.0683593750,        0.6435546875,       26.8249511719,      -59.7076416016,     -119.4610595703
1488507731.5743219852,1488507731.5766139030,        0.0688476562,       -0.0683593750,        0.5615234375,        8.8958740234,      -56.7626953125,     -120.4681396484
1488507731.5768949986,1488507731.5791840553,       -0.0766601562,       -0.1845703125,        0.5615234375,        8.8958740234,      -56.7626953125,     -120.4681396484
1488507731.5794670582,1488507731.5817689896,       -0.0766601562,       -0.1845703125,        0.5615234375,      -10.5438232422,      -48.3703613281,     -102.5848388672
1488507731.5820550919,1488507731.5843539238,       -0.0766601562,       -0.1845703125,        0.5615234375,      -10.5438232422,      -48.3703613281,     -102.5848388672
1488507731.5846400261,1488507731.5869259834,       -0.0766601562,       -1.1333007812,        0.6528320312,      -10.8795166016,      -31.2500000000,      -82.6721191406
1488507731.5872120857,1488507731.5894999504,        0.1416015625,       -1.1333007812,        0.6528320312,      -10.8795166016,      -31.2500000000,      -82.6721191406
1488507731.5897839069,1488507731.5921249390,        0.1416015625,       -1.1333007812,        0.6528320312,        8.4533691406,      -10.5438232422,      -59.1125488281
1488507731.5924050808,1488507731.5946969986,        0.1416015625,       -1.1333007812,        0.6528320312,        8.4533691406,      -10.5438232422,      -59.1125488281
1488507731.5949769020,1488507731.5972759724,       -0.1083984375,       -1.5395507812,        0.6728515625,       45.1965332031,        5.5847167969,      -33.9965820312
1488507731.5975570679,1488507731.5998470783,       -0.0610351562,       -1.5395507812,        0.6728515625,       45.1965332031,        5.5847167969,      -33.9965820312
1488507731.6001279354,1488507731.6024639606,       -0.0610351562,       -1.5395507812,        0.6728515625,       88.4246826172,       15.3656005859,       -9.6282958984
1488507731.6027460098,1488507731.6050429344,       -0.0610351562,       -1.5395507812,        0.6728515625,       88.4246826172,       15.3656005859,       -9.6282958984
1488507731.6053249836,1488507731.6076109409,       -0.4296875000,       -1.0830078125,        0.5859375000,      125.5493164062,       22.5067138672,       13.7634277344
1488507731.6078960896,1488507731.6101861000,       -0.4296875000,       -1.0830078125,        0.5859375000,      125.5493164062,       22.5067138672,       13.7634277344
1488507731.6104700565,1488507731.6128199100,       -0.4296875000,       -1.0830078125,        0.5859375000,      125.5493164062,       28.6712646484,       35.1409912109
1488507731.6131050587,1488507731.6153988838,       -0.4296875000,       -1.0830078125,        0.5859375000,      144.8669433594,       28.6712646484,       35.1409912109
1488507731.6156840324,1488507731.6179800034,       -0.5781250000,       -0.2070312500,        0.3491210938,      144.8669433594,       32.5775146484,       51.5747070312
1488507731.6182649136,1488507731.6205589771,       -0.5781250000,       -0.2070312500,        0.3491210938,      140.4418945312,       33.0047607422,       51.5747070312
1488507731.6208438873,1488507731.6232669353,       -0.5781250000,       -0.2070312500,        0.3491210938,      140.4418945312,       33.0047607422,       66.5435791016
1488507731.6235530376,1488507731.6258471012,       -0.5781250000,       -0.2070312500,        0.3491210938,      117.4163818359,       39.4134521484,       66.5435791016
1488507731.6261301041,1488507731.6284229755,       -0.2172851562,        0.1518554688,        0.1503906250,      117.4163818359,       39.4134521484,       78.2623291016
1488507731.6288170815,1488507731.6311089993,       -0.2172851562,        0.1518554688,        0.1503906250,       85.9375000000,       45.6237792969,       78.3843994141
1488507731.6313929558,1488507731.6338069439,       -0.2172851562,        0.1518554688,        0.1503906250,       85.9375000000,       45.6237792969,       78.3843994141
1488507731.6340990067,1488507731.6365110874,       -0.2172851562,        0.1518554688,        0.1503906250,       55.0384521484,       49.7741699219,       88.2263183594
1488507731.6368029118,1488507731.6392180920,        0.0747070312,        0.1254882812,       -0.0117187500,       55.0384521484,       49.7741699219,       88.2263183594
1488507731.6395099163,1488507731.6419401169,        0.0747070312,        0.1254882812,       -0.0117187500,       29.4647216797,       51.0406494141,       94.6350097656
1488507731.6422340870,1488507731.6446490288,        0.0747070312,        0.1254882812,       -0.0117187500,       29.4647216797,       51.0406494141,       94.6350097656
1488507731.6449398994,1488507731.6473629475,        0.0747070312,        0.1254882812,       -0.0693359375,       12.9241943359,       48.3398437500,       96.8170166016
1488507731.6476550102,1488507731.6500680447,        0.1391601562,        0.0795898438,       -0.0693359375,       12.9241943359,       48.3398437500,       96.8170166016
1488507731.6503610611,1488507731.6527891159,        0.1391601562,        0.0795898438,       -0.0693359375,        2.9602050781,       44.0979003906,       96.6033935547
1488507731.6530768871,1488507731.6555430889,        0.1391601562,        0.0795898438,       -0.0693359375,        2.9602050781,       44.0979003906,       96.6033935547
1488507731.6558270454,1488507731.6581220627,        0.0942382812,        0.1088867188,       -0.0253906250,       -1.5563964844,       38.7115478516,       94.0246582031
1488507731.6584050655,1488507731.6606988907,        0.0942382812,        0.1088867188,       -0.0253906250,       -1.5563964844,       38.7115478516,       94.0246582031
1488507731.6609799862,1488507731.6634240150,        0.0942382812,        0.1088867188,       -0.0253906250,       -2.3345947266,       33.1420898438,       88.3789062500
1488507731.6637139320,1488507731.6660990715,        0.0942382812,        0.1088867188,       -0.0253906250,       -2.3345947266,       33.1420898438,       88.3789062500
1488507731.6663870811,1488507731.6701629162,        0.0385742188,        0.2832031250,       -0.0034179688,       -3.3111572266,       27.5115966797,       81.5734863281
1488507731.6704490185,1488507731.6728210449,        0.0385742188,        0.2832031250,       -0.0034179688,       -7.2174072266,       22.7966308594,       73.3642578125
1488507731.6731069088,1488507731.6753950119,        0.0385742188,        0.2832031250,       -0.0034179688,       -5.6457519531,       22.7966308594,       73.3642578125
1488507731.6756789684,1488507731.6779649258,        0.0385742188,        0.4458007812,        0.0117187500,       -5.6457519531,       22.7966308594,       64.8040771484
1488507731.6782460213,1488507731.6805300713,        0.0068359375,        0.4458007812,        0.0117187500,      -10.5743408203,       20.3857421875,       64.8040771484
1488507731.6808168888,1488507731.6831240654,        0.0068359375,        0.4458007812,        0.0117187500,      -10.5743408203,       20.3857421875,       55.3741455078
1488507731.6834108829,1488507731.6856970787,        0.0068359375,        0.4458007812,        0.0117187500,      -16.7999267578,       19.3939208984,       55.3741455078
1488507731.6859810352,1488507731.6882729530,        0.0068359375,        0.4409179688,        0.0258789062,      -16.7999267578,       19.3939208984,       43.6553955078
1488507731.6885559559,1488507731.6908459663,        0.0263671875,        0.4409179688,        0.0258789062,      -20.6298828125,       18.9056396484,       45.3643798828
1488507731.6911289692,1488507731.6934690475,        0.0263671875,        0.4409179688,        0.0258789062,      -20.6298828125,       18.9056396484,       45.3643798828
1488507731.6938641071,1488507731.6961560249,        0.0263671875,        0.4409179688,        0.0258789062,      -20.1416015625,       19.2718505859,       35.0036621094
1488507731.6964399815,1488507731.6987259388,        0.0639648438,        0.2656250000,        0.0351562500,      -20.1416015625,       19.2718505859,       35.0036621094
1488507731.6990110874,1488507731.7012948990,        0.0639648438,        0.2656250000,        0.0351562500,      -14.3890380859,       20.1110839844,       24.3225097656
1488507731.7015790939,1488507731.7039909363,        0.0639648438,        0.2656250000,        0.0351562500,      -14.3890380859,       20.1110839844,       24.3225097656
1488507731.7042789459,1488507731.7065649033,        0.0639648438,        0.2656250000,        0.0351562500,       -3.6315917969,       20.8129882812,       13.3972167969
1488507731.7068490982,1488507731.7091391087,        0.0688476562,        0.0136718750,        0.0488281250,       -3.6315917969,       20.8129882812,       13.3972167969
1488507731.7094199657,1488507731.7118649483,        0.0688476562,        0.0136718750,        0.0488281250,       11.2304687500,       21.9573974609,        3.6010742188
1488507731.7121469975,1488507731.7144451141,        0.0688476562,        0.0136718750,        0.0488281250,       11.2304687500,       21.9573974609,        3.6010742188
1488507731.7147240639,1488507731.7170190811,        0.0688476562,        0.0136718750,        0.0488281250,       26.8249511719,       22.7813720703,       -3.9215087891
1488507731.7172980309,1488507731.7195959091,        0.0195312500,       -0.1542968750,        0.0434570312,       26.8249511719,       22.7813720703,       -3.9215087891
1488507731.7198760509,1488507731.7222800255,        0.0195312500,       -0.1542968750,        0.0434570312,       41.4276123047,       23.0712890625,       -8.7585449219
1488507731.7225620747,1488507731.7248599529,        0.0195312500,       -0.1542968750,        0.0434570312,       41.4276123047,       23.0712890625,       -8.7585449219
1488507731.7251420021,1488507731.7274401188,        0.0195312500,       -0.1542968750,        0.0434570312,       53.9855957031,       22.8729248047,      -10.8184814453
1488507731.7277259827,1488507731.7300169468,       -0.0712890625,       -0.0961914062,        0.0458984375,       53.9855957031,       22.8729248047,      -10.8184814453
1488507731.7303030491,1488507731.7326939106,       -0.0712890625,       -0.0961914062,        0.0458984375,       65.7043457031,       22.6440429688,      -10.7727050781
1488507731.7329869270,1488507731.7354049683,       -0.0712890625,       -0.0961914062,        0.0458984375,       64.0106201172,       22.6440429688,      -10.7727050781
1488507731.7356979847,1488507731.7381119728,       -0.0712890625,       -0.0961914062,        0.0419921875,       67.9168701172,       23.2849121094,       -9.8114013672
1488507731.7383999825,1488507731.7408130169,       -0.1420898438,        0.0532226562,        0.0419921875,       67.7947998047,       23.2849121094,       -9.8114013672
1488507731.7411019802,1488507731.7435328960,       -0.1420898438,        0.0532226562,        0.0419921875,       67.7947998047,       23.5900878906,       -7.8430175781
1488507731.7438240051,1488507731.7462399006,       -0.1420898438,        0.0532226562,        0.0419921875,       64.5751953125,       23.5900878906,       -7.8430175781
1488507731.7465310097,1488507731.7489459515,       -0.1420898438,        0.1835937500,        0.0087890625,       64.5751953125,       24.0631103516,       -4.6386718750
1488507731.7492349148,1488507731.7516489029,       -0.1479492188,        0.1835937500,        0.0087890625,       56.0302734375,       24.0631103516,       -4.6386718750
1488507731.7519810200,1488507731.7544000149,       -0.1479492188,        0.1835937500,        0.0087890625,       56.0302734375,       25.2532958984,       -1.1138916016
1488507731.7546889782,1488507731.7571029663,       -0.1479492188,        0.1835937500,        0.0087890625,       43.0908203125,       25.2532958984,       -1.1138916016
1488507731.7574930191,1488507731.7599139214,       -0.1181640625,        0.2421875000,       -0.0253906250,       27.4658203125,       25.9246826172,        1.9378662109
1488507731.7602040768,1488507731.7626190186,       -0.1181640625,        0.2421875000,       -0.0253906250,       27.6336669922,       25.9246826172,        1.9378662109
1488507731.7629089355,1488507731.7653241158,       -0.1181640625,        0.2421875000,       -0.0253906250,        8.1024169922,       26.4892578125,        4.6081542969
1488507731.7656099796,1488507731.7680270672,       -0.1181640625,        0.2421875000,       -0.0253906250,       10.3149414062,       26.4892578125,        4.6081542969
1488507731.7683169842,1488507731.7707309723,       -0.0815429688,        0.2231445312,       -0.0649414062,       10.3149414062,       26.5655517578,        6.5917968750
1488507731.7710189819,1488507731.7733690739,       -0.0815429688,        0.2231445312,       -0.0649414062,       -5.5847167969,       26.5655517578,        6.5917968750
1488507731.7736489773,1488507731.7759399414,       -0.0815429688,        0.2231445312,       -0.0649414062,       -5.5847167969,       26.5655517578,        7.8582763672
1488507731.7762188911,1488507731.7786788940,       -0.0815429688,        0.2231445312,       -0.1137695312,      -19.6990966797,       26.1077880859,        7.8582763672
1488507731.7789630890,1488507731.7812678814,       -0.0668945312,        0.1601562500,       -0.1137695312,      -19.6990966797,       26.1077880859,        8.0413818359
1488507731.7815508842,1488507731.7841329575,       -0.0668945312,        0.1601562500,       -0.1137695312,      -30.9143066406,       24.9023437500,        8.0413818359
1488507731.7844240665,1488507731.7868421078,       -0.0668945312,        0.1601562500,       -0.1137695312,      -30.9143066406,       20.9960937500,        7.2021484375
1488507731.7871310711,1488507731.7895491123,       -0.0649414062,        0.1079101562,       -0.1494140625,      -40.3747558594,       22.9339599609,        7.2021484375
1488507731.7898399830,1488507731.7922959328,       -0.0649414062,        0.1079101562,       -0.1494140625,      -40.3747558594,       22.9339599609,        6.2408447266
1488507731.7925870419,1488507731.7950069904,       -0.0649414062,        0.1079101562,       -0.1494140625,      -48.0041503906,       20.3704833984,        6.2408447266
1488507731.7952950001,1488507731.7977149487,       -0.0649414062,        0.1079101562,       -0.1494140625,      -48.0041503906,       16.4642333984,        5.4626464844
1488507731.7980051041,1488507731.8004240990,       -0.0664062500,        0.0556640625,       -0.1455078125,      -54.9621582031,       17.3187255859,        5.4626464844
1488507731.8007121086,1488507731.8031411171,       -0.0664062500,        0.0556640625,       -0.1455078125,      -54.9621582031,       13.4124755859,        5.3100585938
1488507731.8034319878,1488507731.8058528900,       -0.0664062500,        0.0556640625,       -0.1455078125,      -61.4013671875,       14.5263671875,        5.3100585938
1488507731.8061439991,1488507731.8085560799,       -0.0664062500,        0.0556640625,       -0.0205078125,      -61.4013671875,       14.5263671875,        6.2103271484
1488507731.8088440895,1488507731.8112599850,       -0.0595703125,       -0.0322265625,       -0.1049804688,      -67.2607421875,       12.8784179688,        6.2103271484
1488507731.8115510941,1488507731.8138670921,       -0.0595703125,       -0.0322265625,       -0.1049804688,      -67.2607421875,       12.8784179688,        8.3923339844
1488507731.8141489029,1488507731.8164410591,       -0.0595703125,       -0.0322265625,       -0.1049804688,      -70.4193115234,       11.9018554688,        8.3923339844
1488507731.8167240620,1488507731.8190150261,       -0.0595703125,       -0.1572265625,       -0.0454101562,      -70.4193115234,       11.9018554688,        8.3923339844
1488507731.8192970753,1488507731.8215870857,       -0.0683593750,       -0.1445312500,       -0.0454101562,      -71.4721679688,       12.1612548828,       11.5051269531
1488507731.8219308853,1488507731.8242290020,       -0.0683593750,       -0.1445312500,       -0.0454101562,      -71.4721679688,       12.1612548828,       11.5051269531
1488507731.8246200085,1488507731.8269169331,       -0.0683593750,       -0.1445312500,       -0.0454101562,      -70.3887939453,       12.7563476562,       15.2740478516
1488507731.8272030354,1488507731.8294980526,       -0.0683593750,       -0.2319335938,       -0.0195312500,      -70.3887939453,       12.7563476562,       15.2740478516
1488507731.8297839165,1488507731.8322300911,       -0.0834960938,       -0.2319335938,       -0.0195312500,      -66.8182373047,       14.0838623047,       19.8364257812
1488507731.8325159550,1488507731.8348100185,       -0.0834960938,       -0.2319335938,       -0.0195312500,      -66.8182373047,       14.0838623047,       19.8364257812
1488507731.8350949287,1488507731.8373870850,       -0.0834960938,       -0.2319335938,       -0.0195312500,      -62.5762939453,       15.7470703125,       24.7344970703
1488507731.8376719952,1488507731.8399689198,       -0.1079101562,       -0.2705078125,        0.0151367188,      -62.5762939453,       15.7470703125,       24.7344970703
1488507731.8402540684,1488507731.8427009583,       -0.1079101562,       -0.2705078125,        0.0151367188,      -57.5408935547,       16.7236328125,       30.0140380859
1488507731.8429949284,1488507731.8453989029,       -0.1079101562,       -0.2705078125,        0.0151367188,      -57.5408935547,       16.7236328125,       30.0140380859
1488507731.8456909657,1488507731.8480880260,       -0.1079101562,       -0.2705078125,        0.0151367188,      -52.2766113281,       17.9443359375,       36.0870361328
1488507731.8483810425,1488507731.8507800102,       -0.1098632812,       -0.2714843750,        0.0190429688,      -52.2766113281,       17.9443359375,       36.0870361328
1488507731.8510720730,1488507731.8535048962,       -0.1098632812,       -0.2714843750,        0.0190429688,      -47.4853515625,       19.5465087891,       42.2515869141
1488507731.8537950516,1488507731.8561708927,       -0.1098632812,       -0.2714843750,        0.0190429688,      -47.4853515625,       19.5465087891,       42.2515869141
1488507731.8564610481,1488507731.8588418961,       -0.1098632812,       -0.2714843750,        0.0190429688,      -43.0755615234,       21.6064453125,       47.9583740234
1488507731.8591310978,1488507731.8615100384,       -0.0869140625,       -0.2519531250,        0.0366210938,      -43.0755615234,       21.6064453125,       47.9583740234
1488507731.8618049622,1488507731.8642270565,       -0.0869140625,       -0.2519531250,        0.0366210938,      -38.0401611328,       23.2849121094,       53.5583496094
1488507731.8645210266,1488507731.8669419289,       -0.0869140625,       -0.2519531250,        0.0366210938,      -38.0401611328,       23.2849121094,       53.5583496094
1488507731.8672330379,1488507731.8696520329,       -0.0869140625,       -0.2211914062,        0.0263671875,      -32.6690673828,       25.6805419922,       58.6090087891
1488507731.8699440956,1488507731.8723449707,       -0.0463867188,       -0.2211914062,        0.0263671875,      -32.6690673828,       25.6805419922,       58.6090087891
1488507731.8726298809,1488507731.8749248981,       -0.0463867188,       -0.2211914062,        0.0263671875,      -26.6265869141,       28.0609130859,       63.0798339844
1488507731.8752090931,1488507731.8775000572,       -0.0463867188,       -0.2211914062,        0.0263671875,      -26.6265869141,       28.0609130859,       63.0798339844
1488507731.8777859211,1488507731.8800818920,       -0.0332031250,       -0.1840820312,       -0.0083007812,      -19.6533203125,       30.0903320312,       66.9403076172
1488507731.8803699017,1488507731.8827910423,       -0.0332031250,       -0.1840820312,       -0.0083007812,      -19.6533203125,       30.0903320312,       66.9403076172
1488507731.8830881119,1488507731.8855071068,       -0.0332031250,       -0.1840820312,       -0.0083007812,      -12.0849609375,       31.9671630859,       69.7784423828
1488507731.8858010769,1488507731.8882210255,       -0.0332031250,       -0.1840820312,       -0.0083007812,      -12.0849609375,       31.9671630859,       69.7784423828
1488507731.8886270523,1488507731.8910429478,       -0.0117187500,       -0.1352539062,       -0.0751953125,       -4.8370361328,       33.4167480469,       71.0601806641
1488507731.8913319111,1488507731.8937621117,       -0.0117187500,       -0.1352539062,       -0.0751953125,       -4.8370361328,       33.4167480469,       71.0601806641
1488507731.8940520287,1488507731.8964569569,       -0.0117187500,       -0.1352539062,       -0.0751953125,        0.7171630859,       33.8287353516,       71.2127685547
1488507731.8967471123,1488507731.8992989063,       -0.0117187500,       -0.1352539062,       -0.0751953125,        0.7171630859,       33.8287353516,       71.2127685547
1488507731.8995881081,1488507731.9020030499,        0.0043945312,       -0.0771484375,       -0.1274414062,        4.9133300781,       33.3709716797,       70.6329345703
1488507731.9026830196,1488507731.9051029682,        0.0043945312,       -0.0771484375,       -0.1274414062,        4.9133300781,       33.3709716797,       70.6329345703
