time_stamp before, time_stamp after, Acceleration x, Acceleration y, Acceleration z, Gyro x, Gyro y, Gyro z
1488507628.0165638924,1488507628.0255150795,        0.6147460938,        0.0058593750,       -0.1376953125,       -0.3204345703,       -0.4425048828,       -0.2288818359
1488507628.0258209705,1488507628.0291430950,        0.6049804688,        0.0019531250,       -0.1376953125,       -0.3204345703,       -0.4425048828,       -0.4425048828
1488507628.0294320583,1488507628.0321280956,        0.6049804688,        0.0019531250,       -0.1376953125,        0.1373291016,       -0.5187988281,       -0.4425048828
1488507628.0324199200,1488507628.0348370075,        0.6049804688,        0.0019531250,       -0.1416015625,        0.1068115234,       -0.7934570312,       -0.3509521484
1488507628.0351200104,1488507628.0375359058,        0.6108398438,        0.0000000000,       -0.1416015625,        0.1068115234,       -0.7934570312,       -0.3509521484
1488507628.0378170013,1488507628.0402328968,        0.6108398438,        0.0000000000,       -0.1416015625,        0.0762939453,       -0.9613037109,       -0.4882812500
1488507628.0405139923,1488507628.0429379940,        0.6108398438,        0.0000000000,       -0.1416015625,        0.0762939453,       -0.9613037109,       -0.4882812500
1488507628.0432159901,1488507628.0456249714,        0.6108398438,        0.0063476562,       -0.1386718750,       -3.8299560547,       -0.8087158203,       -0.4882812500
1488507628.0459089279,1488507628.0483210087,        0.6069335938,        0.0063476562,       -0.1386718750,       -0.1831054688,       -0.8087158203,       -0.4882812500
1488507628.0486009121,1488507628.0510120392,        0.6069335938,        0.0063476562,       -0.1386718750,       -0.1831054688,       -0.6713867188,       -0.3356933594
1488507628.0512909889,1488507628.0536119938,        0.6069335938,        0.0063476562,       -0.1386718750,       -0.2593994141,       -0.6713867188,       -0.3356933594
1488507628.0538840294,1488507628.0561718941,        0.6152343750,        0.0107421875,       -0.1391601562,       -0.2593994141,       -0.6713867188,       -0.0457763672
1488507628.0564439297,1488507628.0587329865,        0.6152343750,        0.0107421875,       -0.1391601562,       -0.0915527344,       -0.6256103516,       -0.0457763672
1488507628.0590050220,1488507628.0612978935,        0.6152343750,        0.0107421875,       -0.1391601562,       -0.0915527344,       -0.6256103516,       -0.0915527344
1488507628.0615689754,1488507628.0639789104,        0.6152343750,        0.0107421875,       -0.1391601562,        0.0457763672,       -0.7629394531,       -0.0915527344
1488507628.0642530918,1488507628.0665469170,        0.6113281250,        0.0053710938,       -0.1376953125,        0.0457763672,       -0.7629394531,        3.8146972656
1488507628.0668210983,1488507628.0691080093,        0.6113281250,        0.0053710938,       -0.1376953125,       -0.1220703125,       -0.5798339844,        0.0457763672
1488507628.0693819523,1488507628.0718359947,        0.6113281250,        0.0053710938,       -0.1376953125,       -0.1220703125,       -0.5798339844,        0.0457763672
1488507628.0721199512,1488507628.0745189190,        0.6113281250,        0.0053710938,       -0.1376953125,        0.2746582031,       -0.5798339844,       -0.2593994141
1488507628.0748000145,1488507628.0772008896,        0.6132812500,       -0.0024414062,       -0.1396484375,        0.2746582031,       -0.5798339844,       -0.2593994141
1488507628.0774829388,1488507628.0798768997,        0.6132812500,       -0.0024414062,       -0.1396484375,       -0.3051757812,       -0.4882812500,       -0.2136230469
1488507628.0801589489,1488507628.0825650692,        0.6132812500,       -0.0024414062,       -0.1396484375,       -0.3051757812,       -0.4882812500,       -0.2136230469
1488507628.0828471184,1488507628.0852189064,        0.6132812500,       -0.0024414062,       -0.1440429688,       -0.9460449219,       -0.0305175781,        0.0457763672
1488507628.0856211185,1488507628.0880579948,        0.6171875000,        0.0048828125,       -0.1440429688,       -0.9460449219,       -0.0305175781,        0.0457763672
1488507628.0885019302,1488507628.0909130573,        0.6171875000,        0.0048828125,       -0.1440429688,       -0.3967285156,        0.0000000000,        0.1678466797
1488507628.0911939144,1488507628.0936110020,        0.6171875000,        0.0048828125,       -0.1440429688,       -0.3967285156,        0.0000000000,        0.1678466797
1488507628.0938959122,1488507628.0963110924,        0.6147460938,       -0.0048828125,       -0.1420898438,        0.0305175781,       -0.3204345703,        0.4425048828
1488507628.0965950489,1488507628.0990109444,        0.6147460938,       -0.0048828125,       -0.1420898438,        0.0305175781,       -0.3204345703,        0.4425048828
1488507628.0992949009,1488507628.1017189026,        0.6147460938,       -0.0048828125,       -0.1420898438,        0.3967285156,       -0.4882812500,        0.2441406250
1488507628.1019940376,1488507628.1042859554,        0.6147460938,       -0.0048828125,       -0.1420898438,        0.3967285156,       -0.4882812500,        0.2441406250
1488507628.1045610905,1488507628.1068499088,        0.6093750000,       -0.0029296875,       -0.1328125000,       -0.5493164062,       -0.4577636719,       -0.0457763672
1488507628.1071250439,1488507628.1094219685,        0.6093750000,       -0.0029296875,       -0.1328125000,       -0.5493164062,       -0.4577636719,       -0.0457763672
1488507628.1096959114,1488507628.1121120453,        0.6093750000,       -0.0029296875,       -0.1328125000,       -0.5798339844,       -0.3204345703,       -0.0152587891
1488507628.1123890877,1488507628.1146860123,        0.6093750000,       -0.0029296875,       -0.1328125000,       -0.5798339844,       -0.3204345703,       -0.0152587891
1488507628.1149621010,1488507628.1172571182,        0.6079101562,       -0.0014648438,       -0.1440429688,       -0.5950927734,        0.1373291016,        0.0457763672
1488507628.1175329685,1488507628.1198220253,        0.6079101562,       -0.0014648438,       -0.1440429688,       -0.5950927734,        0.1373291016,        0.0457763672
1488507628.1200969219,1488507628.1224389076,        0.6079101562,       -0.0014648438,       -0.1440429688,       -0.6103515625,       -0.0762939453,        0.0152587891
1488507628.1227231026,1488507628.1251480579,        0.6079101562,       -0.0014648438,       -0.1440429688,       -0.6103515625,       -0.0762939453,        0.0152587891
1488507628.1254320145,1488507628.1280140877,        0.6142578125,       -0.0014648438,       -0.1367187500,       -0.3509521484,       -0.1220703125,       -0.1525878906
1488507628.1283080578,1488507628.1307289600,        0.6142578125,       -0.0014648438,       -0.1367187500,       -0.3509521484,       -0.1220703125,       -0.1525878906
1488507628.1321270466,1488507628.1344199181,        0.6142578125,       -0.0014648438,       -0.1367187500,        0.0305175781,       -0.3814697266,        0.0000000000
1488507628.1346979141,1488507628.1369860172,        0.6166992188,       -0.0009765625,       -0.1362304688,        0.0305175781,       -0.3814697266,        0.0000000000
1488507628.1372609138,1488507628.1395430565,        0.6166992188,       -0.0009765625,       -0.1362304688,        0.0152587891,       -0.4882812500,        0.3204345703
1488507628.1398200989,1488507628.1421310902,        0.6166992188,       -0.0009765625,       -0.1362304688,        0.0152587891,       -0.4882812500,        0.3204345703
1488507628.1424069405,1488507628.1446909904,        0.6166992188,       -0.0009765625,       -0.1362304688,       -0.2593994141,       -0.8239746094,        0.1983642578
1488507628.1449649334,1488507628.1472530365,        0.6142578125,        0.0068359375,       -0.1333007812,       -0.2593994141,       -0.8239746094,        0.1983642578
1488507628.1475279331,1488507628.1498150826,        0.6142578125,        0.0068359375,       -0.1333007812,       -0.5950927734,       -0.3814697266,        0.1525878906
1488507628.1500899792,1488507628.1523830891,        0.6142578125,        0.0068359375,       -0.1333007812,       -0.5950927734,       -0.3814697266,        0.1525878906
1488507628.1527700424,1488507628.1550629139,        0.6142578125,        0.0068359375,       -0.1333007812,       -0.3356933594,       -0.4730224609,        0.4119873047
1488507628.1553390026,1488507628.1576240063,        0.6103515625,        0.0029296875,       -0.1352539062,       -0.3356933594,       -0.4730224609,        0.4119873047
1488507628.1578989029,1488507628.1601850986,        0.6103515625,        0.0029296875,       -0.1352539062,       -0.5340576172,       -0.5035400391,        0.3204345703
1488507628.1604599953,1488507628.1627500057,        0.6103515625,        0.0029296875,       -0.1352539062,       -0.5340576172,       -0.5035400391,        0.3204345703
1488507628.1630270481,1488507628.1653161049,        0.6103515625,        0.0029296875,       -0.1352539062,       -0.5340576172,       -0.2593994141,       -0.0762939453
1488507628.1655929089,1488507628.1678800583,        0.6083984375,       -0.0004882812,       -0.1372070312,       -0.5340576172,       -0.2593994141,       -0.0762939453
1488507628.1681571007,1488507628.1704421043,        0.6083984375,       -0.0004882812,       -0.1372070312,       -0.5340576172,       -0.2593994141,       -0.5798339844
1488507628.1707160473,1488507628.1730680466,        0.6083984375,       -0.0004882812,       -0.1372070312,       -0.7934570312,       -0.1525878906,       -0.5798339844
1488507628.1733419895,1488507628.1756329536,        0.6083984375,       -0.0004882812,       -0.1372070312,       -0.7934570312,       -0.1525878906,       -0.4882812500
1488507628.1759059429,1488507628.1782000065,        0.6127929688,        0.0004882812,       -0.1396484375,       -1.0070800781,       -0.3356933594,       -0.4882812500
1488507628.1784739494,1488507628.1807639599,        0.6127929688,        0.0004882812,       -0.1396484375,       -1.0070800781,       -0.3356933594,       -0.4882812500
1488507628.1810369492,1488507628.1834199429,        0.6127929688,        0.0004882812,       -0.1396484375,       -0.7324218750,       -0.3814697266,       -0.2593994141
1488507628.1836969852,1488507628.1859920025,        0.6127929688,        0.0004882812,       -0.1411132812,       -0.7324218750,       -0.3814697266,       -0.2593994141
1488507628.1862668991,1488507628.1885609627,        0.6171875000,        0.0004882812,       -0.1411132812,       -0.8544921875,       -0.3356933594,       -0.0305175781
1488507628.1888360977,1488507628.1911280155,        0.6171875000,        0.0004882812,       -0.1411132812,       -0.8544921875,       -0.3356933594,       -0.0305175781
1488507628.1914019585,1488507628.1938850880,        0.6171875000,        0.0004882812,       -0.1411132812,       -1.1749267578,       -0.2288818359,       -0.0915527344
1488507628.1941719055,1488507628.1965899467,        0.6171875000,       -0.1245117188,       -0.1357421875,       -1.1749267578,       -0.2288818359,       -0.0915527344
1488507628.1968729496,1488507628.1992928982,        0.6142578125,       -0.0014648438,       -0.1357421875,       -1.0528564453,       -0.5187988281,       -0.4577636719
1488507628.1995749474,1488507628.2020061016,        0.6142578125,       -0.0014648438,       -0.1357421875,       -1.0528564453,       -0.5187988281,       -0.4577636719
1488507628.2022879124,1488507628.2046999931,        0.6142578125,       -0.0014648438,       -0.1357421875,       -0.4272460938,       -0.6408691406,       -0.2441406250
1488507628.2049839497,1488507628.2074010372,        0.6157226562,        0.0014648438,       -0.1440429688,       -0.4272460938,       -0.6408691406,       -0.2441406250
1488507628.2076859474,1488507628.2100970745,        0.6157226562,        0.0014648438,       -0.1440429688,       -0.1068115234,       -0.7171630859,       -0.3356933594
1488507628.2103800774,1488507628.2127559185,        0.6157226562,        0.0014648438,       -0.1440429688,       -0.1068115234,       -0.7171630859,       -0.3356933594
1488507628.2130329609,1488507628.2153260708,        0.6157226562,        0.0014648438,       -0.1440429688,       -1.0070800781,       -0.7019042969,       -0.0457763672
1488507628.2157111168,1488507628.2180080414,        0.6152343750,        0.0024414062,       -0.1362304688,       -1.0070800781,       -0.7019042969,       -0.0457763672
1488507628.2182829380,1488507628.2205700874,        0.6152343750,        0.0024414062,       -0.1362304688,       -1.2359619141,       -0.3662109375,       -0.3204345703
1488507628.2208449841,1488507628.2231419086,        0.6152343750,        0.0024414062,       -0.1362304688,       -1.2359619141,       -0.3662109375,       -0.3204345703
1488507628.2234179974,1488507628.2257111073,        0.6152343750,        0.0024414062,       -0.1362304688,       -0.4577636719,       -0.3509521484,       -0.3051757812
1488507628.2259860039,1488507628.2282729149,        0.6191406250,       -0.0019531250,       -0.1391601562,       -0.4577636719,       -0.3509521484,       -0.3051757812
1488507628.2285499573,1488507628.2308399677,        0.6191406250,       -0.0019531250,       -0.1391601562,       -0.5950927734,       -0.5187988281,       -0.1831054688
1488507628.2311151028,1488507628.2335629463,        0.6191406250,       -0.0019531250,       -0.1391601562,       -0.5950927734,       -0.5187988281,       -0.1831054688
1488507628.2338480949,1488507628.2362630367,        0.6191406250,       -0.0019531250,       -0.1391601562,       -0.6866455078,       -0.2441406250,       -0.2136230469
1488507628.2365450859,1488507628.2389640808,        0.6147460938,        0.0053710938,       -0.1420898438,       -0.6866455078,       -0.2441406250,       -0.2136230469
1488507628.2392470837,1488507628.2417080402,        0.6147460938,        0.0053710938,       -0.1420898438,       -0.2899169922,       -0.7476806641,       -0.6408691406
1488507628.2419910431,1488507628.2444040775,        0.6147460938,        0.0053710938,       -0.1420898438,       -0.2899169922,       -0.7476806641,       -0.6408691406
1488507628.2446870804,1488507628.2471020222,        0.6147460938,        0.0053710938,       -0.1391601562,       -0.7171630859,       -0.5645751953,       -0.3662109375
1488507628.2473859787,1488507628.2498641014,        0.6098632812,        0.0009765625,       -0.1391601562,       -0.7171630859,       -0.5645751953,       -0.3662109375
1488507628.2501480579,1488507628.2525808811,        0.6098632812,        0.0009765625,       -0.1391601562,       -0.8392333984,       -0.4425048828,       -0.3204345703
1488507628.2528629303,1488507628.2552850246,        0.6098632812,        0.0009765625,       -0.1391601562,       -0.8392333984,       -0.4425048828,       -0.3204345703
1488507628.2555658817,1488507628.2579839230,        0.6147460938,        0.0004882812,       -0.1386718750,       -0.7934570312,       -0.5645751953,       -0.3204345703
1488507628.2582659721,1488507628.2606790066,        0.6147460938,        0.0004882812,       -0.1386718750,       -0.7934570312,       -0.5645751953,       -0.3204345703
1488507628.2609610558,1488507628.2633121014,        0.6147460938,        0.0004882812,       -0.1386718750,       -0.7934570312,       -0.3051757812,       -0.3967285156
1488507628.2635869980,1488507628.2658770084,        0.6147460938,        0.0004882812,       -0.1386718750,       -0.4577636719,       -0.3051757812,       -0.3967285156
1488507628.2661519051,1488507628.2684440613,        0.6132812500,        0.0048828125,       -0.1376953125,       -0.4577636719,       -0.3051757812,       -0.2899169922
1488507628.2687189579,1488507628.2710149288,        0.6132812500,        0.0048828125,       -0.1376953125,       -0.6408691406,       -0.6561279297,       -0.2899169922
1488507628.2712879181,1488507628.2737491131,        0.6132812500,        0.0048828125,       -0.1376953125,       -0.6408691406,       -0.6561279297,       -0.1525878906
1488507628.2740321159,1488507628.2764461040,        0.6132812500,        0.0048828125,       -0.1376953125,       -0.9460449219,       -0.5798339844,       -0.1525878906
1488507628.2767300606,1488507628.2791440487,        0.6108398438,        0.0073242188,       -0.1406250000,       -0.9460449219,       -0.5798339844,       -0.0305175781
1488507628.2795460224,1488507628.2819690704,        0.6108398438,        0.0073242188,       -0.1406250000,       -0.5187988281,       -0.6103515625,       -0.0305175781
1488507628.2822439671,1488507628.2845408916,        0.6108398438,        0.0073242188,       -0.1406250000,       -0.5187988281,       -0.6103515625,       -0.2288818359
1488507628.2848150730,1488507628.2871000767,        0.6108398438,        0.0073242188,       -0.1352539062,       -0.5187988281,       -0.1373291016,       -0.2288818359
1488507628.2873749733,1488507628.2896659374,        0.6157226562,        0.0009765625,       -0.1352539062,       -0.5187988281,       -0.1373291016,       -0.2288818359
1488507628.2899401188,1488507628.2923889160,        0.6157226562,        0.0009765625,       -0.1352539062,       -0.6408691406,       -0.0610351562,       -0.1831054688
1488507628.2926640511,1488507628.2949590683,        0.6157226562,        0.0009765625,       -0.1352539062,       -0.6408691406,       -0.0610351562,       -0.1831054688
1488507628.2952339649,1488507628.2975289822,        0.6157226562,        0.0014648438,       -0.1445312500,       -1.1291503906,       -0.4272460938,       -0.1831054688
1488507628.2978041172,1488507628.3000979424,        0.6162109375,        0.0014648438,       -0.1445312500,       -1.1291503906,       -0.4272460938,       -0.1831054688
1488507628.3003740311,1488507628.3027989864,        0.6162109375,        0.0014648438,       -0.1445312500,       -0.8239746094,       -0.4577636719,       -0.1678466797
1488507628.3030738831,1488507628.3053700924,        0.6162109375,        0.0014648438,       -0.1445312500,       -0.8239746094,       -0.4577636719,       -0.1678466797
1488507628.3056440353,1488507628.3079340458,        0.6162109375,        0.0039062500,       -0.1367187500,        0.0915527344,       -0.6103515625,       -0.2899169922
1488507628.3082110882,1488507628.3105020523,        0.6069335938,        0.0039062500,       -0.1367187500,        0.0915527344,       -0.6103515625,       -0.2899169922
1488507628.3107800484,1488507628.3130850792,        0.6069335938,        0.0039062500,       -0.1367187500,        0.0000000000,       -0.7324218750,       -0.2136230469
1488507628.3133618832,1488507628.3156530857,        0.6069335938,        0.0039062500,       -0.1367187500,        0.0000000000,       -0.7324218750,       -0.2136230469
1488507628.3159310818,1488507628.3182260990,        0.6069335938,       -0.0014648438,       -0.1376953125,       -0.4272460938,       -0.5950927734,       -0.4577636719
1488507628.3185029030,1488507628.3207969666,        0.6069335938,       -0.0014648438,       -0.1376953125,       -0.4272460938,       -0.5950927734,       -0.4577636719
1488507628.3210730553,1488507628.3235061169,        0.6069335938,       -0.0014648438,       -0.1376953125,        0.0610351562,       -0.5493164062,       -0.3814697266
1488507628.3237900734,1488507628.3266971111,        0.6069335938,       -0.0014648438,       -0.1376953125,        0.0610351562,       -0.5493164062,       -0.3814697266
1488507628.3269801140,1488507628.3292660713,        0.6064453125,        0.0000000000,       -0.1391601562,        0.4119873047,       -0.7629394531,       -0.5798339844
1488507628.3295419216,1488507628.3318269253,        0.6064453125,        0.0000000000,       -0.1391601562,        0.4119873047,       -0.7629394531,       -0.5798339844
1488507628.3321020603,1488507628.3343930244,        0.6064453125,        0.0000000000,       -0.1391601562,        0.2593994141,       -0.4577636719,       -0.7019042969
1488507628.3346669674,1488507628.3371059895,        0.6064453125,        0.0000000000,       -0.1391601562,        0.2593994141,       -0.4577636719,       -0.7019042969
1488507628.3373820782,1488507628.3396689892,        0.6083984375,        0.0004882812,       -0.1318359375,       -0.1525878906,       -0.5340576172,       -0.4425048828
1488507628.3399429321,1488507628.3424170017,        0.6083984375,        0.0004882812,       -0.1318359375,       -0.1525878906,       -0.5340576172,       -0.4425048828
1488507628.3428070545,1488507628.3450949192,        0.6083984375,        0.0004882812,       -0.1318359375,       -0.2441406250,       -0.8697509766,       -0.4577636719
1488507628.3453691006,1488507628.3477408886,        0.6083984375,        0.0004882812,       -0.1376953125,       -0.2441406250,       -0.8697509766,       -0.4577636719
1488507628.3480188847,1488507628.3503000736,        0.6152343750,        0.0034179688,       -0.1376953125,       -0.2441406250,       -0.6866455078,       -0.5035400391
1488507628.3509659767,1488507628.3532910347,        0.6152343750,        0.0034179688,       -0.1376953125,       -0.6866455078,       -0.6866455078,       -0.5035400391
1488507628.3535659313,1488507628.3558530807,        0.6152343750,        0.0034179688,       -0.1376953125,       -0.6866455078,       -0.5340576172,       -0.1983642578
1488507628.3561279774,1488507628.3584120274,        0.6152343750,        0.0034179688,       -0.1406250000,       -0.7019042969,       -0.5340576172,       -0.1983642578
1488507628.3586859703,1488507628.3609790802,        0.6093750000,        0.0034179688,       -0.1406250000,       -0.7019042969,       -0.5340576172,       -0.2288818359
1488507628.3612539768,1488507628.3637130260,        0.6093750000,        0.0034179688,       -0.1406250000,       -0.8087158203,       -0.2288818359,       -0.2288818359
1488507628.3639960289,1488507628.3664150238,        0.6093750000,        0.0034179688,       -0.1406250000,       -0.8087158203,       -0.2288818359,       -0.1983642578
1488507628.3666999340,1488507628.3691270351,        0.6108398438,        0.0043945312,       -0.1362304688,       -0.5035400391,       -0.4425048828,       -0.1983642578
1488507628.3694100380,1488507628.3718280792,        0.6108398438,        0.0043945312,       -0.1362304688,       -0.5035400391,       -0.4425048828,       -0.4272460938
1488507628.3721110821,1488507628.3745379448,        0.6108398438,        0.0043945312,       -0.1362304688,        0.0915527344,       -0.7324218750,       -0.4272460938
1488507628.3748209476,1488507628.3772439957,        0.6108398438,        0.0043945312,       -0.1362304688,        0.0915527344,       -0.7324218750,       -0.2746582031
1488507628.3775269985,1488507628.3799459934,        0.6142578125,        0.0024414062,       -0.1391601562,       -0.2288818359,       -0.5187988281,       -0.2746582031
1488507628.3802289963,1488507628.3826959133,        0.6142578125,        0.0024414062,       -0.1391601562,       -0.2288818359,       -0.5187988281,       -0.3204345703
1488507628.3829729557,1488507628.3852629662,        0.6142578125,        0.0024414062,       -0.1391601562,       -0.6408691406,       -0.3662109375,       -0.3204345703
1488507628.3855359554,1488507628.3878290653,        0.6142578125,        0.0024414062,       -0.1391601562,       -0.6408691406,       -0.3662109375,       -0.5645751953
1488507628.3881030083,1488507628.3904039860,        0.6157226562,        0.0019531250,       -0.1357421875,       -0.4577636719,       -0.3356933594,       -0.5645751953
1488507628.3906779289,1488507628.3930110931,        0.6157226562,        0.0019531250,       -0.1357421875,       -0.4577636719,       -0.3356933594,       -0.5645751953
1488507628.3932859898,1488507628.3955869675,        0.6157226562,        0.0019531250,       -0.1357421875,       -0.0152587891,       -0.2441406250,       -0.8392333984
1488507628.3958599567,1488507628.3981568813,        0.6157226562,        0.0019531250,       -0.1328125000,       -0.0152587891,       -0.2441406250,       -0.8392333984
1488507628.3984301090,1488507628.4007298946,        0.6069335938,        0.0019531250,       -0.1328125000,        0.3662109375,       -0.5950927734,       -0.7629394531
1488507628.4010040760,1488507628.4034008980,        0.6069335938,        0.0019531250,       -0.1328125000,        0.3662109375,       -0.5950927734,       -0.7629394531
1488507628.4036800861,1488507628.4059739113,        0.6069335938,        0.0019531250,       -0.1328125000,       -0.0305175781,       -0.6408691406,       -0.8392333984
1488507628.4063489437,1488507628.4086410999,        0.6069335938,        0.0043945312,       -0.1386718750,       -0.0305175781,       -0.6408691406,       -0.8392333984
1488507628.4089159966,1488507628.4112150669,        0.6108398438,        0.0043945312,       -0.1386718750,       -0.1525878906,       -0.2593994141,       -0.8392333984
1488507628.4114909172,1488507628.4139399529,        0.6108398438,        0.0043945312,       -0.1386718750,       -0.1525878906,       -0.2593994141,       -0.8392333984
1488507628.4142239094,1488507628.4166450500,        0.6108398438,        0.0043945312,       -0.1386718750,        0.3204345703,       -0.3814697266,       -1.0528564453
1488507628.4169270992,1488507628.4193389416,        0.6137695312,        0.0029296875,       -0.1474609375,        0.3204345703,       -0.3814697266,       -1.0528564453
1488507628.4196219444,1488507628.4220449924,        0.6137695312,        0.0029296875,       -0.1474609375,       -0.1373291016,       -0.3509521484,       -0.6103515625
1488507628.4223279953,1488507628.4247488976,        0.6137695312,        0.0029296875,       -0.1474609375,       -0.1373291016,       -0.3509521484,       -0.6103515625
1488507628.4250299931,1488507628.4274449348,        0.6137695312,        0.0029296875,       -0.1474609375,        0.1525878906,       -0.2746582031,       -0.3509521484
1488507628.4277279377,1488507628.4301419258,        0.6103515625,        0.0043945312,       -0.1308593750,        0.1525878906,       -0.2746582031,       -0.3509521484
1488507628.4304230213,1488507628.4328498840,        0.6103515625,        0.0043945312,       -0.1308593750,        0.3204345703,       -0.4730224609,       -0.3967285156
1488507628.4331328869,1488507628.4355449677,        0.6103515625,        0.0043945312,       -0.1308593750,        0.3204345703,       -0.4730224609,       -0.3967285156
1488507628.4358260632,1488507628.4382460117,        0.6103515625,        0.0043945312,       -0.1308593750,        0.2136230469,       -0.6103515625,       -0.3356933594
1488507628.4385280609,1488507628.4409449100,        0.6093750000,        0.0024414062,       -0.1425781250,        0.2136230469,       -0.6103515625,       -0.3356933594
1488507628.4412291050,1488507628.4436480999,        0.6093750000,        0.0024414062,       -0.1425781250,        0.2746582031,       -0.7324218750,       -0.7476806641
1488507628.4439311028,1488507628.4463510513,        0.6093750000,        0.0024414062,       -0.1425781250,        0.2746582031,       -0.7324218750,       -0.7476806641
1488507628.4466350079,1488507628.4490540028,        0.6093750000,        0.0034179688,       -0.1352539062,        0.5035400391,       -0.7629394531,       -0.7781982422
1488507628.4493360519,1488507628.4517610073,        0.6083984375,        0.0034179688,       -0.1352539062,        0.5035400391,       -0.7629394531,       -0.7781982422
1488507628.4520380497,1488507628.4545838833,        0.6083984375,        0.0034179688,       -0.1352539062,        0.2136230469,       -0.6866455078,       -0.5798339844
1488507628.4548630714,1488507628.4571530819,        0.6083984375,        0.0034179688,       -0.1352539062,        0.2136230469,       -0.6866455078,       -0.5798339844
1488507628.4574289322,1488507628.4599080086,        0.6152343750,        0.0068359375,       -0.1474609375,        0.0762939453,       -0.5035400391,       -0.5645751953
1488507628.4601860046,1488507628.4627099037,        0.6152343750,        0.0068359375,       -0.1474609375,        0.0762939453,       -0.5035400391,       -0.5645751953
1488507628.4629878998,1488507628.4652729034,        0.6152343750,        0.0068359375,       -0.1474609375,        0.4882812500,       -0.6256103516,       -0.6713867188
1488507628.4655499458,1488507628.4678399563,        0.6152343750,        0.0068359375,       -0.1474609375,        0.4882812500,       -0.6256103516,       -0.6713867188
1488507628.4681160450,1488507628.4704029560,        0.6152343750,       -0.0009765625,       -0.1333007812,        0.3967285156,       -0.6713867188,       -0.8239746094
1488507628.4706759453,1488507628.4729750156,        0.6152343750,       -0.0009765625,       -0.1333007812,        0.3967285156,       -0.6713867188,       -0.8239746094
1488507628.4733650684,1488507628.4756510258,        0.6152343750,       -0.0009765625,       -0.1333007812,       -0.1983642578,       -0.7781982422,       -0.8087158203
1488507628.4759249687,1488507628.4782149792,        0.6152343750,       -0.0009765625,       -0.1333007812,       -0.1983642578,       -0.7781982422,       -0.8087158203
1488507628.4784889221,1488507628.4807770252,        0.6157226562,        0.0024414062,       -0.1425781250,       -0.1983642578,       -0.3814697266,       -0.7171630859
1488507628.4810531139,1488507628.4833459854,        0.6157226562,        0.0024414062,       -0.1425781250,        0.1983642578,       -0.3814697266,       -0.7171630859
1488507628.4836208820,1488507628.4859120846,        0.6157226562,        0.0024414062,       -0.1425781250,        0.1983642578,       -0.3814697266,       -0.4730224609
1488507628.4861869812,1488507628.4884779453,        0.6157226562,        0.0024414062,       -0.1425781250,        0.3967285156,       -0.3967285156,       -0.4730224609
1488507628.4887540340,1488507628.4910440445,        0.6127929688,        0.0000000000,       -0.1293945312,        0.3967285156,       -0.3967285156,       -0.4730224609
1488507628.4913198948,1488507628.4936668873,        0.6127929688,        0.0000000000,       -0.1293945312,        0.0305175781,       -0.3356933594,       -0.5035400391
1488507628.4939429760,1488507628.4962389469,        0.6127929688,        0.0000000000,       -0.1293945312,        0.0305175781,       -0.3356933594,       -0.5035400391
1488507628.4965140820,1488507628.4988029003,        0.6127929688,        0.0000000000,       -0.1293945312,        0.2288818359,       -0.4272460938,       -0.7781982422
1488507628.4990758896,1488507628.5013699532,        0.6137695312,       -0.0004882812,       -0.1459960938,        0.2288818359,       -0.4272460938,       -0.7781982422
1488507628.5016460419,1488507628.5039930344,        0.6137695312,       -0.0004882812,       -0.1459960938,        0.0610351562,       -0.5950927734,       -0.5645751953
1488507628.5042669773,1488507628.5065639019,        0.6137695312,       -0.0004882812,       -0.1459960938,        0.0610351562,       -0.5950927734,       -0.5645751953
1488507628.5068380833,1488507628.5091300011,        0.6137695312,       -0.0004882812,       -0.1357421875,        0.1373291016,       -0.5340576172,       -0.6561279297
1488507628.5094048977,1488507628.5118510723,        0.6123046875,        0.0014648438,       -0.1357421875,        0.1373291016,       -0.5340576172,       -0.6561279297
1488507628.5121281147,1488507628.5144259930,        0.6123046875,        0.0014648438,       -0.1357421875,        0.5187988281,       -0.4119873047,       -0.5340576172
1488507628.5147008896,1488507628.5169949532,        0.6123046875,        0.0014648438,       -0.1357421875,        0.5187988281,       -0.4119873047,       -0.5340576172
1488507628.5172700882,1488507628.5195579529,        0.6123046875,        0.0014648438,       -0.1337890625,        0.2593994141,       -0.5798339844,       -0.3204345703
1488507628.5198359489,1488507628.5222420692,        0.6127929688,        0.0048828125,       -0.1337890625,        0.2593994141,       -0.5798339844,       -0.3204345703
1488507628.5225250721,1488507628.5249409676,        0.6127929688,        0.0048828125,       -0.1337890625,        0.1678466797,       -0.6561279297,       -0.4577636719
1488507628.5252230167,1488507628.5276420116,        0.6127929688,        0.0048828125,       -0.1337890625,        0.1678466797,       -0.6561279297,       -0.4577636719
1488507628.5279231071,1488507628.5303359032,        0.6098632812,        0.0053710938,       -0.1464843750,       -0.2288818359,       -0.6713867188,       -0.7476806641
1488507628.5306189060,1488507628.5330319405,        0.6098632812,        0.0053710938,       -0.1464843750,       -0.2288818359,       -0.6713867188,       -0.7476806641
1488507628.5333170891,1488507628.5357289314,        0.6098632812,        0.0053710938,       -0.1464843750,       -0.5035400391,       -0.2593994141,       -0.4730224609
1488507628.5361208916,1488507628.5385398865,        0.6098632812,        0.0053710938,       -0.1464843750,       -0.5035400391,       -0.2593994141,       -0.4730224609
1488507628.5388219357,1488507628.5412371159,        0.6147460938,        0.0029296875,       -0.1401367188,       -0.4882812500,       -0.1525878906,       -0.5493164062
1488507628.5415189266,1488507628.5439488888,        0.6147460938,        0.0029296875,       -0.1401367188,       -0.4882812500,       -0.1525878906,       -0.5493164062
1488507628.5442309380,1488507628.5466470718,        0.6147460938,        0.0029296875,       -0.1401367188,        0.0152587891,       -0.2136230469,       -0.7019042969
1488507628.5469319820,1488507628.5493500233,        0.6147460938,        0.0029296875,       -0.1401367188,        0.0152587891,       -0.2136230469,       -0.7019042969
1488507628.5496339798,1488507628.5520770550,        0.6083984375,       -0.0019531250,       -0.1381835938,        0.2441406250,       -0.1068115234,       -0.9460449219
1488507628.5523540974,1488507628.5546460152,        0.6083984375,       -0.0019531250,       -0.1381835938,        0.2441406250,       -0.1068115234,       -0.9460449219
1488507628.5549221039,1488507628.5572180748,        0.6083984375,       -0.0019531250,       -0.1381835938,        0.2441406250,       -0.3051757812,       -1.0070800781
1488507628.5574920177,1488507628.5597820282,        0.6083984375,       -0.0019531250,       -0.1357421875,        0.1525878906,       -0.3051757812,       -1.0070800781
1488507628.5600559711,1488507628.5624020100,        0.6083984375,        0.0004882812,       -0.1357421875,        0.1525878906,       -0.3051757812,       -0.7324218750
1488507628.5626840591,1488507628.5651059151,        0.6083984375,        0.0004882812,       -0.1357421875,        0.0000000000,       -0.2136230469,       -0.7324218750
1488507628.5653901100,1488507628.5678069592,        0.6083984375,        0.0004882812,       -0.1357421875,        0.0000000000,       -0.2136230469,       -0.9002685547
1488507628.5680890083,1488507628.5705039501,        0.6083984375,        0.0000000000,       -0.1372070312,       -0.2136230469,       -0.1678466797,       -0.9002685547
1488507628.5707850456,1488507628.5732181072,        0.6113281250,        0.0000000000,       -0.1372070312,       -0.2136230469,       -0.1678466797,       -1.2817382812
1488507628.5734999180,1488507628.5759189129,        0.6113281250,        0.0000000000,       -0.1372070312,       -0.0762939453,       -0.3967285156,       -1.2817382812
1488507628.5762009621,1488507628.5786709785,        0.6113281250,        0.0000000000,       -0.1372070312,       -0.0762939453,       -0.3967285156,       -1.1138916016
1488507628.5789549351,1488507628.5813589096,        0.6118164062,        0.0024414062,       -0.1445312500,       -0.0915527344,       -0.3967285156,       -1.1138916016
1488507628.5820419788,1488507628.5844581127,        0.6118164062,        0.0024414062,       -0.1445312500,       -0.0915527344,       -0.3051757812,       -1.0070800781
1488507628.5847420692,1488507628.5871629715,        0.6118164062,        0.0024414062,       -0.1445312500,       -0.1831054688,       -0.3051757812,       -1.0070800781
1488507628.5874459743,1488507628.5898630619,        0.6118164062,        0.0024414062,       -0.1445312500,        3.7231445312,       -0.0305175781,       -1.1749267578
1488507628.5901429653,1488507628.5925719738,        0.6118164062,        0.0029296875,       -0.1450195312,        0.0305175781,       -0.0305175781,       -1.1749267578
1488507628.5928530693,1488507628.5952670574,        0.6118164062,        0.0029296875,       -0.1450195312,        0.0305175781,       -0.2288818359,       -1.4190673828
1488507628.5955469608,1488507628.5979669094,        0.6118164062,        0.0029296875,       -0.1450195312,        0.1220703125,       -0.2288818359,       -1.4190673828
1488507628.5982489586,1488507628.6006669998,        0.6118164062,       -0.0004882812,       -0.1279296875,        0.1220703125,       -0.4730224609,       -1.4801025391
1488507628.6010560989,1488507628.6034259796,        0.6137695312,       -0.0004882812,       -0.1279296875,        0.2746582031,       -0.4730224609,       -1.4801025391
1488507628.6037011147,1488507628.6059930325,        0.6137695312,       -0.0004882812,       -0.1279296875,        0.2746582031,       -0.6103515625,       -1.4801025391
1488507628.6062669754,1488507628.6085619926,        0.6137695312,       -0.0004882812,       -0.1279296875,        0.3967285156,       -0.6103515625,       -1.4801025391
1488507628.6088359356,1488507628.6111268997,        0.6049804688,        0.0039062500,       -0.1391601562,        0.3967285156,       -0.6103515625,       -1.4190673828
1488507628.6113998890,1488507628.6136999130,        0.6049804688,        0.0039062500,       -0.1391601562,        0.6561279297,       -0.5950927734,       -1.4190673828
1488507628.6139750481,1488507628.6162679195,        0.6049804688,        0.0039062500,       -0.1391601562,        0.6561279297,       -0.5950927734,       -1.4190673828
1488507628.6165430546,1488507628.6188418865,        0.6049804688,        0.0039062500,       -0.1391601562,        0.2288818359,       -0.3051757812,       -1.5106201172
1488507628.6191160679,1488507628.6214110851,        0.6142578125,        0.0063476562,       -0.1391601562,        0.2288818359,       -0.3051757812,       -1.5106201172
1488507628.6217350960,1488507628.6240179539,        0.6142578125,        0.0063476562,       -0.1391601562,        0.3814697266,       -0.2899169922,       -1.4801025391
1488507628.6242940426,1488507628.6265780926,        0.6142578125,        0.0063476562,       -0.1391601562,        0.3814697266,       -0.2899169922,       -1.4801025391
1488507628.6268529892,1488507628.6291399002,        0.6142578125,        0.0063476562,       -0.1391601562,        0.5493164062,       -0.2746582031,       -1.6326904297
1488507628.6294169426,1488507628.6319069862,        0.6079101562,       -0.0014648438,       -0.1430664062,        0.5493164062,       -0.2746582031,       -1.6326904297
1488507628.6322031021,1488507628.6345009804,        0.6079101562,       -0.0014648438,       -0.1430664062,        0.6866455078,       -0.3509521484,       -1.7395019531
1488507628.6347780228,1488507628.6370658875,        0.6079101562,       -0.0014648438,       -0.1430664062,        0.6866455078,       -0.3509521484,       -1.7395019531
1488507628.6373400688,1488507628.6397290230,        0.6079101562,       -0.0014648438,       -0.1430664062,        0.8392333984,       -0.3967285156,       -2.1514892578
1488507628.6400051117,1488507628.6425249577,        0.6098632812,        0.0043945312,       -0.1425781250,        0.8392333984,       -0.3967285156,       -2.1514892578
1488507628.6428010464,1488507628.6450939178,        0.6098632812,        0.0043945312,       -0.1425781250,        0.6561279297,       -0.1373291016,       -2.3345947266
1488507628.6453709602,1488507628.6476600170,        0.6098632812,        0.0043945312,       -0.1425781250,        0.6561279297,       -0.1373291016,       -2.3345947266
1488507628.6479370594,1488507628.6502249241,        0.6098632812,        0.0043945312,       -0.1425781250,        0.7781982422,       -0.1220703125,       -2.4566650391
1488507628.6505019665,1488507628.6529719830,        0.6132812500,       -0.0009765625,       -0.1362304688,        0.7781982422,       -0.1220703125,       -2.4566650391
1488507628.6532480717,1488507628.6555409431,        0.6132812500,       -0.0009765625,       -0.1362304688,        1.4038085938,       -0.4730224609,       -2.6092529297
1488507628.6558160782,1488507628.6589899063,        0.6132812500,       -0.0009765625,       -0.1362304688,        1.4038085938,       -0.4730224609,       -2.6092529297
1488507628.6592669487,1488507628.6615529060,        0.6079101562,       -0.0019531250,       -0.1313476562,        1.6784667969,       -0.3967285156,       -2.8839111328
1488507628.6618289948,1488507628.6641259193,        0.6079101562,       -0.0019531250,       -0.1313476562,        1.6784667969,       -0.3967285156,       -2.8839111328
1488507628.6645140648,1488507628.6668000221,        0.6079101562,       -0.0019531250,       -0.1313476562,        1.6784667969,       -0.6256103516,       -3.2958984375
1488507628.6670739651,1488507628.6693708897,        0.6079101562,       -0.0019531250,       -0.1313476562,        1.6784667969,       -0.6256103516,       -3.2958984375
1488507628.6696450710,1488507628.6719880104,        0.6137695312,        0.0063476562,       -0.1420898438,        1.8615722656,       -0.6256103516,       -3.2958984375
1488507628.6722629070,1488507628.6745560169,        0.6137695312,        0.0063476562,       -0.1420898438,        1.8615722656,       -0.6256103516,       -3.2958984375
1488507628.6748299599,1488507628.6771230698,        0.6137695312,        0.0063476562,       -0.1420898438,        1.9836425781,       -0.6103515625,       -3.3416748047
1488507628.6773979664,1488507628.6796889305,        0.6137695312,        0.0063476562,       -0.1420898438,        1.9836425781,       -0.6103515625,       -3.3416748047
1488507628.6799640656,1488507628.6823089123,        0.6142578125,        0.0043945312,       -0.1435546875,        1.9836425781,       -0.4882812500,       -3.6010742188
1488507628.6825830936,1488507628.6848769188,        0.6142578125,        0.0043945312,       -0.1435546875,        2.2125244141,       -0.4882812500,       -3.6010742188
1488507628.6851511002,1488507628.6874411106,        0.6142578125,        0.0043945312,       -0.1435546875,        2.2125244141,       -0.4882812500,       -3.7384033203
1488507628.6877160072,1488507628.6900110245,        0.6142578125,        0.0043945312,       -0.1435546875,        2.4566650391,       -0.1678466797,       -3.7384033203
1488507628.6902859211,1488507628.6925790310,        0.6025390625,       -0.0019531250,       -0.1381835938,        2.4566650391,       -0.1678466797,       -4.4708251953
1488507628.6928548813,1488507628.6951448917,        0.6025390625,       -0.0019531250,       -0.1381835938,        2.5787353516,       -0.2593994141,       -4.4708251953
1488507628.6954200268,1488507628.6977059841,        0.6025390625,       -0.0019531250,       -0.1381835938,        2.5787353516,       -0.2593994141,       -4.4708251953
1488507628.6979808807,1488507628.7002720833,        0.6025390625,       -0.0019531250,       -0.1381835938,        2.6702880859,       -0.1831054688,       -4.8065185547
1488507628.7005469799,1488507628.7029910088,        0.5996093750,       -0.0073242188,       -0.1435546875,        2.6702880859,       -0.1831054688,       -4.8065185547
1488507628.7032659054,1488507628.7055549622,        0.5996093750,       -0.0073242188,       -0.1435546875,        3.0822753906,       -0.3204345703,       -5.2947998047
1488507628.7058300972,1488507628.7081220150,        0.5996093750,       -0.0073242188,       -0.1435546875,        3.0822753906,       -0.3204345703,       -5.2947998047
1488507628.7083959579,1488507628.7106940746,        0.5996093750,       -0.0073242188,       -0.1435546875,        3.4179687500,       -0.7171630859,       -6.1340332031
1488507628.7109680176,1488507628.7134420872,        0.6044921875,       -0.0224609375,       -0.1372070312,        3.4179687500,       -0.7171630859,       -6.1340332031
1488507628.7137260437,1488507628.7161440849,        0.6044921875,       -0.0224609375,       -0.1372070312,        3.7078857422,       -0.8697509766,       -6.6528320312
1488507628.7164258957,1488507628.7188529968,        0.6044921875,       -0.0224609375,       -0.1372070312,        3.7078857422,       -0.8697509766,       -6.6528320312
1488507628.7191359997,1488507628.7215499878,        0.6044921875,       -0.0224609375,       -0.1401367188,        4.3182373047,       -1.1901855469,       -7.4920654297
1488507628.7218320370,1488507628.7242538929,        0.6108398438,       -0.0122070312,       -0.1401367188,        4.3182373047,       -1.1901855469,       -7.4920654297
1488507628.7245340347,1488507628.7269589901,        0.6108398438,       -0.0122070312,       -0.1401367188,        4.5318603516,       -1.1291503906,       -7.4462890625
1488507628.7273459435,1488507628.7297649384,        0.6108398438,       -0.0122070312,       -0.1401367188,        4.5318603516,       -1.1291503906,       -7.4462890625
1488507628.7300460339,1488507628.7325170040,        0.6132812500,        0.0107421875,       -0.1357421875,        4.3487548828,       -1.1749267578,       -7.8582763672
1488507628.7327980995,1488507628.7352139950,        0.6132812500,        0.0107421875,       -0.1357421875,        4.3487548828,       -1.1749267578,       -7.8582763672
1488507628.7354929447,1488507628.7379078865,        0.6132812500,        0.0107421875,       -0.1357421875,        4.1046142578,       -1.4495849609,       -8.4686279297
1488507628.7381899357,1488507628.7406089306,        0.6132812500,        0.0107421875,       -0.1357421875,        4.1046142578,       -1.4495849609,       -8.4686279297
1488507628.7408900261,1488507628.7432351112,        0.6250000000,        0.0170898438,       -0.1206054688,        3.6468505859,       -1.3732910156,       -8.3465576172
1488507628.7435100079,1488507628.7458000183,        0.6250000000,        0.0170898438,       -0.1206054688,        3.6468505859,       -1.3732910156,       -8.3465576172
1488507628.7460749149,1488507628.7483730316,        0.6250000000,        0.0170898438,       -0.1206054688,        2.3651123047,       -1.0070800781,       -8.3618164062
1488507628.7486469746,1488507628.7509410381,        0.6250000000,        0.0170898438,       -0.1206054688,        2.3651123047,       -1.0070800781,       -8.3618164062
1488507628.7512168884,1488507628.7536470890,        0.6196289062,        0.0185546875,       -0.1298828125,        1.4038085938,       -0.9155273438,       -8.9263916016
1488507628.7539238930,1488507628.7562220097,        0.6196289062,        0.0185546875,       -0.1298828125,        1.4038085938,       -0.9155273438,       -8.9263916016
1488507628.7564959526,1488507628.7587900162,        0.6196289062,        0.0185546875,       -0.1298828125,        0.5950927734,       -0.9613037109,       -9.2620849609
1488507628.7590639591,1488507628.7613620758,        0.6196289062,        0.0185546875,       -0.1298828125,        0.5950927734,       -0.9613037109,       -9.2620849609
1488507628.7616379261,1488507628.7641189098,        0.6279296875,       -0.0043945312,       -0.1318359375,       -3.3111572266,       -0.8697509766,       -9.2926025391
1488507628.7644009590,1488507628.7668209076,        0.6279296875,       -0.0043945312,       -0.1318359375,       -0.0457763672,       -0.8697509766,       -9.2926025391
1488507628.7671029568,1488507628.7695930004,        0.6279296875,       -0.0043945312,       -0.1318359375,        3.8604736328,       -1.1444091797,      -10.1470947266
1488507628.7698829174,1488507628.7727019787,        0.6279296875,       -0.0229492188,       -0.1420898438,        0.4119873047,       -1.1444091797,      -10.1470947266
1488507628.7729930878,1488507628.7754230499,        0.6093750000,       -0.0229492188,       -0.1420898438,        0.7476806641,       -1.7089843750,      -10.8795166016
1488507628.7757101059,1488507628.7781269550,        0.6093750000,       -0.0229492188,       -0.1420898438,        0.7476806641,       -1.7089843750,      -10.8795166016
1488507628.7784140110,1488507628.7808370590,        0.6093750000,       -0.0229492188,       -0.1420898438,        1.6479492188,       -1.4495849609,      -11.7797851562
1488507628.7811229229,1488507628.7835490704,        0.6020507812,       -0.0190429688,       -0.1450195312,        1.6479492188,       -1.4495849609,      -11.7797851562
1488507628.7838339806,1488507628.7862520218,        0.6020507812,       -0.0190429688,       -0.1450195312,        2.1514892578,       -1.3275146484,      -12.3748779297
1488507628.7865378857,1488507628.7889580727,        0.6020507812,       -0.0190429688,       -0.1450195312,        2.1514892578,       -1.3275146484,      -12.3748779297
1488507628.7892410755,1488507628.7916529179,        0.6020507812,       -0.0190429688,       -0.1450195312,        1.8005371094,       -1.4038085938,      -13.0310058594
1488507628.7920858860,1488507628.7943799496,        0.6118164062,       -0.0161132812,       -0.1367187500,        1.8005371094,       -1.4038085938,      -13.0310058594
1488507628.7946569920,1488507628.7969579697,        0.6118164062,       -0.0161132812,       -0.1367187500,        1.6479492188,       -1.5411376953,      -13.3819580078
1488507628.7972381115,1488507628.7995278835,        0.6118164062,       -0.0161132812,       -0.1367187500,        1.6479492188,       -1.5411376953,      -13.3819580078
1488507628.7998061180,1488507628.8021349907,        0.6118164062,       -0.0161132812,       -0.1279296875,        1.6479492188,       -1.6021728516,      -14.6636962891
1488507628.8024160862,1488507628.8047111034,        0.6186523438,        0.0063476562,       -0.1279296875,        1.2817382812,       -1.6021728516,      -14.6636962891
1488507628.8049890995,1488507628.8072791100,        0.6186523438,        0.0063476562,       -0.1279296875,        1.2817382812,       -1.6021728516,      -15.4571533203
1488507628.8075580597,1488507628.8098480701,        0.6186523438,        0.0063476562,       -0.1279296875,        0.5950927734,       -1.4801025391,      -15.4571533203
1488507628.8101260662,1488507628.8124690056,        0.6186523438,        0.0063476562,       -0.1284179688,        0.5950927734,       -1.4801025391,      -15.8691406250
1488507628.8127479553,1488507628.8150379658,        0.6298828125,        0.0136718750,       -0.1284179688,       -0.0762939453,       -1.2054443359,      -15.8691406250
1488507628.8153159618,1488507628.8176200390,        0.6298828125,        0.0136718750,       -0.1284179688,       -0.0762939453,       -1.2054443359,      -15.8691406250
1488507628.8178980350,1488507628.8201899529,        0.6298828125,        0.0136718750,       -0.1284179688,       -0.7476806641,       -1.0070800781,      -16.1743164062
1488507628.8204689026,1488507628.8228840828,        0.6298828125,        0.0024414062,       -0.1157226562,       -0.7476806641,       -1.0070800781,      -16.1743164062
1488507628.8231658936,1488507628.8254640102,        0.6245117188,        0.0024414062,       -0.1157226562,       -1.0681152344,       -1.2207031250,      -16.6931152344
1488507628.8257429600,1488507628.8280360699,        0.6245117188,        0.0024414062,       -0.1157226562,       -1.0681152344,       -1.2207031250,      -16.6931152344
1488507628.8283169270,1488507628.8306159973,        0.6245117188,        0.0024414062,       -0.1157226562,       -1.4953613281,       -1.2817382812,      -17.7001953125
1488507628.8308959007,1488507628.8334269524,        0.6157226562,       -0.0009765625,       -0.1250000000,       -1.4953613281,       -1.2817382812,      -17.7001953125
1488507628.8337130547,1488507628.8361310959,        0.6157226562,       -0.0009765625,       -0.1250000000,       -1.4495849609,       -1.6021728516,      -18.5394287109
1488507628.8364160061,1488507628.8388381004,        0.6157226562,       -0.0009765625,       -0.1250000000,       -1.4495849609,       -1.6021728516,      -18.5394287109
1488507628.8391230106,1488507628.8415360451,        0.6157226562,       -0.0009765625,       -0.1250000000,       -0.5950927734,       -1.9989013672,      -19.6228027344
1488507628.8418300152,1488507628.8441278934,        0.5966796875,        0.0004882812,       -0.1328125000,       -0.5950927734,       -1.9989013672,      -19.6228027344
1488507628.8444070816,1488507628.8466930389,        0.5966796875,        0.0004882812,       -0.1328125000,        0.0457763672,       -3.3721923828,      -20.4467773438
1488507628.8469729424,1488507628.8492610455,        0.5966796875,        0.0004882812,       -0.1328125000,        0.0457763672,       -3.3721923828,      -20.4467773438
1488507628.8495399952,1488507628.8518950939,        0.5966796875,        0.0004882812,       -0.1328125000,        0.8087158203,       -4.2114257812,      -21.7895507812
1488507628.8521790504,1488507628.8545610905,        0.5874023438,       -0.0170898438,       -0.1289062500,        0.8087158203,       -4.2114257812,      -21.7895507812
1488507628.8549549580,1488507628.8573360443,        0.5874023438,       -0.0170898438,       -0.1289062500,        1.4343261719,       -4.6386718750,      -22.5067138672
1488507628.8576190472,1488507628.8600029945,        0.5874023438,       -0.0170898438,       -0.1289062500,        1.4343261719,       -4.6386718750,      -22.5067138672
1488507628.8602879047,1488507628.8627159595,        0.5874023438,       -0.0170898438,       -0.1372070312,        2.3803710938,       -5.2185058594,      -23.7731933594
1488507628.8629961014,1488507628.8652939796,        0.6010742188,       -0.0083007812,       -0.1372070312,        2.3803710938,       -5.2185058594,      -23.7731933594
1488507628.8655738831,1488507628.8678619862,        0.6010742188,       -0.0083007812,       -0.1372070312,        3.1127929688,       -5.6152343750,      -25.0549316406
1488507628.8681430817,1488507628.8704369068,        0.6010742188,       -0.0083007812,       -0.1372070312,        3.1127929688,       -5.6152343750,      -25.0549316406
1488507628.8707160950,1488507628.8731629848,        0.6010742188,        0.1166992188,       -0.1293945312,        3.4790039062,       -5.6304931641,      -26.0925292969
1488507628.8734500408,1488507628.8758618832,        0.6079101562,        0.0166015625,       -0.1293945312,        3.4790039062,       -5.6304931641,      -26.0925292969
1488507628.8761460781,1488507628.8785650730,        0.6079101562,        0.0166015625,       -0.1293945312,        3.0670166016,       -5.9051513672,      -27.0996093750
1488507628.8788509369,1488507628.8812680244,        0.6079101562,        0.0166015625,       -0.1293945312,        3.0670166016,       -5.9051513672,      -27.0996093750
1488507628.8815538883,1488507628.8840529919,        0.6054687500,        0.0297851562,       -0.1293945312,        2.7160644531,       -6.1340332031,      -28.1982421875
1488507628.8843359947,1488507628.8867259026,        0.6054687500,        0.0297851562,       -0.1293945312,        2.7160644531,       -6.1340332031,      -28.1982421875
1488507628.8870089054,1488507628.8897299767,        0.6054687500,        0.0297851562,       -0.1293945312,        1.7852783203,       -5.9051513672,      -29.3884277344
1488507628.8900179863,1488507628.8925440311,        0.6054687500,        0.0297851562,       -0.1293945312,        1.7852783203,       -5.9051513672,      -29.3884277344
1488507628.8928248882,1488507628.8951270580,        0.6015625000,        0.0024414062,       -0.1250000000,        1.5716552734,       -6.3018798828,      -31.0668945312
1488507628.8954050541,1488507628.8976941109,        0.6015625000,        0.0024414062,       -0.1250000000,        1.5716552734,       -6.3018798828,      -31.0668945312
1488507628.8979709148,1488507628.9002659321,        0.6015625000,        0.0024414062,       -0.1250000000,        1.6937255859,       -6.0424804688,      -32.5469970703
1488507628.9005448818,1488507628.9029450417,        0.6015625000,        0.0024414062,       -0.1250000000,        1.6937255859,       -6.0424804688,      -32.5469970703
1488507628.9032309055,1488507628.9056470394,        0.6064453125,       -0.0014648438,       -0.1210937500,        1.6937255859,       -5.7525634766,      -34.1796875000
1488507628.9059340954,1488507628.9083569050,        0.6064453125,       -0.0014648438,       -0.1210937500,        3.0059814453,       -5.7525634766,      -34.1796875000
1488507628.9086449146,1488507628.9110660553,        0.6064453125,       -0.0014648438,       -0.1210937500,        6.9122314453,       -6.1187744141,      -35.4309082031
1488507628.9113519192,1488507628.9137849808,        0.6064453125,        0.0234375000,       -0.1313476562,        4.1656494141,       -6.1187744141,      -35.4309082031
1488507628.9140689373,1488507628.9164869785,        0.5834960938,        0.0234375000,       -0.1313476562,        4.1656494141,       -6.6223144531,      -36.5447998047
1488507628.9167740345,1488507628.9191930294,        0.5834960938,        0.0234375000,       -0.1313476562,        5.3558349609,       -6.6223144531,      -36.5447998047
1488507628.9195899963,1488507628.9220089912,        0.5834960938,        0.0234375000,       -0.1313476562,        5.3558349609,       -7.3394775391,      -37.3382568359
1488507628.9222869873,1488507628.9245800972,        0.5810546875,        0.0566406250,       -0.1459960938,        6.4239501953,       -7.3394775391,      -37.3382568359
1488507628.9248590469,1488507628.9271540642,        0.5810546875,        0.0566406250,       -0.1459960938,        6.4239501953,       -7.7209472656,      -37.9943847656
1488507628.9274311066,1488507628.9297289848,        0.5810546875,        0.0566406250,       -0.1459960938,        6.8817138672,       -7.7209472656,      -37.9943847656
1488507628.9300060272,1488507628.9323210716,        0.5810546875,        0.0566406250,       -0.1459960938,        6.8817138672,       -7.7209472656,      -38.8031005859
1488507628.9326000214,1488507628.9348990917,        0.5825195312,        0.0546875000,       -0.1318359375,        6.1340332031,       -7.9345703125,      -38.8031005859
1488507628.9351780415,1488507628.9374721050,        0.5825195312,        0.0546875000,       -0.1318359375,        6.1340332031,       -7.9345703125,      -42.7093505859
1488507628.9377510548,1488507628.9400401115,        0.5825195312,        0.0546875000,       -0.1318359375,        5.4931640625,       -8.9416503906,      -39.9017333984
1488507628.9403190613,1488507628.9427840710,        0.5825195312,        0.0546875000,       -0.1318359375,        5.4931640625,       -8.9416503906,      -39.9017333984
1488507628.9430649281,1488507628.9453539848,        0.5976562500,        0.0307617188,       -0.1191406250,        5.5541992188,       -9.6740722656,      -40.2832031250
1488507628.9456329346,1488507628.9479229450,        0.5976562500,        0.0307617188,       -0.1191406250,        5.5541992188,       -9.6740722656,      -40.2832031250
1488507628.9481990337,1488507628.9505000114,        0.5976562500,        0.0307617188,       -0.1191406250,        5.8135986328,      -10.3759765625,      -40.3594970703
1488507628.9507811069,1488507628.9532449245,        0.5976562500,        0.0307617188,       -0.1191406250,        5.8135986328,      -10.3759765625,      -40.3594970703
1488507628.9535319805,1488507628.9559381008,        0.6108398438,        0.0009765625,       -0.1064453125,        6.9732666016,      -11.0778808594,      -40.9851074219
1488507628.9562261105,1488507628.9586319923,        0.6108398438,        0.0009765625,       -0.1064453125,        6.9732666016,      -11.0778808594,      -40.9851074219
1488507628.9589219093,1488507628.9613230228,        0.6108398438,        0.0009765625,       -0.1064453125,       10.0250244141,      -11.8408203125,      -41.2902832031
1488507628.9616160393,1488507628.9640250206,        0.6108398438,        0.0009765625,       -0.1425781250,       10.0250244141,      -11.8408203125,      -41.2902832031
1488507628.9643158913,1488507628.9667139053,        0.6064453125,        0.0371093750,       -0.1425781250,       13.5345458984,      -12.7258300781,      -41.4123535156
1488507628.9670040607,1488507628.9694030285,        0.6064453125,        0.0371093750,       -0.1425781250,       13.5345458984,      -12.7258300781,      -41.4123535156
1488507628.9696929455,1488507628.9721090794,        0.6064453125,        0.0371093750,       -0.1425781250,       16.6320800781,      -12.8173828125,      -41.9311523438
1488507628.9723999500,1488507628.9747970104,        0.6123046875,        0.1093750000,       -0.1337890625,       16.6320800781,      -12.8173828125,      -41.9311523438
1488507628.9750890732,1488507628.9774940014,        0.6123046875,        0.1093750000,       -0.1337890625,       18.4783935547,      -13.3361816406,      -41.7175292969
1488507628.9777839184,1488507628.9801928997,        0.6123046875,        0.1093750000,       -0.1337890625,       18.4783935547,      -13.3361816406,      -41.7175292969
1488507628.9804830551,1488507628.9828801155,        0.6123046875,        0.1093750000,       -0.1337890625,       19.1040039062,      -13.7634277344,      -41.6107177734
1488507628.9832780361,1488507628.9856619835,        0.6132812500,        0.0971679688,       -0.1455078125,       19.1040039062,      -13.7634277344,      -41.6107177734
1488507628.9859530926,1488507628.9883739948,        0.6132812500,        0.0971679688,       -0.1455078125,       19.4244384766,      -14.4805908203,      -40.8630371094
1488507628.9886651039,1488507628.9910829067,        0.6132812500,        0.0971679688,       -0.1455078125,       19.4244384766,      -14.4805908203,      -40.8630371094
1488507628.9913740158,1488507628.9937009811,        0.6132812500,        0.0971679688,       -0.1455078125,       19.7448730469,      -15.3656005859,      -39.5355224609
1488507628.9939849377,1488507628.9962749481,        0.6083984375,        0.1147460938,       -0.1630859375,       19.7448730469,      -15.3656005859,      -39.5355224609
1488507628.9965569973,1488507628.9988489151,        0.6083984375,        0.1147460938,       -0.1630859375,       19.7906494141,      -15.6402587891,      -38.4216308594
1488507628.9991331100,1488507629.0014319420,        0.6083984375,        0.1147460938,       -0.1630859375,       19.7906494141,      -15.6402587891,      -38.4216308594
1488507629.0017189980,1488507629.0040090084,        0.6083984375,        0.1147460938,       -0.1416015625,       20.1721191406,      -15.6402587891,      -37.4298095703
1488507629.0042939186,1488507629.0065848827,        0.6162109375,        0.1416015625,       -0.1416015625,       20.1721191406,      -15.6402587891,      -37.4298095703
1488507629.0068700314,1488507629.0092990398,        0.6162109375,        0.1416015625,       -0.1416015625,       20.0195312500,      -15.9149169922,      -36.6821289062
1488507629.0095860958,1488507629.0123260021,        0.6162109375,        0.1416015625,       -0.1416015625,       20.0195312500,      -15.9149169922,      -36.6821289062
1488507629.0126180649,1488507629.0150458813,        0.6083984375,        0.1621093750,       -0.1674804688,       19.6990966797,      -15.9454345703,      -36.6058349609
1488507629.0153379440,1488507629.0177550316,        0.6083984375,        0.1621093750,       -0.1674804688,       19.6990966797,      -15.9454345703,      -36.6058349609
1488507629.0180459023,1488507629.0204639435,        0.6083984375,        0.1621093750,       -0.1674804688,       19.3939208984,      -16.4642333984,      -36.7431640625
1488507629.0207540989,1488507629.0231831074,        0.6083984375,        0.1621093750,       -0.1674804688,       19.3939208984,      -16.4642333984,      -36.7431640625
1488507629.0234749317,1488507629.0258920193,        0.6118164062,        0.1669921875,       -0.1831054688,       16.6473388672,      -16.7694091797,      -36.9720458984
1488507629.0261828899,1488507629.0286080837,        0.6118164062,        0.1669921875,       -0.1831054688,       16.6473388672,      -16.7694091797,      -36.9720458984
1488507629.0288980007,1488507629.0313160419,        0.6118164062,        0.1669921875,       -0.1831054688,       12.6342773438,      -16.4337158203,      -37.0941162109
1488507629.0316090584,1488507629.0340259075,        0.6118164062,        0.1669921875,       -0.1831054688,       12.6342773438,      -16.4337158203,      -37.0941162109
1488507629.0343179703,1488507629.0367429256,        0.6337890625,        0.1367187500,       -0.1611328125,        7.8582763672,      -16.2963867188,      -37.3229980469
1488507629.0370330811,1488507629.0394470692,        0.6337890625,        0.1367187500,       -0.1611328125,        7.8582763672,      -16.2963867188,      -37.3229980469
1488507629.0397350788,1488507629.0421469212,        0.6337890625,        0.1367187500,       -0.1611328125,        4.0435791016,      -16.2658691406,      -38.4521484375
1488507629.0424289703,1488507629.0447199345,        0.6337890625,        0.0117187500,       -0.1240234375,        4.0435791016,      -16.2658691406,      -38.4521484375
1488507629.0450010300,1488507629.0472979546,        0.6391601562,        0.0781250000,       -0.1240234375,        1.9531250000,      -15.7470703125,      -40.3900146484
1488507629.0476889610,1488507629.0499849319,        0.6391601562,        0.0781250000,       -0.1240234375,        1.9531250000,      -15.7470703125,      -40.3900146484
1488507629.0502660275,1488507629.0525679588,        0.6391601562,        0.0781250000,       -0.1240234375,        1.9531250000,      -13.9923095703,      -42.2668457031
1488507629.0528490543,1488507629.0551431179,        0.5141601562,       -0.0410156250,       -0.0996093750,        3.0059814453,      -13.9923095703,      -42.2668457031
1488507629.0554230213,1488507629.0577239990,        0.6152343750,       -0.0410156250,       -0.0996093750,        3.0059814453,      -13.9923095703,      -44.1741943359
1488507629.0580050945,1488507629.0602979660,        0.6152343750,       -0.0410156250,       -0.0996093750,        7.6751708984,      -12.1154785156,      -44.1741943359
1488507629.0605800152,1488507629.0630218983,        0.6152343750,       -0.0410156250,       -0.0996093750,        7.6751708984,      -12.1154785156,      -46.2493896484
1488507629.0633029938,1488507629.0655920506,        0.4912109375,       -0.0117187500,       -0.2104492188,       15.8081054688,      -12.7868652344,      -46.2493896484
1488507629.0658760071,1488507629.0681610107,        0.4912109375,       -0.0117187500,       -0.2104492188,       15.8081054688,      -12.7868652344,      -50.1556396484
1488507629.0684471130,1488507629.0707449913,        0.4912109375,       -0.0117187500,       -0.2104492188,       23.8342285156,      -15.4876708984,      -47.7905273438
1488507629.0710299015,1488507629.0734241009,        0.4912109375,       -0.0117187500,       -0.2104492188,       23.8342285156,      -15.4876708984,      -47.7905273438
1488507629.0737121105,1488507629.0759990215,        0.5253906250,        0.1713867188,       -0.2714843750,       28.8391113281,      -16.1743164062,      -48.0651855469
1488507629.0762829781,1488507629.0785748959,        0.5253906250,        0.1713867188,       -0.2714843750,       28.8391113281,      -16.1743164062,      -48.0651855469
1488507629.0788578987,1488507629.0811491013,        0.5253906250,        0.1713867188,       -0.2714843750,       27.5726318359,      -15.6250000000,      -47.1343994141
1488507629.0814309120,1488507629.0837349892,        0.5253906250,        0.1713867188,       -0.2714843750,       27.5726318359,      -15.6250000000,      -47.1343994141
1488507629.0840179920,1488507629.0863099098,        0.5625000000,        0.2504882812,       -0.2192382812,       21.5606689453,      -15.2740478516,      -46.1120605469
1488507629.0865941048,1488507629.0888829231,        0.5625000000,        0.2504882812,       -0.2192382812,       21.5606689453,      -15.2740478516,      -46.1120605469
1488507629.0891671181,1488507629.0914580822,        0.5625000000,        0.2504882812,       -0.2192382812,       14.3585205078,      -15.1519775391,      -44.8455810547
1488507629.0917301178,1488507629.0940198898,        0.5625000000,        0.2504882812,       -0.2192382812,       14.3585205078,      -15.1519775391,      -44.8455810547
1488507629.0943050385,1488507629.0965950489,        0.5688476562,        0.3041992188,       -0.2041015625,        8.1939697266,      -16.1285400391,      -42.9687500000
1488507629.0968749523,1488507629.0991690159,        0.5688476562,        0.3041992188,       -0.2041015625,        8.1939697266,      -16.1285400391,      -42.9687500000
1488507629.0994510651,1488507629.1017570496,        0.5688476562,        0.3041992188,       -0.2041015625,        0.5798339844,      -16.1285400391,      -42.2973632812
1488507629.1020410061,1488507629.1043350697,        0.5688476562,        0.3041992188,       -0.2041015625,        0.5798339844,      -16.1285400391,      -42.2973632812
1488507629.1046171188,1488507629.1069059372,        0.6357421875,        0.2470703125,       -0.1523437500,       -7.2326660156,      -15.1672363281,      -42.1905517578
1488507629.1071870327,1488507629.1094739437,        0.6357421875,        0.2470703125,       -0.1523437500,       -6.4544677734,      -15.1672363281,      -42.1905517578
1488507629.1098530293,1488507629.1122798920,        0.6357421875,        0.2470703125,       -0.1523437500,       -6.4544677734,      -15.1672363281,      -43.2128906250
1488507629.1125628948,1488507629.1148579121,        0.6357421875,        0.2470703125,       -0.1523437500,      -10.2386474609,      -14.3127441406,      -43.2128906250
1488507629.1151421070,1488507629.1174349785,        0.6166992188,        0.0917968750,       -0.1547851562,      -10.2386474609,      -14.3127441406,      -45.6085205078
1488507629.1177198887,1488507629.1200110912,        0.6166992188,        0.0917968750,       -0.1547851562,      -10.5743408203,      -14.4348144531,      -45.6085205078
1488507629.1202960014,1488507629.1225869656,        0.6166992188,        0.0917968750,       -0.1547851562,      -10.5743408203,      -14.4348144531,      -49.5147705078
1488507629.1228749752,1488507629.1251680851,        0.6166992188,        0.0917968750,       -0.1674804688,       -8.8348388672,      -15.6860351562,      -48.1719970703
1488507629.1254529953,1488507629.1277539730,        0.6225585938,        0.0454101562,       -0.1674804688,       -8.8348388672,      -15.6860351562,      -48.1719970703
1488507629.1280539036,1488507629.1303520203,        0.6225585938,        0.0454101562,       -0.1674804688,       -6.6223144531,      -16.4184570312,      -51.4526367188
1488507629.1306369305,1488507629.1332769394,        0.6225585938,        0.0454101562,       -0.1674804688,       -6.6223144531,      -16.4184570312,      -51.4526367188
1488507629.1335608959,1488507629.1358540058,        0.6225585938,        0.0117187500,       -0.1323242188,       -4.1503906250,      -15.5487060547,      -54.2297363281
1488507629.1361360550,1488507629.1384289265,        0.6362304688,        0.0117187500,       -0.1323242188,       -4.1503906250,      -15.5487060547,      -54.2297363281
1488507629.1387109756,1488507629.1409990788,        0.6362304688,        0.0117187500,       -0.1323242188,       -1.0070800781,      -14.5874023438,      -57.2967529297
1488507629.1412799358,1488507629.1436259747,        0.6362304688,        0.0117187500,       -0.1323242188,       -1.0070800781,      -14.5874023438,      -57.2967529297
1488507629.1439070702,1488507629.1461989880,        0.5737304688,       -0.0039062500,       -0.1782226562,        2.7465820312,      -15.0451660156,      -60.4095458984
1488507629.1464810371,1488507629.1487700939,        0.5737304688,       -0.0039062500,       -0.1782226562,        2.7465820312,      -15.0451660156,      -60.4095458984
1488507629.1490540504,1488507629.1514229774,        0.5737304688,       -0.0039062500,       -0.1782226562,        7.3089599609,      -15.0756835938,      -63.3392333984
1488507629.1517319679,1488507629.1557130814,        0.5737304688,        0.1210937500,       -0.1972656250,        7.3089599609,      -15.0756835938,      -65.8721923828
1488507629.1560020447,1488507629.1582870483,        0.4975585938,        0.0039062500,       -0.1972656250,       13.0310058594,      -14.8315429688,      -65.8721923828
1488507629.1585741043,1488507629.1608610153,        0.4975585938,        0.0039062500,       -0.1972656250,       13.0310058594,      -14.8315429688,      -68.8171386719
1488507629.1611480713,1488507629.1634550095,        0.4975585938,        0.0039062500,       -0.1972656250,       18.1884765625,      -15.2893066406,      -68.8171386719
1488507629.1637411118,1488507629.1660249233,        0.4975585938,        0.0625000000,       -0.2426757812,       18.1884765625,      -15.2893066406,      -72.7233886719
1488507629.1663091183,1488507629.1685969830,        0.4560546875,        0.0625000000,       -0.2426757812,       22.6593017578,      -16.9219970703,      -70.9838867188
1488507629.1688830853,1488507629.1711730957,        0.4560546875,        0.0625000000,       -0.2426757812,       22.6593017578,      -16.9219970703,      -70.9838867188
1488507629.1714580059,1488507629.1738300323,        0.4560546875,        0.0625000000,       -0.2426757812,       26.3977050781,      -17.8985595703,      -72.8454589844
1488507629.1741139889,1488507629.1763989925,        0.5810546875,        0.1972656250,       -0.2412109375,       26.3977050781,      -17.8985595703,      -72.8454589844
1488507629.1767909527,1488507629.1790840626,        0.5000000000,        0.1972656250,       -0.2412109375,       26.4587402344,      -17.5323486328,      -73.5168457031
1488507629.1793680191,1488507629.1817030907,        0.5000000000,        0.1972656250,       -0.2412109375,       26.4587402344,      -17.5323486328,      -73.5168457031
1488507629.1819899082,1488507629.1842761040,        0.5000000000,        0.1972656250,       -0.2412109375,       22.9644775391,      -18.4631347656,      -72.9370117188
1488507629.1845600605,1488507629.1868479252,        0.5834960938,        0.2651367188,       -0.2133789062,       22.9644775391,      -18.4631347656,      -72.9370117188
1488507629.1871318817,1488507629.1894218922,        0.5834960938,        0.2651367188,       -0.2133789062,       16.9830322266,      -18.9819335938,      -72.9827880859
1488507629.1897060871,1488507629.1919980049,        0.5834960938,        0.2651367188,       -0.2133789062,       16.9830322266,      -18.9819335938,      -72.9827880859
1488507629.1922829151,1488507629.1945691109,        0.5834960938,        0.2651367188,       -0.2133789062,       10.4675292969,      -18.7683105469,      -73.9746093750
1488507629.1948540211,1488507629.1971480846,        0.6210937500,        0.2343750000,       -0.1635742188,       10.4675292969,      -18.7683105469,      -73.9746093750
1488507629.1974329948,1488507629.1997210979,        0.6210937500,        0.2343750000,       -0.1635742188,        5.8135986328,      -19.1040039062,      -75.5157470703
1488507629.2000019550,1488507629.2024281025,        0.6210937500,        0.2343750000,       -0.1635742188,        5.8135986328,      -19.1040039062,      -75.5157470703
1488507629.2027111053,1488507629.2050058842,        0.6210937500,        0.2343750000,       -0.1635742188,        1.9073486328,      -19.6533203125,      -77.4993896484
1488507629.2052879333,1488507629.2075760365,        0.6049804688,        0.0649414062,       -0.1333007812,        2.6245117188,      -19.6533203125,      -77.4993896484
1488507629.2078590393,1488507629.2101459503,        0.6049804688,        0.0649414062,       -0.1333007812,        2.6245117188,      -19.6533203125,      -78.6590576172
1488507629.2104289532,1488507629.2133309841,        0.6049804688,        0.0649414062,       -0.1333007812,        1.6937255859,      -19.9432373047,      -78.6590576172
1488507629.2136330605,1488507629.2168600559,        0.6049804688,        0.0649414062,       -0.2001953125,        4.3792724609,      -20.6451416016,      -80.0018310547
1488507629.2171599865,1488507629.2205960751,        0.5332031250,        0.0820312500,       -0.2001953125,        4.3792724609,      -20.6451416016,      -80.0018310547
1488507629.2209000587,1488507629.2235150337,        0.5332031250,        0.0820312500,       -0.2001953125,        9.6282958984,      -22.2015380859,      -81.1614990234
1488507629.2238149643,1488507629.2262349129,        0.5332031250,        0.0820312500,       -0.2006835938,        9.6282958984,      -22.2015380859,      -81.9702148438
1488507629.2265269756,1488507629.2289419174,        0.5058593750,        0.2280273438,       -0.2006835938,       15.0756835938,      -23.8037109375,      -81.9702148438
1488507629.2292358875,1488507629.2316501141,        0.5058593750,        0.2280273438,       -0.2006835938,       15.0756835938,      -23.8037109375,      -81.4514160156
1488507629.2319839001,1488507629.2343969345,        0.5058593750,        0.2280273438,       -0.2006835938,       17.6696777344,      -24.0325927734,      -81.4514160156
1488507629.2346909046,1488507629.2370998859,        0.5058593750,        0.3129882812,       -0.1943359375,       17.6696777344,      -24.0325927734,      -80.2154541016
1488507629.2373909950,1488507629.2398099899,        0.5043945312,        0.3129882812,       -0.1943359375,       16.1437988281,      -23.5137939453,      -80.2154541016
1488507629.2401010990,1488507629.2425310612,        0.5043945312,        0.3129882812,       -0.1943359375,       16.1437988281,      -23.5137939453,      -79.2236328125
1488507629.2429399490,1488507629.2453560829,        0.5043945312,        0.3129882812,       -0.1943359375,       13.5345458984,      -24.2919921875,      -79.2236328125
1488507629.2456459999,1488507629.2480630875,        0.5244140625,        0.3232421875,       -0.1752929688,       13.5345458984,      -24.2919921875,      -79.4525146484
1488507629.2483549118,1488507629.2507688999,        0.5244140625,        0.3232421875,       -0.1752929688,       11.5356445312,      -25.4974365234,      -79.4525146484
1488507629.2510609627,1488507629.2535231113,        0.5244140625,        0.3232421875,       -0.1752929688,       11.5356445312,      -25.4974365234,      -79.5898437500
1488507629.2538139820,1488507629.2562310696,        0.5244140625,        0.3232421875,       -0.1752929688,        9.7503662109,      -27.5421142578,      -79.5898437500
1488507629.2565209866,1488507629.2589368820,        0.5644531250,        0.2539062500,       -0.2016601562,        9.7503662109,      -27.5421142578,      -77.9571533203
1488507629.2592270374,1488507629.2616460323,        0.5644531250,        0.2539062500,       -0.2016601562,        6.9122314453,      -27.0690917969,      -77.9571533203
1488507629.2619810104,1488507629.2644031048,        0.5644531250,        0.2539062500,       -0.2016601562,        6.9122314453,      -27.0690917969,      -77.0568847656
1488507629.2646911144,1488507629.2672240734,        0.5644531250,        0.2885742188,       -0.1889648438,        3.6010742188,      -25.8941650391,      -77.0568847656
1488507629.2677218914,1488507629.2701129913,        0.6250000000,        0.2885742188,       -0.1889648438,        3.6010742188,      -25.4669189453,      -77.2857666016
1488507629.2704010010,1488507629.2732839584,        0.6250000000,        0.2885742188,       -0.1889648438,        1.6479492188,      -25.4669189453,      -77.2857666016
1488507629.2735741138,1488507629.2759919167,        0.6250000000,        0.2885742188,       -0.1889648438,        2.1057128906,      -26.7944335938,      -78.1555175781
1488507629.2762811184,1488507629.2787020206,        0.5468750000,        0.2661132812,       -0.1865234375,        2.1057128906,      -26.7944335938,      -78.1555175781
1488507629.2789940834,1488507629.2814149857,        0.5468750000,        0.2661132812,       -0.1865234375,        1.8005371094,      -26.5960693359,      -77.7587890625
1488507629.2817139626,1488507629.2841329575,        0.5468750000,        0.2661132812,       -0.1865234375,        1.8005371094,      -26.5960693359,      -77.7587890625
1488507629.2844219208,1488507629.2868421078,        0.5468750000,        0.2661132812,       -0.2719726562,        1.9683837891,      -23.8494873047,      -75.6835937500
1488507629.2871310711,1488507629.2895479202,        0.5346679688,        0.2558593750,       -0.2719726562,        1.9683837891,      -23.8494873047,      -75.6835937500
1488507629.2898359299,1488507629.2922980785,        0.5346679688,        0.2558593750,       -0.2719726562,        4.5776367188,      -22.6287841797,      -74.4018554688
1488507629.2925879955,1488507629.2950029373,        0.5346679688,        0.2558593750,       -0.2719726562,        4.5776367188,      -22.6287841797,      -74.4018554688
1488507629.2952919006,1488507629.2977080345,        0.5346679688,        0.3642578125,       -0.2656250000,        7.1411132812,      -23.3459472656,      -72.9064941406
1488507629.2979960442,1488507629.3004100323,        0.5112304688,        0.3642578125,       -0.2656250000,        7.1411132812,      -23.3459472656,      -72.9064941406
1488507629.3006989956,1488507629.3030560017,        0.5112304688,        0.3642578125,       -0.2656250000,        8.5906982422,      -24.1088867188,      -70.6329345703
1488507629.3033390045,1488507629.3056340218,        0.5112304688,        0.3642578125,       -0.2656250000,        8.5906982422,      -24.1088867188,      -70.6329345703
1488507629.3059160709,1488507629.3082060814,        0.4228515625,        0.4482421875,       -0.2563476562,        8.5906982422,      -23.9410400391,      -67.9473876953
1488507629.3085980415,1488507629.3108921051,        0.4228515625,        0.4482421875,       -0.2563476562,        7.8582763672,      -23.9410400391,      -67.9473876953
1488507629.3111751080,1488507629.3134639263,        0.4228515625,        0.4482421875,       -0.2563476562,        7.8582763672,      -23.9410400391,      -65.0939941406
1488507629.3137450218,1488507629.3160390854,        0.4228515625,        0.4482421875,       -0.2563476562,        6.3171386719,      -23.7884521484,      -65.0939941406
1488507629.3163199425,1488507629.3186130524,        0.3813476562,        0.5019531250,       -0.2534179688,        6.3171386719,      -23.7884521484,      -61.4013671875
1488507629.3188939095,1488507629.3211839199,        0.3813476562,        0.5019531250,       -0.2534179688,        4.9285888672,      -23.8494873047,      -61.4013671875
1488507629.3214650154,1488507629.3239290714,        0.3813476562,        0.5019531250,       -0.2534179688,        4.9285888672,      -23.8494873047,      -57.4951171875
1488507629.3242120743,1488507629.3265020847,        0.3813476562,        0.5019531250,       -0.2534179688,        4.0588378906,      -23.6358642578,      -57.9833984375
1488507629.3267819881,1488507629.3290770054,        0.4252929688,        0.4970703125,       -0.2539062500,        4.0588378906,      -23.6358642578,      -57.9833984375
1488507629.3293569088,1488507629.3316500187,        0.4252929688,        0.4970703125,       -0.2539062500,        2.9144287109,      -22.5219726562,      -54.8248291016
1488507629.3320960999,1488507629.3345110416,        0.4252929688,        0.4970703125,       -0.2539062500,        2.9144287109,      -22.5219726562,      -54.8248291016
1488507629.3348000050,1488507629.3372230530,        0.4252929688,        0.4970703125,       -0.1289062500,        2.0141601562,      -21.9421386719,      -52.4902343750
1488507629.3375110626,1488507629.3399319649,        0.4804687500,        0.4516601562,       -0.2353515625,        2.0141601562,      -21.9421386719,      -52.4902343750
1488507629.3402209282,1488507629.3425929546,        0.4804687500,        0.4516601562,       -0.2353515625,        1.1291503906,      -20.8892822266,      -49.9725341797
1488507629.3428740501,1488507629.3451728821,        0.4804687500,        0.4516601562,       -0.2353515625,        1.1291503906,      -20.8892822266,      -49.9725341797
1488507629.3454539776,1488507629.3477389812,        0.4804687500,        0.4423828125,       -0.2773437500,        0.8239746094,      -19.2565917969,      -46.5850830078
1488507629.3480210304,1488507629.3503139019,        0.5400390625,        0.4423828125,       -0.2773437500,        0.8239746094,      -19.2565917969,      -46.5850830078
1488507629.3505940437,1488507629.3529579639,        0.5400390625,        0.4423828125,       -0.2773437500,        1.6632080078,      -17.8833007812,      -42.8009033203
1488507629.3532459736,1488507629.3556671143,        0.5400390625,        0.4423828125,       -0.2773437500,        1.6632080078,      -17.8833007812,      -42.8009033203
1488507629.3559570312,1488507629.3583769798,        0.5390625000,        0.4672851562,       -0.2988281250,        2.1057128906,      -17.7612304688,      -38.6047363281
1488507629.3586659431,1488507629.3610889912,        0.5390625000,        0.4672851562,       -0.2988281250,        2.1057128906,      -17.7612304688,      -38.6047363281
1488507629.3613770008,1488507629.3638000488,        0.5390625000,        0.4672851562,       -0.2988281250,        0.9918212891,      -17.1508789062,      -34.2102050781
1488507629.3640890121,1488507629.3665070534,        0.5390625000,        0.4672851562,       -0.2988281250,        0.9918212891,      -17.1508789062,      -34.2102050781
1488507629.3667960167,1488507629.3692131042,        0.4560546875,        0.5205078125,       -0.2856445312,       -0.9613037109,      -15.1824951172,      -29.9072265625
1488507629.3695020676,1488507629.3719320297,        0.4560546875,        0.5205078125,       -0.2856445312,       -0.9613037109,      -15.1824951172,      -29.9072265625
1488507629.3723309040,1488507629.3747539520,        0.4560546875,        0.5205078125,       -0.2856445312,       -2.9907226562,      -15.0909423828,      -25.3143310547
1488507629.3750429153,1488507629.3774569035,        0.4560546875,        0.5205078125,       -0.2856445312,       -2.9907226562,      -15.0909423828,      -25.3143310547
1488507629.3777461052,1488507629.3801629543,        0.4287109375,        0.5688476562,       -0.2670898438,       -4.6844482422,      -14.2974853516,      -20.9045410156
1488507629.3804509640,1488507629.3829140663,        0.4287109375,        0.5688476562,       -0.2670898438,       -4.6844482422,      -14.2974853516,      -20.9045410156
1488507629.3832039833,1488507629.3856189251,        0.4287109375,        0.5688476562,       -0.2670898438,       -5.6457519531,      -12.2070312500,      -16.3421630859
1488507629.3859100342,1488507629.3884410858,        0.4287109375,        0.5551757812,       -0.2866210938,       -5.6457519531,      -12.2070312500,      -16.3421630859
1488507629.3887310028,1488507629.3911368847,        0.4863281250,        0.5551757812,       -0.2866210938,       -6.4392089844,      -10.5438232422,      -11.3525390625
1488507629.3918530941,1488507629.3941500187,        0.4863281250,        0.5551757812,       -0.2866210938,       -6.4392089844,      -10.5438232422,      -11.3525390625
1488507629.3944339752,1488507629.3967249393,        0.4863281250,        0.5551757812,       -0.2866210938,       -6.1950683594,       -9.3841552734,       -5.6610107422
1488507629.3969988823,1488507629.3992879391,        0.4897460938,        0.5224609375,       -0.3115234375,       -6.1950683594,       -9.3841552734,       -5.6610107422
1488507629.3995599747,1488507629.4019119740,        0.4897460938,        0.5224609375,       -0.3115234375,       -6.7138671875,       -7.7056884766,       -0.8239746094
1488507629.4021949768,1488507629.4046111107,        0.4897460938,        0.5224609375,       -0.3115234375,       -6.7138671875,       -7.7056884766,       -0.8239746094
1488507629.4048919678,1488507629.4073090553,        0.4897460938,        0.5224609375,       -0.3115234375,       -8.1634521484,       -5.2185058594,        3.5400390625
1488507629.4075899124,1488507629.4100100994,        0.4633789062,        0.5283203125,       -0.3535156250,       -8.1634521484,       -5.2185058594,        3.5400390625
1488507629.4102909565,1488507629.4127149582,        0.4633789062,        0.5283203125,       -0.3535156250,       -9.7351074219,       -2.4261474609,        8.8653564453
1488507629.4129979610,1488507629.4154140949,        0.4633789062,        0.5283203125,       -0.3535156250,       -9.7351074219,       -2.4261474609,        8.8653564453
1488507629.4156959057,1488507629.4181098938,        0.4633789062,        0.5283203125,       -0.3569335938,      -11.5051269531,       -0.4577636719,       16.2200927734
1488507629.4183990955,1488507629.4208140373,        0.4848632812,        0.5131835938,       -0.3569335938,      -11.5051269531,       -0.4577636719,       16.2200927734
1488507629.4211020470,1488507629.4234418869,        0.4848632812,        0.5131835938,       -0.3569335938,      -13.8549804688,        0.6713867188,       23.2543945312
1488507629.4237239361,1488507629.4260179996,        0.4848632812,        0.5131835938,       -0.3569335938,      -13.8549804688,        0.6713867188,       23.2543945312
1488507629.4262979031,1488507629.4285840988,        0.4848632812,        0.5590820312,       -0.3544921875,      -16.6015625000,        2.2125244141,       29.2816162109
1488507629.4288640022,1488507629.4311580658,        0.4184570312,        0.5590820312,       -0.3544921875,      -16.6015625000,        2.2125244141,       29.2816162109
1488507629.4314379692,1488507629.4337329865,        0.4184570312,        0.5590820312,       -0.3544921875,      -20.0958251953,        4.3945312500,       35.7055664062
1488507629.4340140820,1488507629.4363079071,        0.4184570312,        0.5590820312,       -0.3544921875,      -20.0958251953,        4.3945312500,       35.7055664062
1488507629.4366979599,1488507629.4389920235,        0.4184570312,        0.6430664062,       -0.3457031250,      -24.0020751953,        7.8887939453,       43.2434082031
1488507629.4392731190,1488507629.4415669441,        0.4614257812,        0.6430664062,       -0.3457031250,      -24.6734619141,        7.8887939453,       43.2434082031
1488507629.4418480396,1488507629.4441490173,        0.4614257812,        0.6430664062,       -0.3457031250,      -24.6734619141,        7.8887939453,       51.7120361328
1488507629.4444301128,1488507629.4467189312,        0.4614257812,        0.6430664062,       -0.3457031250,      -28.6865234375,       11.4440917969,       51.7120361328
1488507629.4470028877,1488507629.4492940903,        0.6049804688,        0.5156250000,       -0.3022460938,      -28.6865234375,       11.4440917969,       59.2803955078
1488507629.4495770931,1488507629.4520230293,        0.6049804688,        0.5156250000,       -0.3022460938,      -30.9143066406,       14.5568847656,       59.2803955078
1488507629.4523150921,1488507629.4547328949,        0.6049804688,        0.5156250000,       -0.3022460938,      -30.9143066406,       14.5568847656,       65.3381347656
1488507629.4550240040,1488507629.4574429989,        0.6049804688,        0.5156250000,       -0.3022460938,      -32.0434570312,       18.0511474609,       65.3381347656
1488507629.4577379227,1488507629.4601519108,        0.6479492188,        0.5234375000,       -0.3720703125,      -32.0434570312,       18.0511474609,       70.9838867188
1488507629.4604439735,1488507629.4629058838,        0.6479492188,        0.5234375000,       -0.3720703125,      -33.7371826172,       22.9797363281,       70.9838867188
1488507629.4631969929,1488507629.4656209946,        0.6479492188,        0.5234375000,       -0.3720703125,      -33.7371826172,       22.9797363281,       77.8198242188
1488507629.4659121037,1488507629.4683289528,        0.6479492188,        0.5234375000,       -0.4970703125,      -37.6129150391,       26.2756347656,       77.8198242188
1488507629.4686229229,1488507629.4710381031,        0.6772460938,        0.5644531250,       -0.3833007812,      -37.6129150391,       26.2756347656,       86.1663818359
1488507629.4713308811,1488507629.4736590385,        0.6772460938,        0.5644531250,       -0.3833007812,      -43.2586669922,       28.7780761719,       86.1663818359
1488507629.4739439487,1488507629.4762380123,        0.6772460938,        0.5644531250,       -0.3833007812,      -43.2586669922,       28.7780761719,       86.1663818359
1488507629.4765210152,1488507629.4788129330,        0.6772460938,        0.4394531250,       -0.3686523438,      -47.8210449219,       30.7312011719,       94.0551757812
1488507629.4790968895,1488507629.4813940525,        0.7954101562,        0.4667968750,       -0.3686523438,      -47.8210449219,       30.7312011719,       94.0551757812
1488507629.4817240238,1488507629.4841389656,        0.7954101562,        0.4667968750,       -0.3686523438,      -49.0570068359,       32.8216552734,      100.9674072266
1488507629.4844319820,1488507629.4868509769,        0.7954101562,        0.4667968750,       -0.3686523438,      -49.0570068359,       32.8216552734,      100.9674072266
1488507629.4871439934,1488507629.4895589352,        0.9204101562,        0.4912109375,       -0.2958984375,      -44.2962646484,       35.8734130859,      107.3150634766
1488507629.4898500443,1488507629.4922840595,        0.9042968750,        0.4912109375,       -0.2958984375,      -44.2962646484,       35.8734130859,      107.3150634766
1488507629.4925699234,1488507629.4948589802,        0.9042968750,        0.4912109375,       -0.2958984375,      -38.0401611328,       37.9333496094,      114.1357421875
1488507629.4951429367,1488507629.4974360466,        0.9042968750,        0.4912109375,       -0.2958984375,      -38.0401611328,       37.9333496094,      114.1357421875
1488507629.4977209568,1488507629.5000140667,        1.0048828125,        0.5439453125,       -0.2607421875,      -33.3557128906,       40.7562255859,      119.7967529297
1488507629.5004060268,1488507629.5027089119,        1.0048828125,        0.5439453125,       -0.2607421875,      -33.3557128906,       40.7562255859,      119.7967529297
1488507629.5029919147,1488507629.5052809715,        1.0048828125,        0.5439453125,       -0.2607421875,      -31.1584472656,       43.7316894531,      124.9389648438
1488507629.5055649281,1488507629.5078830719,        1.0048828125,        0.5439453125,       -0.2607421875,      -31.1584472656,       43.7316894531,      124.9389648438
1488507629.5082440376,1488507629.5105369091,        1.2241210938,        0.6225585938,       -0.2148437500,      -31.6314697266,       44.8455810547,      130.9051513672
1488507629.5108230114,1488507629.5134949684,        1.2241210938,        0.6225585938,       -0.2148437500,      -31.6314697266,       44.8455810547,      130.9051513672
1488507629.5137820244,1488507629.5160739422,        1.2241210938,        0.6225585938,       -0.2148437500,      -34.6527099609,       43.4570312500,      138.3056640625
1488507629.5163600445,1488507629.5186460018,        1.2241210938,        0.6225585938,       -0.2148437500,      -34.6527099609,       43.4570312500,      138.3056640625
1488507629.5189290047,1488507629.5212199688,        1.7211914062,        0.4916992188,       -0.2089843750,      -41.0461425781,       42.1600341797,      146.4233398438
1488507629.5215039253,1488507629.5238430500,        1.7211914062,        0.4916992188,       -0.2089843750,      -41.0461425781,       42.1600341797,      146.4233398438
1488507629.5241270065,1488507629.5264170170,        1.7211914062,        0.4916992188,       -0.2089843750,      -52.5360107422,       43.0908203125,      151.7181396484
1488507629.5267000198,1488507629.5289850235,        1.7211914062,        0.4916992188,       -0.2089843750,      -52.5360107422,       43.0908203125,      151.7181396484
1488507629.5292699337,1488507629.5315499306,        1.9633789062,        0.1469726562,       -0.1782226562,      -64.2547607422,       44.6014404297,      153.1677246094
1488507629.5318329334,1488507629.5341200829,        1.9633789062,        0.1469726562,       -0.1782226562,      -62.7288818359,       44.6014404297,      153.1677246094
1488507629.5344040394,1488507629.5366919041,        1.9633789062,        0.1469726562,       -0.1782226562,      -62.7288818359,       44.6014404297,      155.2734375000
1488507629.5369739532,1488507629.5392649174,        1.9633789062,        0.1469726562,       -0.1552734375,      -69.6411132812,       44.7082519531,      155.2734375000
1488507629.5395491123,1488507629.5418839455,        1.7285156250,       -0.0625000000,       -0.1552734375,      -69.6411132812,       44.7082519531,      161.8041992188
1488507629.5421690941,1488507629.5444550514,        1.7285156250,       -0.0625000000,       -0.1552734375,      -70.8007812500,       40.8630371094,      161.8041992188
1488507629.5447390079,1488507629.5470271111,        1.7285156250,       -0.0625000000,       -0.1552734375,      -70.8007812500,       40.8630371094,      169.6166992188
1488507629.5473129749,1488507629.5496048927,        1.7285156250,       -0.3125000000,       -0.0458984375,      -70.3277587891,       36.7889404297,      170.1202392578
1488507629.5498919487,1488507629.5521841049,        1.4916992188,       -0.2998046875,       -0.0458984375,      -70.3277587891,       36.7889404297,      170.1202392578
1488507629.5524680614,1488507629.5547649860,        1.4916992188,       -0.2998046875,       -0.0458984375,      -67.6879882812,       34.1491699219,      178.8787841797
1488507629.5550498962,1488507629.5573430061,        1.4916992188,       -0.2998046875,       -0.0458984375,      -67.6879882812,       34.1491699219,      178.8787841797
1488507629.5576291084,1488507629.5599210262,        1.4916992188,       -0.4667968750,       -0.0732421875,      -65.9027099609,       34.7900390625,      189.1021728516
1488507629.5602059364,1488507629.5637040138,        1.2285156250,       -0.4667968750,       -0.0732421875,      -65.9027099609,       34.7900390625,      194.0765380859
1488507629.5641009808,1488507629.5663869381,        1.2285156250,       -0.4667968750,       -0.0732421875,      -62.5457763672,       37.3535156250,      194.0765380859
1488507629.5666730404,1488507629.5689659119,        1.2285156250,       -0.4667968750,       -0.0732421875,      -62.5457763672,       37.3535156250,      197.9827880859
1488507629.5692501068,1488507629.5715410709,        0.8842773438,       -0.2363281250,       -0.0014648438,      -55.5572509766,       42.4957275391,      195.7550048828
1488507629.5718259811,1488507629.5741209984,        0.8842773438,       -0.2363281250,       -0.0014648438,      -55.5572509766,       42.4957275391,      195.7550048828
1488507629.5744059086,1488507629.5766909122,        0.8842773438,       -0.2363281250,       -0.0014648438,      -44.2657470703,       48.1872558594,      198.1048583984
1488507629.5769760609,1488507629.5792651176,        0.8842773438,       -0.2363281250,       -0.0014648438,      -44.2657470703,       48.1872558594,      198.1048583984
1488507629.5795509815,1488507629.5818939209,        0.5307617188,       -0.0039062500,       -0.0019531250,      -29.6478271484,       53.2989501953,      201.3092041016
1488507629.5821790695,1488507629.5844690800,        0.5307617188,       -0.0039062500,       -0.0019531250,      -29.6478271484,       53.2989501953,      201.3092041016
1488507629.5847558975,1488507629.5870459080,        0.5307617188,       -0.0039062500,       -0.0019531250,      -12.5427246094,       61.0809326172,      200.5920410156
1488507629.5873320103,1488507629.5896279812,        0.5307617188,       -0.0039062500,       -0.0073242188,      -12.5427246094,       61.0809326172,      200.5920410156
1488507629.5899140835,1488507629.5922100544,        0.3642578125,       -0.1064453125,       -0.0073242188,        5.5694580078,       69.2901611328,      194.7784423828
1488507629.5924971104,1488507629.5947809219,        0.3642578125,       -0.1064453125,       -0.0073242188,        5.5694580078,       69.2901611328,      194.7784423828
1488507629.5950639248,1488507629.5973520279,        0.3642578125,       -0.1064453125,       -0.0073242188,       25.7720947266,       75.5767822266,      185.4095458984
1488507629.5976378918,1488507629.5999200344,        0.3642578125,       -0.1064453125,       -0.1118164062,       25.7720947266,       75.5767822266,      185.4095458984
1488507629.6002039909,1488507629.6025269032,        0.2792968750,       -0.2080078125,       -0.1118164062,       49.6673583984,       79.6508789062,      173.7670898438
1488507629.6028120518,1488507629.6051089764,        0.2792968750,       -0.2080078125,       -0.1118164062,       49.6673583984,       79.6508789062,      173.7670898438
1488507629.6053950787,1488507629.6076889038,        0.2792968750,       -0.2080078125,       -0.1118164062,       49.6673583984,       81.5429687500,      157.6995849609
1488507629.6079730988,1488507629.6102740765,        0.2792968750,       -0.0629882812,       -0.2656250000,       82.0159912109,       81.5429687500,      157.6995849609
1488507629.6105589867,1488507629.6130030155,        0.4912109375,       -0.0629882812,       -0.2656250000,       82.0159912109,       81.5429687500,      133.6212158203
1488507629.6132891178,1488507629.6155910492,        0.4912109375,       -0.0629882812,       -0.2656250000,      115.8599853516,       80.3070068359,      133.6212158203
1488507629.6158750057,1488507629.6181700230,        0.4912109375,       -0.0629882812,       -0.2656250000,      115.8599853516,       80.3070068359,      105.0415039062
1488507629.6184570789,1488507629.6207520962,        0.6162109375,        0.4335937500,       -0.4785156250,      141.9677734375,       77.6367187500,      105.0415039062
1488507629.6210379601,1488507629.6235370636,        0.5717773438,        0.4335937500,       -0.4785156250,      141.9677734375,       77.6367187500,       76.9195556641
1488507629.6238300800,1488507629.6262500286,        0.5717773438,        0.4335937500,       -0.4785156250,      158.2336425781,       72.2808837891,       76.9195556641
1488507629.6266510487,1488507629.6290729046,        0.5717773438,        0.4335937500,       -0.4785156250,      158.2336425781,       72.2808837891,       55.6488037109
1488507629.6293640137,1488507629.6317989826,        0.2124023438,        0.9394531250,       -0.5122070312,      158.6456298828,       62.2406005859,       55.6488037109
1488507629.6320910454,1488507629.6345078945,        0.2124023438,        0.9394531250,       -0.5122070312,      158.6456298828,       62.2406005859,       37.9943847656
1488507629.6347990036,1488507629.6372160912,        0.2124023438,        0.9394531250,       -0.5122070312,      147.8729248047,       48.1109619141,       37.9943847656
1488507629.6375079155,1488507629.6399259567,        0.2124023438,        0.9394531250,       -0.5122070312,      147.8729248047,       48.1109619141,       19.6990966797
1488507629.6402180195,1488507629.6426379681,       -0.0449218750,        1.1293945312,       -0.6318359375,      135.8489990234,       35.2783203125,       19.6990966797
1488507629.6429309845,1488507629.6453499794,       -0.0449218750,        1.1293945312,       -0.6318359375,      135.8489990234,       35.2783203125,        9.5062255859
1488507629.6456389427,1488507629.6480538845,       -0.0449218750,        1.1293945312,       -0.6318359375,      117.5689697266,       26.9775390625,        9.5062255859
1488507629.6483430862,1488507629.6507608891,       -0.0449218750,        0.5429687500,       -0.2460937500,      117.5689697266,       26.9775390625,        6.5917968750
1488507629.6510510445,1488507629.6534230709,       -0.1264648438,        0.5429687500,       -0.2460937500,       95.6878662109,       15.5639648438,        6.5917968750
1488507629.6537048817,1488507629.6559960842,       -0.1264648438,        0.5429687500,       -0.2460937500,       95.6878662109,       15.5639648438,        2.6855468750
1488507629.6562769413,1488507629.6585729122,       -0.1264648438,        0.5429687500,       -0.2460937500,       78.4759521484,        6.3018798828,        1.6021728516
1488507629.6588509083,1488507629.6611430645,       -0.0014648438,        0.2451171875,       -0.1201171875,       78.4759521484,        6.3018798828,        1.6021728516
1488507629.6614239216,1488507629.6638400555,       -0.0615234375,        0.2451171875,       -0.1201171875,       68.5729980469,        0.9918212891,       -6.4544677734
1488507629.6641271114,1488507629.6665449142,       -0.0615234375,        0.2451171875,       -0.1201171875,       68.5729980469,        0.9918212891,       -6.4544677734
1488507629.6668319702,1488507629.6692450047,       -0.0615234375,        0.2451171875,       -0.1201171875,       60.4705810547,       -1.5869140625,      -14.1448974609
1488507629.6695349216,1488507629.6719670296,       -0.0087890625,        0.1083984375,       -0.0664062500,       60.4705810547,       -1.5869140625,      -14.1448974609
1488507629.6722569466,1488507629.6746819019,       -0.0087890625,        0.1083984375,       -0.0664062500,       52.9632568359,       -3.6163330078,      -19.8974609375
1488507629.6749730110,1488507629.6773920059,       -0.0087890625,        0.1083984375,       -0.0664062500,       52.9632568359,       -3.6163330078,      -19.8974609375
1488507629.6776819229,1488507629.6803109646,       -0.0087890625,        0.1083984375,       -0.0664062500,       44.1894531250,       -5.7220458984,      -23.8647460938
1488507629.6806030273,1488507629.6833279133,        0.0029296875,        0.1440429688,       -0.0595703125,       44.1894531250,       -5.7220458984,      -26.2603759766
1488507629.6836199760,1488507629.6860361099,        0.0029296875,        0.1440429688,       -0.0595703125,       33.3557128906,       -7.9803466797,      -26.2603759766
1488507629.6863279343,1488507629.6887490749,        0.0029296875,        0.1440429688,       -0.0595703125,       33.3557128906,       -7.9803466797,      -28.2745361328
1488507629.6890380383,1488507629.6914560795,        0.0029296875,        0.1152343750,       -0.0527343750,       19.9584960938,      -10.1928710938,      -28.2745361328
1488507629.6918580532,1488507629.6942839622,        0.0024414062,        0.1152343750,       -0.0527343750,       19.9584960938,      -10.1928710938,      -29.0832519531
1488507629.6945769787,1488507629.6969969273,        0.0024414062,        0.1152343750,       -0.0527343750,        2.2430419922,      -12.5122070312,      -29.0832519531
1488507629.6972899437,1488507629.6997048855,        0.0024414062,        0.1152343750,       -0.0527343750,        2.2430419922,      -12.5122070312,      -28.6712646484
1488507629.6999950409,1488507629.7023940086,       -0.0053710938,        0.0195312500,       -0.0498046875,      -17.8833007812,      -14.6636962891,      -28.6712646484
1488507629.7026789188,1488507629.7049689293,       -0.0053710938,        0.0195312500,       -0.0498046875,      -17.8833007812,      -14.6636962891,      -28.6712646484
1488507629.7052528858,1488507629.7075440884,       -0.0053710938,        0.0195312500,       -0.0498046875,      -36.1938476562,      -16.4489746094,      -27.4047851562
1488507629.7078289986,1488507629.7101259232,       -0.0053710938,        0.0195312500,       -0.0498046875,      -36.1938476562,      -16.4489746094,      -27.4047851562
1488507629.7104120255,1488507629.7127220631,        0.0039062500,       -0.1333007812,       -0.0004882812,      -46.7071533203,      -17.1661376953,      -25.6958007812
1488507629.7130069733,1488507629.7153038979,        0.0039062500,       -0.1333007812,       -0.0004882812,      -46.7071533203,      -17.1661376953,      -25.6958007812
1488507629.7155900002,1488507629.7178800106,        0.0039062500,       -0.1333007812,       -0.0004882812,      -49.3621826172,      -17.4713134766,      -23.4832763672
1488507629.7181661129,1488507629.7204549313,        0.0039062500,       -0.1333007812,       -0.0004882812,      -49.3621826172,      -17.4713134766,      -23.4832763672
1488507629.7207400799,1488507629.7230908871,        0.0151367188,       -0.1953125000,        0.0395507812,      -47.0733642578,      -17.5781250000,      -21.7132568359
1488507629.7233750820,1488507629.7256650925,        0.0151367188,       -0.1953125000,        0.0395507812,      -47.0733642578,      -17.5781250000,      -21.7132568359
1488507629.7259480953,1488507629.7282431126,        0.0151367188,       -0.1953125000,        0.0395507812,      -43.2586669922,      -16.3421630859,      -21.1639404297
1488507629.7285270691,1488507629.7308280468,        0.0151367188,       -0.1953125000,        0.0395507812,      -43.2586669922,      -16.3421630859,      -21.1639404297
1488507629.7311120033,1488507629.7335751057,        0.0224609375,       -0.1669921875,        0.0610351562,      -37.7349853516,      -14.1754150391,      -21.4996337891
1488507629.7338600159,1488507629.7361609936,        0.0224609375,       -0.1669921875,        0.0610351562,      -37.7349853516,      -14.1754150391,      -21.4996337891
1488507629.7364459038,1488507629.7387390137,        0.0224609375,       -0.1669921875,        0.0610351562,      -32.4249267578,      -11.1999511719,      -22.8729248047
1488507629.7390239239,1488507629.7413170338,        0.0224609375,       -0.1669921875,        0.0727539062,      -32.4249267578,      -11.1999511719,      -22.8729248047
1488507629.7416028976,1488507629.7442529202,       -0.0102539062,       -0.0893554688,        0.0727539062,      -26.7333984375,       -8.5449218750,      -24.5056152344
1488507629.7445430756,1488507629.7469439507,       -0.0102539062,       -0.0893554688,        0.0727539062,      -26.7333984375,       -8.5449218750,      -24.5056152344
1488507629.7472319603,1488507629.7496359348,       -0.0102539062,       -0.0893554688,        0.0727539062,      -22.3388671875,       -6.9122314453,      -26.6113281250
1488507629.7499239445,1488507629.7523880005,       -0.0512695312,       -0.0405273438,        0.0405273438,      -22.3388671875,       -6.9122314453,      -26.6113281250
1488507629.7526869774,1488507629.7549889088,       -0.0512695312,       -0.0405273438,        0.0405273438,      -19.6075439453,       -6.1035156250,      -28.1677246094
1488507629.7553730011,1488507629.7576680183,       -0.0512695312,       -0.0405273438,        0.0405273438,      -19.6075439453,       -6.1035156250,      -28.1677246094
1488507629.7579479218,1488507629.7602360249,       -0.0512695312,       -0.0405273438,        0.0405273438,      -15.7012939453,       -5.3863525391,      -28.8696289062
1488507629.7605168819,1488507629.7629909515,       -0.0722656250,        0.0180664062,       -0.0058593750,      -18.0206298828,       -5.3863525391,      -28.8696289062
1488507629.7632811069,1488507629.7656919956,       -0.0722656250,        0.0180664062,       -0.0058593750,      -18.0206298828,       -5.7983398438,      -29.0222167969
1488507629.7659809589,1488507629.7683830261,       -0.0722656250,        0.0180664062,       -0.0058593750,      -17.4865722656,       -5.7983398438,      -29.0222167969
1488507629.7686750889,1488507629.7710750103,       -0.0722656250,        0.0180664062,       -0.0058593750,      -17.4865722656,       -6.4086914062,      -28.7475585938
1488507629.7713639736,1488507629.7737181187,       -0.0629882812,        0.0522460938,       -0.0488281250,      -18.7988281250,       -6.4086914062,      -28.7475585938
1488507629.7739980221,1488507629.7762939930,       -0.0629882812,        0.0522460938,       -0.0488281250,      -18.7988281250,       -6.4086914062,      -28.1677246094
1488507629.7765760422,1488507629.7788751125,       -0.0629882812,        0.0522460938,       -0.0488281250,      -21.3012695312,       -7.0800781250,      -28.1677246094
1488507629.7791559696,1488507629.7814519405,       -0.0629882812,        0.0522460938,       -0.0488281250,      -21.3012695312,       -7.0800781250,      -26.7333984375
1488507629.7817730904,1488507629.7841520309,       -0.0512695312,        0.0302734375,       -0.0126953125,      -24.3988037109,       -6.5612792969,      -26.7333984375
1488507629.7844359875,1488507629.7868199348,       -0.0512695312,        0.0302734375,       -0.0126953125,      -24.3988037109,       -6.5612792969,      -24.6124267578
1488507629.7871050835,1488507629.7894840240,       -0.0512695312,        0.0302734375,       -0.0126953125,      -27.0538330078,       -6.2255859375,      -24.6124267578
1488507629.7897710800,1488507629.7922990322,       -0.0512695312,       -0.0361328125,        0.0053710938,      -27.0538330078,       -6.2255859375,      -22.9492187500
1488507629.7925889492,1488507629.7950119972,       -0.0561523438,       -0.0361328125,        0.0053710938,      -30.5328369141,       -6.2103271484,      -22.9492187500
1488507629.7953019142,1488507629.7977359295,       -0.0561523438,       -0.0361328125,        0.0053710938,      -30.5328369141,       -6.2103271484,      -20.6756591797
1488507629.7980360985,1488507629.8004550934,       -0.0561523438,       -0.0361328125,        0.0053710938,      -33.4167480469,       -4.8522949219,      -20.6756591797
1488507629.8007469177,1488507629.8035190105,       -0.0742187500,       -0.0922851562,        0.0439453125,      -33.4167480469,       -0.9460449219,      -17.9138183594
1488507629.8038039207,1488507629.8060960770,       -0.0742187500,       -0.0922851562,        0.0439453125,      -33.1726074219,       -3.1433105469,      -17.9138183594
1488507629.8063759804,1488507629.8086719513,       -0.0742187500,       -0.0922851562,        0.0439453125,      -33.1726074219,       -3.1433105469,      -15.8386230469
1488507629.8089520931,1488507629.8112440109,       -0.0742187500,       -0.0922851562,        0.0439453125,      -34.0576171875,       -2.7008056641,      -15.8386230469
1488507629.8115251064,1488507629.8139569759,       -0.0844726562,       -0.1494140625,        0.0449218750,      -34.0576171875,       -2.7008056641,      -14.4958496094
1488507629.8142468929,1488507629.8166658878,       -0.0844726562,       -0.1494140625,        0.0449218750,      -35.5529785156,       -2.0294189453,      -14.4958496094
1488507629.8169538975,1488507629.8193700314,       -0.0844726562,       -0.1494140625,        0.0449218750,      -35.5529785156,       -2.0294189453,      -14.4958496094
1488507629.8196580410,1488507629.8221120834,       -0.0844726562,       -0.1494140625,        0.1186523438,      -34.6374511719,        0.4730224609,      -12.4511718750
1488507629.8225100040,1488507629.8249249458,       -0.0493164062,       -0.2006835938,        0.1186523438,      -34.6374511719,        0.4730224609,      -10.9252929688
1488507629.8252160549,1488507629.8276309967,       -0.0493164062,       -0.2006835938,        0.1186523438,      -30.4412841797,        3.7536621094,      -10.9252929688
1488507629.8279221058,1488507629.8303399086,       -0.0493164062,       -0.2006835938,        0.1186523438,      -30.4412841797,        3.7536621094,      -11.3220214844
1488507629.8306291103,1488507629.8329739571,       -0.0644531250,       -0.1611328125,        0.0942382812,      -23.8494873047,        5.5694580078,      -11.3220214844
1488507629.8332569599,1488507629.8355560303,       -0.0644531250,       -0.1611328125,        0.0942382812,      -23.8494873047,        5.5694580078,      -15.2282714844
1488507629.8358390331,1488507629.8381290436,       -0.0644531250,       -0.1611328125,        0.0942382812,      -17.0440673828,        7.1105957031,      -13.9312744141
1488507629.8384120464,1488507629.8406989574,       -0.0644531250,       -0.1611328125,        0.0942382812,      -17.0440673828,        7.1105957031,      -13.9312744141
1488507629.8409810066,1488507629.8432850838,       -0.0664062500,       -0.0786132812,        0.0253906250,       -9.8266601562,        9.0484619141,      -15.9454345703
1488507629.8435640335,1488507629.8458530903,       -0.0664062500,       -0.0786132812,        0.0253906250,       -9.8266601562,        9.0484619141,      -15.9454345703
1488507629.8461310863,1488507629.8484270573,       -0.0664062500,       -0.0786132812,        0.0253906250,       -1.8005371094,        8.6364746094,      -17.8833007812
1488507629.8487060070,1488507629.8510000706,       -0.0664062500,       -0.0786132812,        0.0253906250,       -1.8005371094,        8.6364746094,      -17.8833007812
1488507629.8512790203,1488507629.8537380695,        0.3471679688,        1.0234375000,       -0.0844726562,        2.1514892578,        6.8969726562,      -32.9589843750
1488507629.8540151119,1488507629.8563110828,        0.3471679688,        1.0234375000,       -0.0844726562,        2.1514892578,        6.8969726562,      -32.9589843750
1488507629.8565869331,1488507629.8588769436,        0.3471679688,        1.0234375000,       -0.0844726562,       25.8483886719,        0.2288818359,      -85.0524902344
1488507629.8591589928,1488507629.8614499569,        0.3471679688,        1.0234375000,       -0.0844726562,       25.8483886719,        0.2288818359,      -85.0524902344
1488507629.8618710041,1488507629.8642809391,        0.1694335938,        3.3232421875,       -1.1333007812,       82.0312500000,      -18.6462402344,     -154.0985107422
1488507629.8645749092,1488507629.8669750690,        0.1694335938,        3.3232421875,       -1.1333007812,       82.0312500000,      -18.6462402344,     -154.0985107422
1488507629.8672668934,1488507629.8696670532,        0.1694335938,        3.3232421875,       -1.1333007812,       96.6796875000,      -27.5726318359,     -198.9746093750
1488507629.8699560165,1488507629.8723750114,        0.1694335938,        3.3232421875,       -0.3833007812,       96.6796875000,      -27.5726318359,     -198.9746093750
1488507629.8726649284,1488507629.8750669956,        0.5732421875,        2.0878906250,       -0.4765625000,       89.4317626953,      -28.1524658203,     -222.1069335938
1488507629.8753590584,1488507629.8777620792,        0.5732421875,        2.0878906250,       -0.4765625000,       89.4317626953,      -28.1524658203,     -222.1069335938
1488507629.8780529499,1488507629.8804559708,        0.5732421875,        2.0878906250,       -0.4765625000,       86.5783691406,      -25.9246826172,     -227.4169921875
1488507629.8807480335,1488507629.8831501007,        0.5732421875,        0.4916992188,       -0.3422851562,       86.5783691406,      -25.9246826172,     -227.4169921875
1488507629.8834390640,1488507629.8858270645,        1.0893554688,        0.4916992188,       -0.3422851562,       85.8764648438,      -28.9306640625,     -213.0126953125
1488507629.8862340450,1488507629.8886179924,        1.0893554688,        0.4916992188,       -0.3422851562,       85.8764648438,      -28.9306640625,     -213.0126953125
1488507629.8889069557,1488507629.8913340569,        1.0893554688,        0.4916992188,       -0.3422851562,      103.6224365234,      -36.9873046875,     -190.4907226562
1488507629.8916258812,1488507629.8939230442,        1.1303710938,       -1.2016601562,        0.0751953125,      103.6224365234,      -36.9873046875,     -190.4907226562
1488507629.8942089081,1488507629.8964970112,        1.1303710938,       -1.2016601562,        0.0751953125,      125.2593994141,      -41.6870117188,     -173.9501953125
1488507629.8967819214,1488507629.8990759850,        1.1303710938,       -1.2016601562,        0.0751953125,      125.2593994141,      -41.6870117188,     -173.9501953125
1488507629.8993599415,1488507629.9017059803,        1.1303710938,       -1.2016601562,        0.0751953125,      133.0718994141,      -24.1088867188,     -174.1485595703
