time_stamp before, time_stamp after, Acceleration x, Acceleration y, Acceleration z, Gyro x, Gyro y, Gyro z
1488507679.0162069798,1488507679.0255310535,        0.6147460938,        0.0156250000,       -0.1293945312,       -0.9613037109,       -1.0070800781,       -0.0915527344
1488507679.0258340836,1488507679.0283279419,        0.6108398438,        0.0156250000,       -0.1293945312,       -0.9613037109,       -1.0070800781,        0.0610351562
1488507679.0286118984,1488507679.0323829651,        0.6108398438,        0.0156250000,       -0.1293945312,       -1.4038085938,       -1.0528564453,        0.0610351562
1488507679.0326890945,1488507679.0359780788,        0.6152343750,        0.0092773438,       -0.1220703125,       -1.7089843750,       -0.7476806641,        0.0610351562
1488507679.0362679958,1488507679.0387830734,        0.6152343750,        0.0092773438,       -0.1220703125,       -1.7089843750,       -0.7476806641,        0.0610351562
1488507679.0390729904,1488507679.0414829254,        0.6152343750,        0.0092773438,       -0.1220703125,       -1.3580322266,       -0.7324218750,        0.3662109375
1488507679.0417759418,1488507679.0441930294,        0.6152343750,        0.0092773438,       -0.1254882812,       -1.3580322266,       -0.7324218750,        0.3662109375
1488507679.0444719791,1488507679.0468859673,        0.6127929688,        0.0087890625,       -0.1254882812,       -1.1291503906,       -1.0528564453,        0.3967285156
1488507679.0471661091,1488507679.0495851040,        0.6127929688,        0.0087890625,       -0.1254882812,       -1.1291503906,       -1.0528564453,        0.3967285156
1488507679.0498669147,1488507679.0523231030,        0.6127929688,        0.0087890625,       -0.1254882812,       -0.9460449219,       -1.3122558594,        0.2136230469
1488507679.0526030064,1488507679.0550100803,        0.6127929688,        0.0146484375,       -0.1264648438,       -0.9460449219,       -1.3122558594,        0.2136230469
1488507679.0552899837,1488507679.0577049255,        0.6162109375,        0.0146484375,       -0.1264648438,       -1.2817382812,       -1.2969970703,        0.0762939453
1488507679.0579819679,1488507679.0603969097,        0.6162109375,        0.0146484375,       -0.1264648438,       -1.2817382812,       -1.2969970703,        0.0762939453
1488507679.0606770515,1488507679.0630331039,        0.6162109375,        0.0146484375,       -0.1264648438,       -1.3580322266,       -1.4648437500,        0.2441406250
1488507679.0633039474,1488507679.0655980110,        0.6215820312,        0.0083007812,       -0.1289062500,       -1.3580322266,       -1.4648437500,        0.2441406250
1488507679.0658710003,1488507679.0681560040,        0.6215820312,        0.0083007812,       -0.1289062500,       -0.7934570312,       -1.1291503906,        0.2136230469
1488507679.0684299469,1488507679.0707199574,        0.6215820312,        0.0083007812,       -0.1289062500,       -0.7934570312,       -1.1291503906,        0.2136230469
1488507679.0709950924,1488507679.0733850002,        0.6215820312,        0.0083007812,       -0.1289062500,       -0.8392333984,       -1.2512207031,        0.0152587891
1488507679.0736620426,1488507679.0759580135,        0.6166992188,        0.0078125000,       -0.1264648438,       -0.8392333984,       -1.2512207031,        0.0152587891
1488507679.0762319565,1488507679.0786609650,        0.6166992188,        0.0078125000,       -0.1264648438,       -0.8392333984,       -1.1901855469,       -0.1525878906
1488507679.0789370537,1488507679.0812320709,        0.6166992188,        0.0078125000,       -0.1264648438,       -0.8392333984,       -1.1901855469,       -0.1525878906
1488507679.0815069675,1488507679.0840380192,        0.6166992188,        0.0078125000,       -0.1264648438,       -0.7934570312,       -1.1444091797,       -0.0915527344
1488507679.0843191147,1488507679.0867269039,        0.6230468750,        0.0063476562,       -0.1303710938,       -0.7934570312,       -1.1444091797,       -0.0915527344
1488507679.0870099068,1488507679.0894079208,        0.6230468750,        0.0063476562,       -0.1303710938,       -0.4882812500,       -0.6866455078,        0.0305175781
1488507679.0898509026,1488507679.0923030376,        0.6230468750,        0.0063476562,       -0.1303710938,       -0.4882812500,       -0.6866455078,        0.0305175781
1488507679.0925850868,1488507679.0949869156,        0.6230468750,        0.0112304688,       -0.1206054688,       -0.4272460938,       -0.9155273438,       -0.1068115234
1488507679.0952680111,1488507679.0976660252,        0.6215820312,        0.0112304688,       -0.1206054688,       -0.4272460938,       -0.9155273438,       -0.1068115234
1488507679.0979480743,1488507679.1003499031,        0.6215820312,        0.0112304688,       -0.1206054688,       -0.3356933594,       -1.2664794922,       -0.1983642578
1488507679.1006319523,1488507679.1030359268,        0.6215820312,        0.0112304688,       -0.1206054688,       -0.3356933594,       -1.2664794922,       -0.1983642578
1488507679.1033189297,1488507679.1057200432,        0.6137695312,        0.0083007812,       -0.1293945312,       -0.0305175781,       -1.3122558594,       -0.3662109375
1488507679.1060009003,1488507679.1084079742,        0.6137695312,        0.0083007812,       -0.1293945312,       -0.0305175781,       -1.3122558594,       -0.3662109375
1488507679.1086900234,1488507679.1110889912,        0.6137695312,        0.0083007812,       -0.1293945312,       -0.1831054688,       -1.5106201172,       -0.7781982422
1488507679.1113700867,1488507679.1137859821,        0.6137695312,        0.0083007812,       -0.1293945312,       -0.1831054688,       -1.5106201172,       -0.7781982422
1488507679.1140680313,1488507679.1164710522,        0.6127929688,        0.0039062500,       -0.1318359375,        0.3204345703,       -1.6784667969,       -0.7781982422
1488507679.1167519093,1488507679.1191511154,        0.6127929688,        0.0039062500,       -0.1318359375,        0.3204345703,       -1.6784667969,       -0.7781982422
1488507679.1194329262,1488507679.1218440533,        0.6127929688,        0.0039062500,       -0.1318359375,        0.4272460938,       -1.5106201172,       -0.7629394531
1488507679.1221270561,1488507679.1245470047,        0.6127929688,        0.0039062500,       -0.1318359375,        0.4272460938,       -1.5106201172,       -0.7629394531
1488507679.1248281002,1488507679.1272490025,        0.6127929688,        0.0058593750,       -0.1245117188,       -0.3509521484,       -1.3885498047,       -0.5340576172
1488507679.1275329590,1488507679.1299550533,        0.6127929688,        0.0058593750,       -0.1245117188,       -0.3509521484,       -1.3885498047,       -0.5340576172
1488507679.1302380562,1488507679.1326999664,        0.6127929688,        0.0058593750,       -0.1245117188,       -0.3967285156,       -1.2817382812,       -0.5493164062
1488507679.1329839230,1488507679.1354029179,        0.6127929688,        0.0058593750,       -0.1269531250,       -0.3967285156,       -1.2817382812,       -0.5493164062
1488507679.1356849670,1488507679.1382620335,        0.6171875000,        0.0058593750,       -0.1269531250,       -0.8087158203,       -1.4801025391,       -0.4577636719
1488507679.1385440826,1488507679.1409459114,        0.6171875000,        0.0058593750,       -0.1269531250,       -0.8087158203,       -1.4801025391,       -0.4577636719
1488507679.1420869827,1488507679.1445090771,        0.6171875000,        0.0058593750,       -0.1269531250,       -0.0305175781,       -1.6937255859,       -0.4577636719
1488507679.1447949409,1488507679.1472179890,        0.6181640625,        0.0117187500,       -0.1225585938,       -0.0305175781,       -1.6937255859,       -0.4577636719
1488507679.1474990845,1488507679.1499190331,        0.6181640625,        0.0117187500,       -0.1225585938,       -0.5340576172,       -1.6326904297,       -0.4577636719
1488507679.1502020359,1488507679.1526229382,        0.6181640625,        0.0117187500,       -0.1225585938,       -0.5340576172,       -1.6326904297,       -0.4577636719
1488507679.1529059410,1488507679.1553220749,        0.6181640625,        0.0117187500,       -0.1333007812,       -0.1525878906,       -1.3732910156,       -0.7171630859
1488507679.1557159424,1488507679.1581389904,        0.6132812500,        0.0073242188,       -0.1333007812,       -0.1525878906,       -1.3732910156,       -0.7171630859
1488507679.1584210396,1488507679.1608378887,        0.6132812500,        0.0073242188,       -0.1333007812,        0.0915527344,       -1.6021728516,       -0.8850097656
1488507679.1611208916,1488507679.1634600163,        0.6132812500,        0.0073242188,       -0.1333007812,        0.0915527344,       -1.6021728516,       -0.8850097656
1488507679.1637370586,1488507679.1660308838,        0.6093750000,        0.0102539062,       -0.1240234375,       -0.2288818359,       -1.4648437500,       -0.6866455078
1488507679.1663060188,1488507679.1685938835,        0.6093750000,        0.0102539062,       -0.1240234375,       -0.2288818359,       -1.4648437500,       -0.6866455078
1488507679.1688690186,1488507679.1711668968,        0.6093750000,        0.0102539062,       -0.1240234375,        0.1525878906,       -1.9531250000,       -0.9765625000
1488507679.1714429855,1488507679.1737799644,        0.6093750000,        0.0102539062,       -0.1240234375,        0.1525878906,       -1.9531250000,       -0.9765625000
1488507679.1740539074,1488507679.1763489246,        0.6176757812,        0.0170898438,       -0.1298828125,        0.1525878906,       -1.7089843750,       -0.9613037109
1488507679.1766231060,1488507679.1790170670,        0.6176757812,        0.0170898438,       -0.1298828125,        0.1525878906,       -1.7089843750,       -0.9613037109
1488507679.1792929173,1488507679.1815869808,        0.6176757812,        0.0170898438,       -0.1298828125,       -0.2746582031,       -1.1291503906,       -0.5187988281
1488507679.1819200516,1488507679.1842150688,        0.6176757812,        0.0170898438,       -0.1298828125,       -0.2746582031,       -1.1291503906,       -0.5187988281
1488507679.1844890118,1488507679.1867780685,        0.6230468750,        0.0161132812,       -0.1323242188,       -0.2746582031,       -1.0528564453,       -0.4730224609
1488507679.1870510578,1488507679.1893429756,        0.6230468750,        0.0161132812,       -0.1323242188,       -0.2899169922,       -1.0528564453,       -0.4730224609
1488507679.1896181107,1488507679.1920459270,        0.6230468750,        0.0161132812,       -0.1323242188,       -0.2899169922,       -1.0528564453,       -0.5950927734
1488507679.1923210621,1488507679.1946179867,        0.6230468750,        0.0161132812,       -0.1323242188,       -0.3662109375,       -1.1444091797,       -0.5950927734
1488507679.1948928833,1488507679.1971859932,        0.6113281250,        0.0136718750,       -0.1342773438,       -0.3662109375,       -1.1444091797,       -0.4577636719
1488507679.1974608898,1488507679.1997590065,        0.6113281250,        0.0136718750,       -0.1342773438,       -0.5493164062,       -1.2359619141,       -0.4577636719
1488507679.2000329494,1488507679.2024440765,        0.6113281250,        0.0136718750,       -0.1342773438,       -0.5493164062,       -1.2359619141,       -0.4577636719
1488507679.2027270794,1488507679.2051498890,        0.6113281250,        0.0136718750,       -0.1342773438,       -0.7324218750,       -1.2512207031,       -0.2899169922
1488507679.2054328918,1488507679.2078480721,        0.6142578125,        0.0141601562,       -0.1245117188,       -0.7324218750,       -1.2512207031,       -0.2899169922
1488507679.2081298828,1488507679.2105419636,        0.6142578125,        0.0141601562,       -0.1245117188,       -1.0375976562,       -1.0986328125,       -0.1068115234
1488507679.2108249664,1488507679.2131679058,        0.6142578125,        0.0141601562,       -0.1245117188,       -1.0375976562,       -1.0986328125,       -0.1068115234
1488507679.2134439945,1488507679.2157330513,        0.6142578125,        0.0141601562,       -0.1210937500,       -0.8544921875,       -1.2359619141,       -0.1068115234
1488507679.2160079479,1488507679.2182960510,        0.6123046875,        0.0058593750,       -0.1210937500,       -0.8544921875,       -1.2359619141,       -0.1068115234
1488507679.2186820507,1488507679.2209820747,        0.6123046875,        0.0058593750,       -0.1210937500,       -0.7934570312,       -1.2207031250,        0.1068115234
1488507679.2212569714,1488507679.2236979008,        0.6123046875,        0.0058593750,       -0.1210937500,       -0.7934570312,       -1.2207031250,        0.1068115234
1488507679.2239840031,1488507679.2264020443,        0.6123046875,        0.0092773438,       -0.1264648438,       -0.6103515625,       -1.1291503906,        0.0000000000
1488507679.2266840935,1488507679.2290999889,        0.6230468750,        0.0092773438,       -0.1264648438,       -0.6103515625,       -1.1291503906,        0.0000000000
1488507679.2293839455,1488507679.2318038940,        0.6230468750,        0.0092773438,       -0.1264648438,       -0.2593994141,       -0.9155273438,       -0.3662109375
1488507679.2320880890,1488507679.2345058918,        0.6230468750,        0.0092773438,       -0.1264648438,       -0.2593994141,       -0.9155273438,       -0.3662109375
1488507679.2347879410,1488507679.2372028828,        0.6186523438,        0.0073242188,       -0.1259765625,       -0.2899169922,       -1.0986328125,       -0.2593994141
1488507679.2374849319,1488507679.2399051189,        0.6186523438,        0.0073242188,       -0.1259765625,       -0.2899169922,       -1.0986328125,       -0.2593994141
1488507679.2401878834,1488507679.2426190376,        0.6186523438,        0.0073242188,       -0.1259765625,       -0.6256103516,       -1.1444091797,       -0.2441406250
1488507679.2429020405,1488507679.2453169823,        0.6186523438,        0.0073242188,       -0.1259765625,       -0.6256103516,       -1.1444091797,       -0.2441406250
1488507679.2455999851,1488507679.2480189800,        0.6201171875,        0.0039062500,       -0.1313476562,       -0.3814697266,       -1.1291503906,       -0.3814697266
1488507679.2483010292,1488507679.2507150173,        0.6201171875,        0.0039062500,       -0.1313476562,       -0.3814697266,       -1.1291503906,       -0.3814697266
1488507679.2509970665,1488507679.2534210682,        0.6201171875,        0.0039062500,       -0.1313476562,       -0.4577636719,       -1.0986328125,       -0.3051757812
1488507679.2537050247,1488507679.2561249733,        0.6201171875,        0.0039062500,       -0.1240234375,       -0.4577636719,       -1.0986328125,       -0.3051757812
1488507679.2564079762,1488507679.2589080334,        0.6074218750,        0.0078125000,       -0.1240234375,       -0.3356933594,       -0.7324218750,       -0.2288818359
1488507679.2591938972,1488507679.2616140842,        0.6074218750,        0.0078125000,       -0.1240234375,       -0.3356933594,       -0.7324218750,       -0.2288818359
1488507679.2619390488,1488507679.2642319202,        0.6074218750,        0.0078125000,       -0.1240234375,       -0.2441406250,       -0.8239746094,       -0.2288818359
1488507679.2645070553,1488507679.2668020725,        0.6074218750,        0.0087890625,       -0.1293945312,       -0.2441406250,       -0.8239746094,       -0.2288818359
1488507679.2670769691,1488507679.2693738937,        0.6142578125,        0.0087890625,       -0.1293945312,       -0.2899169922,       -0.9765625000,       -0.6713867188
1488507679.2696480751,1488507679.2719628811,        0.6142578125,        0.0087890625,       -0.1293945312,       -0.2899169922,       -0.9765625000,       -0.6713867188
1488507679.2722449303,1488507679.2746241093,        0.6142578125,        0.0087890625,       -0.1293945312,       -0.1220703125,       -0.6256103516,       -0.5493164062
1488507679.2749071121,1488507679.2772879601,        0.6235351562,        0.0058593750,       -0.1328125000,       -0.1220703125,       -0.6256103516,       -0.5493164062
1488507679.2776648998,1488507679.2800729275,        0.6235351562,        0.0058593750,       -0.1328125000,       -0.6561279297,       -0.5340576172,       -0.3662109375
1488507679.2803568840,1488507679.2827620506,        0.6235351562,        0.0058593750,       -0.1328125000,       -0.6561279297,       -0.5340576172,       -0.3662109375
1488507679.2831649780,1488507679.2855489254,        0.6235351562,        0.0058593750,       -0.1328125000,       -0.1373291016,       -0.9613037109,       -0.5187988281
1488507679.2858309746,1488507679.2883369923,        0.6157226562,        0.0063476562,       -0.1274414062,       -0.1373291016,       -0.9613037109,       -0.5187988281
1488507679.2886209488,1488507679.2910330296,        0.6157226562,        0.0063476562,       -0.1274414062,        0.1983642578,       -1.0986328125,       -0.8697509766
1488507679.2913169861,1488507679.2936389446,        0.6157226562,        0.0063476562,       -0.1274414062,        0.1983642578,       -1.0986328125,       -0.8697509766
1488507679.2939140797,1488507679.2962069511,        0.6157226562,        0.0063476562,       -0.1274414062,       -0.2746582031,       -0.8239746094,       -0.4425048828
1488507679.2964820862,1488507679.2989768982,        0.6162109375,       -0.0024414062,       -0.1313476562,       -0.2746582031,       -0.8239746094,       -0.4425048828
1488507679.2992529869,1488507679.3015449047,        0.6162109375,       -0.0024414062,       -0.1313476562,       -0.2899169922,       -1.1444091797,       -1.1291503906
1488507679.3019480705,1488507679.3042540550,        0.6162109375,       -0.0024414062,       -0.1313476562,       -0.2899169922,       -1.1444091797,       -1.1291503906
1488507679.3045289516,1488507679.3068199158,        0.6162109375,        0.1225585938,       -0.1230468750,        0.0915527344,       -0.9460449219,       -1.4190673828
1488507679.3070960045,1488507679.3093910217,        0.6113281250,        0.0068359375,       -0.1230468750,        0.0915527344,       -0.9460449219,       -1.4190673828
1488507679.3096690178,1488507679.3120529652,        0.6113281250,        0.0068359375,       -0.1230468750,        0.0915527344,       -1.0681152344,       -1.4801025391
1488507679.3123290539,1488507679.3146200180,        0.6113281250,        0.0068359375,       -0.1230468750,        0.4272460938,       -1.0681152344,       -1.4801025391
1488507679.3148961067,1488507679.3171880245,        0.6113281250,        0.0136718750,       -0.1220703125,        0.4272460938,       -1.0681152344,       -1.3275146484
1488507679.3174619675,1488507679.3197519779,        0.6108398438,        0.0136718750,       -0.1220703125,        0.2136230469,       -0.9765625000,       -1.3275146484
1488507679.3200271130,1488507679.3223719597,        0.6108398438,        0.0136718750,       -0.1220703125,        0.2136230469,       -0.9765625000,       -0.8544921875
1488507679.3226540089,1488507679.3250679970,        0.6108398438,        0.0136718750,       -0.1220703125,        0.1678466797,       -0.9460449219,       -0.8544921875
1488507679.3253509998,1488507679.3277640343,        0.6191406250,        0.0053710938,       -0.1333007812,        0.1678466797,       -0.9460449219,       -1.0528564453
1488507679.3280470371,1488507679.3304619789,        0.6191406250,        0.0053710938,       -0.1333007812,        0.6866455078,       -1.0986328125,       -1.0528564453
1488507679.3307440281,1488507679.3332419395,        0.6191406250,        0.0053710938,       -0.1333007812,        0.6866455078,       -1.0986328125,       -0.9307861328
1488507679.3335170746,1488507679.3358170986,        0.6191406250,        0.0053710938,       -0.1333007812,        0.8850097656,       -1.0833740234,       -0.9307861328
1488507679.3360919952,1488507679.3383851051,        0.6157226562,        0.0048828125,       -0.1279296875,        0.8850097656,       -1.0833740234,       -0.9307861328
1488507679.3386590481,1488507679.3409628868,        0.6157226562,        0.0048828125,       -0.1279296875,        1.3427734375,       -0.9307861328,       -1.2817382812
1488507679.3412370682,1488507679.3436560631,        0.6157226562,        0.0048828125,       -0.1279296875,        1.3427734375,       -0.9307861328,       -1.2817382812
1488507679.3439350128,1488507679.3463160992,        0.6157226562,        0.0048828125,       -0.1279296875,        1.2207031250,       -1.3275146484,       -1.6937255859
1488507679.3467020988,1488507679.3490779400,        0.6093750000,        0.0141601562,       -0.1274414062,        1.2207031250,       -1.3275146484,       -1.6937255859
1488507679.3493580818,1488507679.3520169258,        0.6093750000,        0.0141601562,       -0.1274414062,        1.6479492188,       -1.2664794922,       -1.8005371094
1488507679.3523008823,1488507679.3547239304,        0.6093750000,        0.0141601562,       -0.1274414062,        1.6479492188,       -1.2664794922,       -1.8005371094
1488507679.3550059795,1488507679.3574209213,        0.6093750000,        0.0141601562,       -0.1362304688,        1.2817382812,       -1.2512207031,       -1.6937255859
1488507679.3577020168,1488507679.3601200581,        0.6108398438,        0.0122070312,       -0.1362304688,        1.2817382812,       -1.2512207031,       -1.6937255859
1488507679.3604021072,1488507679.3627669811,        0.6108398438,        0.0122070312,       -0.1362304688,        0.7934570312,       -1.4038085938,       -1.4801025391
1488507679.3630421162,1488507679.3653318882,        0.6108398438,        0.0122070312,       -0.1362304688,        0.7934570312,       -1.4038085938,       -1.4801025391
1488507679.3656051159,1488507679.3679029942,        0.6118164062,        0.0107421875,       -0.1245117188,        0.3967285156,       -1.2664794922,       -1.4343261719
1488507679.3681769371,1488507679.3704700470,        0.6118164062,        0.0107421875,       -0.1245117188,        0.3967285156,       -1.2664794922,       -1.4343261719
1488507679.3707449436,1488507679.3731510639,        0.6118164062,        0.0107421875,       -0.1245117188,        0.9155273438,       -1.0070800781,       -1.0833740234
1488507679.3734340668,1488507679.3758580685,        0.6118164062,        0.0107421875,       -0.1245117188,        0.9155273438,       -1.0070800781,       -1.0833740234
1488507679.3761389256,1488507679.3785529137,        0.6142578125,        0.0043945312,       -0.1313476562,        1.2207031250,       -1.0681152344,       -1.3275146484
1488507679.3788349628,1488507679.3812510967,        0.6142578125,        0.0043945312,       -0.1313476562,        1.2207031250,       -1.0681152344,       -1.3275146484
1488507679.3815310001,1488507679.3838539124,        0.6142578125,        0.0043945312,       -0.1313476562,        1.0528564453,       -0.9155273438,       -1.4495849609
1488507679.3841280937,1488507679.3864200115,        0.6142578125,        0.0043945312,       -0.1313476562,        1.0528564453,       -0.9155273438,       -1.4495849609
1488507679.3866961002,1488507679.3889899254,        0.6142578125,        0.0058593750,       -0.1372070312,        1.2207031250,       -0.7171630859,       -1.4038085938
1488507679.3892650604,1488507679.3915541172,        0.6142578125,        0.0058593750,       -0.1372070312,        1.2207031250,       -0.7171630859,       -1.4038085938
1488507679.3918271065,1488507679.3941199780,        0.6142578125,        0.0058593750,       -0.1372070312,        1.3275146484,       -0.7476806641,       -1.4190673828
1488507679.3943951130,1488507679.3966910839,        0.6142578125,        0.0058593750,       -0.1372070312,        1.3275146484,       -0.7476806641,       -1.4190673828
1488507679.3969659805,1488507679.3992609978,        0.6147460938,        0.0102539062,       -0.1289062500,        1.3275146484,       -1.1901855469,       -1.6479492188
1488507679.3995330334,1488507679.4018568993,        0.6147460938,        0.0102539062,       -0.1289062500,        1.0986328125,       -1.1901855469,       -1.6479492188
1488507679.4021320343,1488507679.4044280052,        0.6147460938,        0.0102539062,       -0.1289062500,        1.0986328125,       -1.0986328125,       -1.8615722656
1488507679.4047019482,1488507679.4069950581,        0.6147460938,        0.0102539062,       -0.1289062500,        1.1138916016,       -1.0986328125,       -1.8615722656
1488507679.4072680473,1488507679.4095690250,        0.6186523438,        0.0190429688,       -0.1362304688,        1.1138916016,       -1.0986328125,       -1.7547607422
1488507679.4099409580,1488507679.4123919010,        0.6186523438,        0.0190429688,       -0.1362304688,        0.6561279297,       -1.2664794922,       -1.7547607422
1488507679.4126670361,1488507679.4149599075,        0.6186523438,        0.0190429688,       -0.1362304688,        0.6561279297,       -1.2664794922,       -1.4953613281
1488507679.4152340889,1488507679.4175379276,        0.6186523438,        0.0190429688,       -0.1298828125,        0.7476806641,       -0.7781982422,       -1.4953613281
1488507679.4178149700,1488507679.4201030731,        0.6079101562,        0.0156250000,       -0.1298828125,        0.7476806641,       -0.7781982422,       -1.4953613281
1488507679.4203810692,1488507679.4227359295,        0.6079101562,        0.0156250000,       -0.1298828125,        0.6561279297,       -0.9918212891,       -1.1138916016
1488507679.4230151176,1488507679.4254031181,        0.6079101562,        0.0156250000,       -0.1298828125,        0.6561279297,       -0.9918212891,       -1.1138916016
1488507679.4256820679,1488507679.4280610085,        0.6079101562,        0.0156250000,       -0.1215820312,        0.8087158203,       -0.8850097656,       -1.2512207031
1488507679.4283640385,1488507679.4307858944,        0.6123046875,        0.0058593750,       -0.1215820312,        0.8087158203,       -0.8850097656,       -1.2512207031
1488507679.4310688972,1488507679.4335319996,        0.6123046875,        0.0058593750,       -0.1215820312,        0.9002685547,       -0.8544921875,       -1.6937255859
1488507679.4338159561,1488507679.4362308979,        0.6123046875,        0.0058593750,       -0.1215820312,        0.9002685547,       -0.8544921875,       -1.6937255859
1488507679.4365150928,1488507679.4389359951,        0.6186523438,        0.0180664062,       -0.1264648438,        0.5187988281,       -0.9765625000,       -1.8920898438
1488507679.4392180443,1488507679.4416348934,        0.6186523438,        0.0180664062,       -0.1264648438,        0.5187988281,       -0.9765625000,       -1.8920898438
1488507679.4419660568,1488507679.4443840981,        0.6186523438,        0.0180664062,       -0.1264648438,        0.6256103516,       -0.7934570312,       -1.4801025391
1488507679.4446649551,1488507679.4470899105,        0.6186523438,        0.0180664062,       -0.1264648438,        0.6256103516,       -0.7934570312,       -1.4801025391
1488507679.4473719597,1488507679.4497909546,        0.6142578125,        0.0151367188,       -0.1293945312,        0.5950927734,       -0.4882812500,       -1.2817382812
1488507679.4500749111,1488507679.4525110722,        0.6142578125,        0.0151367188,       -0.1293945312,        0.5950927734,       -0.4882812500,       -1.2817382812
1488507679.4527928829,1488507679.4552071095,        0.6142578125,        0.0151367188,       -0.1293945312,        0.4425048828,       -0.9307861328,       -1.4038085938
1488507679.4554860592,1488507679.4579019547,        0.6142578125,        0.0151367188,       -0.0043945312,        0.4425048828,       -0.9307861328,       -1.4038085938
1488507679.4581840038,1488507679.4606020451,        0.6123046875,        0.0117187500,       -0.1210937500,        0.5340576172,       -0.7324218750,       -1.1596679688
1488507679.4608869553,1488507679.4632360935,        0.6123046875,        0.0117187500,       -0.1210937500,        0.5340576172,       -0.7324218750,       -1.1596679688
1488507679.4635090828,1488507679.4658029079,        0.6123046875,        0.0117187500,       -0.1210937500,        0.5645751953,       -0.7629394531,       -0.9002685547
1488507679.4660809040,1488507679.4685120583,        0.6123046875,        0.0117187500,       -0.1215820312,        0.5645751953,       -0.7629394531,       -0.9002685547
1488507679.4687910080,1488507679.4710869789,        0.6108398438,        0.0097656250,       -0.1215820312,        0.0000000000,       -0.7476806641,       -1.0986328125
1488507679.4713640213,1488507679.4739971161,        0.6108398438,        0.0097656250,       -0.1215820312,        0.0000000000,       -0.7476806641,       -1.0986328125
1488507679.4742810726,1488507679.4767000675,        0.6108398438,        0.0097656250,       -0.1215820312,       -0.2136230469,       -0.5187988281,       -0.8697509766
1488507679.4770920277,1488507679.4795050621,        0.6206054688,        0.0117187500,       -0.1293945312,       -0.2136230469,       -0.5187988281,       -0.8697509766
1488507679.4797871113,1488507679.4822158813,        0.6206054688,        0.0117187500,       -0.1293945312,        0.4119873047,       -0.6103515625,       -0.9307861328
1488507679.4825000763,1488507679.4849140644,        0.6206054688,        0.0117187500,       -0.1293945312,        0.4119873047,       -0.6103515625,       -0.9307861328
1488507679.4851961136,1488507679.4876151085,        0.6206054688,        0.0117187500,       -0.1293945312,        0.7476806641,       -0.8392333984,       -0.7781982422
1488507679.4878950119,1488507679.4903120995,        0.6108398438,        0.0180664062,       -0.1298828125,        0.7476806641,       -0.8392333984,       -0.7781982422
1488507679.4905960560,1488507679.4930200577,        0.6108398438,        0.0180664062,       -0.1298828125,        1.0375976562,       -0.8697509766,       -1.1444091797
1488507679.4933009148,1488507679.4957199097,        0.6108398438,        0.0180664062,       -0.1298828125,        1.0375976562,       -0.8697509766,       -1.1444091797
1488507679.4960041046,1488507679.4984169006,        0.6108398438,        0.0180664062,       -0.1298828125,        0.7629394531,       -1.0681152344,       -1.4953613281
1488507679.4986970425,1488507679.5011110306,        0.6093750000,        0.0112304688,       -0.1298828125,        0.7629394531,       -1.0681152344,       -1.4953613281
1488507679.5013918877,1488507679.5037219524,        0.6093750000,        0.0112304688,       -0.1298828125,        0.6713867188,       -0.7781982422,       -1.2969970703
1488507679.5039989948,1488507679.5062880516,        0.6093750000,        0.0112304688,       -0.1298828125,        0.6713867188,       -0.7781982422,       -1.2969970703
1488507679.5065629482,1488507679.5088629723,        0.6093750000,        0.0014648438,       -0.1313476562,        0.6561279297,       -0.9002685547,       -1.4495849609
1488507679.5091381073,1488507679.5114281178,        0.6225585938,        0.0014648438,       -0.1313476562,        0.6561279297,       -0.9002685547,       -1.4495849609
1488507679.5117299557,1488507679.5140249729,        0.6225585938,        0.0014648438,       -0.1313476562,        0.8850097656,       -0.8087158203,       -1.7089843750
1488507679.5142989159,1488507679.5165979862,        0.6225585938,        0.0014648438,       -0.1313476562,        0.8850097656,       -0.8087158203,       -1.7089843750
1488507679.5168728828,1488507679.5191628933,        0.6225585938,        0.0112304688,       -0.1274414062,        0.6713867188,       -0.8544921875,       -1.9683837891
1488507679.5194349289,1488507679.5218551159,        0.6191406250,        0.0112304688,       -0.1274414062,        0.6713867188,       -0.8544921875,       -1.9683837891
1488507679.5221319199,1488507679.5244319439,        0.6191406250,        0.0112304688,       -0.1274414062,        0.6713867188,       -0.7781982422,       -1.7089843750
1488507679.5247070789,1488507679.5269980431,        0.6191406250,        0.0112304688,       -0.1274414062,        0.9918212891,       -0.7781982422,       -1.7089843750
1488507679.5272729397,1488507679.5295729637,        0.6142578125,        0.0117187500,       -0.1201171875,        0.9918212891,       -0.7781982422,       -1.6021728516
1488507679.5298469067,1488507679.5323059559,        0.6142578125,        0.0117187500,       -0.1201171875,        1.0223388672,       -0.6866455078,       -1.6021728516
1488507679.5325820446,1488507679.5348811150,        0.6142578125,        0.0117187500,       -0.1201171875,        1.0223388672,       -0.6866455078,       -1.6174316406
1488507679.5351550579,1488507679.5374510288,        0.6142578125,        0.0117187500,       -0.1201171875,        0.3204345703,       -1.0375976562,       -1.6174316406
1488507679.5377240181,1488507679.5400140285,        0.6171875000,        0.0175781250,       -0.1303710938,        0.3204345703,       -1.0375976562,       -1.3580322266
1488507679.5403940678,1488507679.5428678989,        0.6171875000,        0.0175781250,       -0.1303710938,        0.0457763672,       -1.0223388672,       -1.3580322266
1488507679.5431480408,1488507679.5455300808,        0.6171875000,        0.0175781250,       -0.1303710938,        0.0457763672,       -1.0223388672,       -1.6784667969
1488507679.5458109379,1488507679.5484480858,        0.6171875000,        0.0175781250,       -0.1303710938,        0.2441406250,       -0.9002685547,       -1.6784667969
1488507679.5487248898,1488507679.5510149002,        0.6093750000,        0.0190429688,       -0.1362304688,        0.2441406250,       -0.9002685547,       -1.2207031250
1488507679.5512900352,1488507679.5536699295,        0.6093750000,        0.0190429688,       -0.1362304688,        0.1220703125,       -0.6713867188,       -1.2207031250
1488507679.5539450645,1488507679.5562379360,        0.6093750000,        0.0190429688,       -0.1362304688,        0.1220703125,       -0.6713867188,       -1.2207031250
1488507679.5565130711,1488507679.5587999821,        0.6093750000,        0.0190429688,       -0.1362304688,        0.2441406250,       -1.0070800781,       -1.4495849609
1488507679.5590729713,1488507679.5613660812,        0.6059570312,        0.0107421875,       -0.1313476562,        0.2441406250,       -1.0070800781,       -1.4495849609
1488507679.5616409779,1488507679.5639760494,        0.6059570312,        0.0107421875,       -0.1313476562,        0.1525878906,       -0.9765625000,       -1.4648437500
1488507679.5642509460,1488507679.5665390491,        0.6059570312,        0.0107421875,       -0.1313476562,        0.1525878906,       -0.9765625000,       -1.4648437500
1488507679.5668129921,1488507679.5691030025,        0.6059570312,        0.0107421875,       -0.1303710938,       -0.0762939453,       -0.7934570312,       -1.5563964844
1488507679.5693769455,1488507679.5717179775,        0.6176757812,        0.0126953125,       -0.1303710938,       -0.0762939453,       -0.7934570312,       -1.5563964844
1488507679.5719931126,1488507679.5742781162,        0.6176757812,        0.0126953125,       -0.1303710938,       -0.3356933594,       -0.5950927734,       -1.3885498047
1488507679.5745530128,1488507679.5768370628,        0.6176757812,        0.0126953125,       -0.1303710938,       -0.3356933594,       -0.5950927734,       -1.3885498047
1488507679.5771141052,1488507679.5793979168,        0.6176757812,        0.0126953125,       -0.1274414062,        0.0305175781,       -0.6256103516,       -0.9918212891
1488507679.5796740055,1488507679.5819718838,        0.6123046875,        0.0161132812,       -0.1274414062,        0.0305175781,       -0.6256103516,       -0.9918212891
1488507679.5822460651,1488507679.5845389366,        0.6123046875,        0.0161132812,       -0.1274414062,       -0.4882812500,       -0.5493164062,       -0.8850097656
1488507679.5848150253,1488507679.5871050358,        0.6123046875,        0.0161132812,       -0.1274414062,       -0.4882812500,       -0.5493164062,       -0.8850097656
1488507679.5873799324,1488507679.5896689892,        0.6123046875,        0.0166015625,       -0.1166992188,       -0.4882812500,       -0.5035400391,       -1.0528564453
1488507679.5899438858,1488507679.5924260616,        0.6147460938,        0.0166015625,       -0.1166992188,       -0.3509521484,       -0.5035400391,       -1.0528564453
1488507679.5927009583,1488507679.5949900150,        0.6147460938,        0.0166015625,       -0.1166992188,       -0.3509521484,       -0.8239746094,       -1.3885498047
1488507679.5952649117,1488507679.5975489616,        0.6147460938,        0.0166015625,       -0.1166992188,        0.0305175781,       -0.8239746094,       -1.3885498047
1488507679.5978229046,1488507679.6001141071,        0.6147460938,        0.0190429688,       -0.1206054688,        0.0305175781,       -0.8239746094,       -1.5716552734
1488507679.6003890038,1488507679.6028010845,        0.6020507812,        0.0190429688,       -0.1206054688,       -0.3509521484,       -0.7324218750,       -1.5716552734
1488507679.6031858921,1488507679.6054759026,        0.6020507812,        0.0190429688,       -0.1206054688,       -0.3509521484,       -0.7324218750,       -1.1596679688
1488507679.6057529449,1488507679.6080379486,        0.6020507812,        0.0190429688,       -0.1206054688,       -0.1678466797,       -0.6256103516,       -1.1596679688
1488507679.6083140373,1488507679.6106009483,        0.6118164062,        0.0024414062,       -0.1269531250,       -0.1678466797,       -0.6256103516,       -1.1596679688
1488507679.6108760834,1488507679.6132190228,        0.6118164062,        0.0024414062,       -0.1269531250,       -0.2288818359,       -0.4425048828,       -0.7019042969
1488507679.6134951115,1488507679.6157820225,        0.6118164062,        0.0024414062,       -0.1269531250,       -0.2288818359,       -0.4425048828,       -0.7019042969
1488507679.6160559654,1488507679.6183431149,        0.6118164062,        0.0024414062,       -0.1269531250,       -0.1220703125,       -0.3967285156,       -1.1444091797
1488507679.6186180115,1488507679.6209089756,        0.6103515625,        0.0185546875,       -0.1303710938,       -0.1220703125,       -0.3967285156,       -1.1444091797
1488507679.6211819649,1488507679.6234779358,        0.6103515625,        0.0185546875,       -0.1303710938,        0.5340576172,       -0.7781982422,       -1.4648437500
1488507679.6237530708,1488507679.6260418892,        0.6103515625,        0.0185546875,       -0.1303710938,        0.5340576172,       -0.7781982422,       -1.4648437500
1488507679.6263160706,1488507679.6286060810,        0.6103515625,        0.0185546875,       -0.1303710938,        0.9307861328,       -0.7476806641,       -1.2359619141
1488507679.6288809776,1488507679.6311690807,        0.6225585938,        0.0063476562,       -0.1323242188,        0.9307861328,       -0.7476806641,       -1.2359619141
1488507679.6314449310,1488507679.6338899136,        0.6225585938,        0.0063476562,       -0.1323242188,        0.2593994141,       -0.7629394531,       -1.0833740234
1488507679.6341741085,1488507679.6366260052,        0.6225585938,        0.0063476562,       -0.1323242188,        0.2593994141,       -0.7629394531,       -1.0833740234
1488507679.6369040012,1488507679.6391990185,        0.6225585938,        0.0063476562,       -0.1323242188,        0.6561279297,       -0.5798339844,       -1.2054443359
1488507679.6394739151,1488507679.6418480873,        0.6093750000,        0.0063476562,       -0.1220703125,        0.6561279297,       -0.5798339844,       -1.2054443359
1488507679.6421430111,1488507679.6445400715,        0.6093750000,        0.0063476562,       -0.1220703125,        0.9155273438,       -0.5950927734,       -1.3122558594
1488507679.6448230743,1488507679.6472160816,        0.6093750000,        0.0063476562,       -0.1220703125,        0.9155273438,       -0.5950927734,       -1.3122558594
1488507679.6475570202,1488507679.6501240730,        0.6093750000,        0.0063476562,       -0.1274414062,        0.5645751953,       -0.7781982422,       -1.6174316406
1488507679.6504020691,1488507679.6527190208,        0.6127929688,        0.0112304688,       -0.1274414062,        0.5645751953,       -0.7781982422,       -1.6174316406
1488507679.6529929638,1488507679.6552898884,        0.6127929688,        0.0112304688,       -0.1274414062,        1.0986328125,       -0.6256103516,       -1.6784667969
1488507679.6555631161,1488507679.6578500271,        0.6127929688,        0.0112304688,       -0.1274414062,        1.0986328125,       -0.6256103516,       -1.6784667969
1488507679.6581249237,1488507679.6604180336,        0.6127929688,        0.0019531250,       -0.1367187500,        1.0986328125,       -0.8697509766,       -2.1362304688
1488507679.6606929302,1488507679.6630270481,        0.6176757812,        0.0019531250,       -0.1367187500,        1.0375976562,       -0.8697509766,       -2.1362304688
1488507679.6633009911,1488507679.6655929089,        0.6176757812,        0.0019531250,       -0.1367187500,        1.0375976562,       -0.8697509766,       -2.3956298828
1488507679.6659760475,1488507679.6682729721,        0.6176757812,        0.0019531250,       -0.1367187500,        1.1444091797,       -0.6561279297,       -2.3956298828
1488507679.6685469151,1488507679.6708309650,        0.6171875000,        0.0034179688,       -0.1318359375,        1.1444091797,       -0.6561279297,       -2.5482177734
1488507679.6711061001,1488507679.6734468937,        0.6171875000,        0.0034179688,       -0.1318359375,        1.1901855469,       -0.5340576172,       -2.5482177734
1488507679.6737229824,1488507679.6760170460,        0.6171875000,        0.0034179688,       -0.1318359375,        1.1901855469,       -0.5340576172,       -2.5482177734
1488507679.6762919426,1488507679.6785800457,        0.6171875000,        0.0034179688,       -0.1318359375,        1.2969970703,       -0.7476806641,       -3.0059814453
1488507679.6788549423,1488507679.6811449528,        0.6162109375,        0.0004882812,       -0.1308593750,        1.2969970703,       -0.7476806641,       -3.0059814453
1488507679.6814179420,1488507679.6837089062,        0.6162109375,        0.0004882812,       -0.1308593750,        1.4343261719,       -0.6408691406,       -2.8839111328
1488507679.6839830875,1488507679.6862690449,        0.6162109375,        0.0004882812,       -0.1308593750,        1.4343261719,       -0.6408691406,       -2.8839111328
1488507679.6865420341,1488507679.6888360977,        0.6162109375,        0.0004882812,       -0.1308593750,        1.6937255859,       -0.9765625000,       -3.2958984375
1488507679.6891090870,1488507679.6913979053,        0.6176757812,       -0.0043945312,       -0.1264648438,        1.6937255859,       -0.9765625000,       -3.2958984375
1488507679.6918230057,1488507679.6941189766,        0.6176757812,       -0.0043945312,       -0.1264648438,        1.8005371094,       -0.6561279297,       -3.6315917969
1488507679.6943941116,1488507679.6966919899,        0.6176757812,       -0.0043945312,       -0.1264648438,        1.8005371094,       -0.6561279297,       -3.6315917969
1488507679.6969649792,1488507679.6992568970,        0.6176757812,       -0.0043945312,       -0.1264648438,        1.7089843750,       -0.4119873047,       -3.7536621094
1488507679.6995310783,1488507679.7018520832,        0.6083984375,        0.0034179688,       -0.1308593750,        1.7089843750,       -0.4119873047,       -3.7536621094
1488507679.7021350861,1488507679.7045540810,        0.6083984375,        0.0034179688,       -0.1308593750,        1.3580322266,       -0.6561279297,       -4.6081542969
1488507679.7048370838,1488507679.7072560787,        0.6083984375,        0.0034179688,       -0.1308593750,        1.3580322266,       -0.6561279297,       -4.6081542969
1488507679.7075359821,1488507679.7099590302,        0.6083984375,        0.0034179688,       -0.1308593750,        0.8544921875,       -0.6408691406,       -5.0659179688
1488507679.7102420330,1488507679.7126519680,        0.6020507812,       -0.0019531250,       -0.1298828125,        0.8544921875,       -0.6408691406,       -5.0659179688
1488507679.7129290104,1488507679.7152171135,        0.6020507812,       -0.0019531250,       -0.1298828125,        0.9307861328,       -0.6713867188,       -5.5084228516
1488507679.7154929638,1488507679.7177920341,        0.6020507812,       -0.0019531250,       -0.1298828125,        0.9307861328,       -0.6713867188,       -5.5084228516
1488507679.7180669308,1488507679.7203559875,        0.6020507812,       -0.0019531250,       -0.1298828125,        0.9307861328,       -0.8544921875,       -5.9661865234
1488507679.7206299305,1488507679.7230169773,        0.6123046875,        0.0102539062,       -0.1308593750,        0.3814697266,       -0.8544921875,       -5.9661865234
1488507679.7232990265,1488507679.7257230282,        0.6123046875,        0.0102539062,       -0.1308593750,        0.3814697266,       -0.3509521484,       -6.5612792969
1488507679.7260050774,1488507679.7284190655,        0.6123046875,        0.0102539062,       -0.1308593750,       -0.7781982422,       -0.3509521484,       -6.5612792969
1488507679.7288069725,1488507679.7312328815,        0.6123046875,        0.0273437500,       -0.1323242188,       -0.7781982422,       -0.2593994141,       -7.0190429688
1488507679.7315170765,1488507679.7339460850,        0.6201171875,        0.0273437500,       -0.1323242188,       -1.4648437500,       -0.2593994141,       -7.0190429688
1488507679.7342278957,1488507679.7366430759,        0.6201171875,        0.0273437500,       -0.1323242188,       -1.4648437500,       -0.4119873047,       -6.9274902344
1488507679.7369229794,1488507679.7393438816,        0.6201171875,        0.0273437500,       -0.1323242188,       -1.7852783203,       -0.4119873047,       -6.9274902344
1488507679.7396240234,1488507679.7420470715,        0.6137695312,        0.0112304688,       -0.1171875000,       -1.7852783203,        0.0000000000,       -7.1105957031
1488507679.7423279285,1488507679.7447528839,        0.6137695312,        0.0112304688,       -0.1171875000,       -1.6937255859,        0.0000000000,       -7.1105957031
1488507679.7450358868,1488507679.7474479675,        0.6137695312,        0.0112304688,       -0.1171875000,       -1.6937255859,       -0.1220703125,       -7.0037841797
1488507679.7477309704,1488507679.7501499653,        0.6137695312,        0.0112304688,       -0.1171875000,       -1.8310546875,       -0.1220703125,       -7.0037841797
1488507679.7504320145,1488507679.7529149055,        0.6083984375,       -0.0043945312,       -0.1313476562,       -1.8310546875,       -0.3356933594,       -7.4157714844
1488507679.7531960011,1488507679.7556130886,        0.6083984375,       -0.0043945312,       -0.1313476562,       -1.5106201172,       -0.3356933594,       -7.4157714844
1488507679.7558939457,1488507679.7584650517,        0.6083984375,       -0.0043945312,       -0.1313476562,       -1.5106201172,       -0.3814697266,       -8.0566406250
1488507679.7587480545,1488507679.7611548901,        0.6083984375,       -0.0043945312,       -0.1381835938,       -0.7934570312,       -0.3814697266,       -8.0566406250
1488507679.7618510723,1488507679.7641470432,        0.6020507812,        0.0078125000,       -0.1381835938,       -0.2899169922,       -0.2136230469,       -8.5906982422
1488507679.7644250393,1488507679.7667229176,        0.6020507812,        0.0078125000,       -0.1381835938,       -0.2899169922,       -0.2136230469,       -8.5906982422
1488507679.7669990063,1488507679.7692949772,        0.6020507812,        0.0078125000,       -0.1381835938,        3.6163330078,       -0.5493164062,       -8.5449218750
1488507679.7695689201,1488507679.7719190121,        0.6123046875,        0.0253906250,       -0.1333007812,        0.3356933594,       -0.5493164062,       -8.5449218750
1488507679.7722039223,1488507679.7746279240,        0.6123046875,        0.0253906250,       -0.1333007812,        0.3356933594,       -0.3814697266,       -8.5296630859
1488507679.7749099731,1488507679.7773261070,        0.6123046875,        0.0253906250,       -0.1333007812,        0.1678466797,       -0.3814697266,       -8.5296630859
1488507679.7776110172,1488507679.7800300121,        0.6123046875,        0.0253906250,       -0.1333007812,        0.1678466797,       -0.3814697266,       -8.3312988281
1488507679.7803130150,1488507679.7827401161,        0.6220703125,        0.0419921875,       -0.1337890625,       -0.1525878906,       -0.2593994141,       -8.3312988281
1488507679.7830231190,1488507679.7854371071,        0.6220703125,        0.0419921875,       -0.1337890625,       -0.1525878906,        3.6468505859,       -8.0718994141
1488507679.7857201099,1488507679.7881429195,        0.6220703125,        0.0419921875,       -0.1337890625,       -0.6408691406,        0.0305175781,       -8.0718994141
1488507679.7884240150,1488507679.7908380032,        0.6220703125,        0.0419921875,       -0.1337890625,       -0.6408691406,        0.0305175781,       -7.8735351562
1488507679.7911200523,1488507679.7934539318,        0.6201171875,        0.0449218750,       -0.1230468750,       -1.3732910156,        0.3967285156,       -7.8735351562
1488507679.7938370705,1488507679.7961399555,        0.6201171875,        0.0449218750,       -0.1230468750,       -1.3732910156,        0.3967285156,       -7.5225830078
1488507679.7964138985,1488507679.7987070084,        0.6201171875,        0.0449218750,       -0.1230468750,       -1.9378662109,        0.1983642578,       -7.5225830078
1488507679.7989809513,1488507679.8012819290,        0.6201171875,        0.0449218750,       -0.1210937500,       -1.9378662109,        0.1983642578,       -7.1716308594
1488507679.8015561104,1488507679.8038508892,        0.6015625000,        0.0336914062,       -0.1210937500,       -2.3651123047,        0.5493164062,       -7.1716308594
1488507679.8041260242,1488507679.8064179420,        0.6015625000,        0.0336914062,       -0.1210937500,       -2.3651123047,        0.5493164062,       -7.1716308594
1488507679.8066930771,1488507679.8089859486,        0.6015625000,        0.0336914062,       -0.1210937500,       -2.6245117188,        0.1525878906,       -6.8817138672
1488507679.8092610836,1488507679.8115539551,        0.6015625000,        0.0336914062,       -0.1259765625,       -2.6245117188,        0.1525878906,       -6.8817138672
1488507679.8119308949,1488507679.8142380714,        0.6079101562,        0.0268554688,       -0.1259765625,       -2.6550292969,        0.1831054688,       -7.5988769531
1488507679.8145120144,1488507679.8168060780,        0.6079101562,        0.0268554688,       -0.1259765625,       -2.6550292969,        0.1831054688,       -7.5988769531
1488507679.8170809746,1488507679.8193700314,        0.6079101562,        0.0268554688,       -0.1259765625,       -2.7770996094,        0.1220703125,       -7.9650878906
1488507679.8196458817,1488507679.8220400810,        0.6079101562,        0.0122070312,       -0.1240234375,       -2.7770996094,        0.1220703125,       -7.9650878906
1488507679.8223230839,1488507679.8247249126,        0.6064453125,        0.0122070312,       -0.1240234375,       -2.8533935547,       -0.0915527344,       -8.3770751953
1488507679.8250060081,1488507679.8274090290,        0.6064453125,        0.0122070312,       -0.1240234375,       -2.8533935547,       -0.0915527344,       -8.3770751953
1488507679.8276910782,1488507679.8300950527,        0.6064453125,        0.0122070312,       -0.1240234375,       -3.0670166016,       -0.5340576172,      -10.0097656250
1488507679.8303821087,1488507679.8327889442,        0.5991210938,       -0.0034179688,       -0.1230468750,       -3.0670166016,       -0.5340576172,      -10.0097656250
1488507679.8330750465,1488507679.8354699612,        0.5991210938,       -0.0034179688,       -0.1230468750,       -2.4108886719,       -0.7171630859,      -10.7727050781
1488507679.8357579708,1488507679.8381578922,        0.5991210938,       -0.0034179688,       -0.1230468750,       -2.4108886719,       -0.7171630859,      -10.7727050781
1488507679.8384439945,1488507679.8408429623,        0.5991210938,       -0.0034179688,       -0.1230468750,       -1.9989013672,       -0.9155273438,      -11.9018554688
1488507679.8411281109,1488507679.8435420990,        0.6035156250,       -0.0117187500,       -0.1220703125,       -1.9989013672,       -0.9155273438,      -11.9018554688
1488507679.8438270092,1488507679.8462259769,        0.6035156250,       -0.0117187500,       -0.1220703125,       -1.6937255859,       -1.2817382812,      -13.5650634766
1488507679.8465099335,1488507679.8489110470,        0.6035156250,       -0.0117187500,       -0.1220703125,       -1.6937255859,       -1.2817382812,      -13.5650634766
1488507679.8491950035,1488507679.8515939713,        0.6035156250,       -0.0117187500,       -0.1220703125,       -1.3580322266,       -2.5939941406,      -15.5181884766
1488507679.8519260883,1488507679.8542170525,        0.6083984375,       -0.0380859375,       -0.0991210938,       -1.3580322266,       -2.5939941406,      -15.5181884766
1488507679.8544950485,1488507679.8567841053,        0.6083984375,       -0.0380859375,       -0.0991210938,        0.0915527344,       -4.2114257812,      -17.2729492188
1488507679.8571729660,1488507679.8594710827,        0.6083984375,       -0.0380859375,       -0.0991210938,        0.0915527344,       -4.2114257812,      -17.2729492188
1488507679.8597490788,1488507679.8621768951,        0.6083984375,       -0.0380859375,       -0.0751953125,        0.7324218750,       -5.4168701172,      -18.9056396484
1488507679.8624649048,1488507679.8648869991,        0.6284179688,       -0.0590820312,       -0.0751953125,        0.7324218750,       -5.4168701172,      -18.9056396484
1488507679.8651731014,1488507679.8675870895,        0.6284179688,       -0.0590820312,       -0.0751953125,        1.9989013672,       -6.2561035156,      -20.1721191406
1488507679.8678719997,1488507679.8702840805,        0.6284179688,       -0.0590820312,       -0.0751953125,        1.9989013672,       -6.2561035156,      -20.1721191406
1488507679.8705708981,1488507679.8730061054,        0.6474609375,       -0.0048828125,       -0.0883789062,        3.0670166016,       -6.8664550781,      -22.1710205078
1488507679.8732910156,1488507679.8756730556,        0.6474609375,       -0.0048828125,       -0.0883789062,        3.0670166016,       -6.8664550781,      -22.1710205078
1488507679.8759570122,1488507679.8784461021,        0.6474609375,       -0.0048828125,       -0.0883789062,        6.9732666016,       -7.7056884766,      -24.1699218750
1488507679.8787319660,1488507679.8811419010,        0.6474609375,       -0.0048828125,       -0.0883789062,        4.4555664062,       -7.7056884766,      -24.1699218750
1488507679.8818550110,1488507679.8842709064,        0.6293945312,        0.0200195312,       -0.1030273438,        4.8370361328,       -8.3618164062,      -25.2685546875
1488507679.8845601082,1488507679.8869800568,        0.6293945312,        0.0200195312,       -0.1030273438,        4.8370361328,       -8.3618164062,      -25.2685546875
1488507679.8872659206,1488507679.8896830082,        0.6293945312,        0.0200195312,       -0.1030273438,        3.7536621094,       -9.2315673828,      -26.4892578125
1488507679.8899679184,1488507679.8924009800,        0.6293945312,        0.0200195312,       -0.1064453125,        3.7536621094,       -9.2315673828,      -26.4892578125
1488507679.8926880360,1488507679.8951048851,        0.6186523438,        0.0166015625,       -0.1064453125,        2.0599365234,      -10.1623535156,      -27.7099609375
1488507679.8953959942,1488507679.8978090286,        0.6186523438,        0.0166015625,       -0.1064453125,        2.0599365234,      -10.1623535156,      -27.7099609375
1488507679.8980979919,1488507679.9005188942,        0.6186523438,        0.0166015625,       -0.1064453125,        1.1138916016,      -10.5743408203,      -28.7933349609
1488507679.9008080959,1488507679.9032320976,        0.6186523438,        0.0166015625,       -0.1020507812,        1.1138916016,      -10.5743408203,      -28.7933349609
1488507679.9035210609,1488507679.9059360027,        0.6123046875,        0.0166015625,       -0.1020507812,        0.7324218750,      -10.8947753906,      -29.7393798828
1488507679.9062259197,1488507679.9086539745,        0.6123046875,        0.0166015625,       -0.1020507812,        0.7324218750,      -10.8947753906,      -29.7393798828
1488507679.9089438915,1488507679.9113609791,        0.6123046875,        0.0166015625,       -0.1020507812,        0.6561279297,      -11.3372802734,      -30.9448242188
1488507679.9116508961,1488507679.9139850140,        0.6181640625,        0.0004882812,       -0.1137695312,        0.6561279297,      -11.3372802734,      -30.9448242188
1488507679.9142680168,1488507679.9165680408,        0.6181640625,        0.0004882812,       -0.1137695312,        1.9989013672,      -11.6424560547,      -32.4096679688
1488507679.9168479443,1488507679.9191389084,        0.6181640625,        0.0004882812,       -0.1137695312,        1.9989013672,      -11.6424560547,      -32.4096679688
1488507679.9194190502,1488507679.9217460155,        0.6181640625,        0.0004882812,       -0.1137695312,        5.9051513672,      -10.8032226562,      -33.9660644531
1488507679.9221360683,1488507679.9244310856,        0.5971679688,       -0.0166015625,       -0.1323242188,        4.4250488281,      -10.8032226562,      -33.9660644531
1488507679.9247119427,1488507679.9270050526,        0.5971679688,       -0.0166015625,       -0.1323242188,        4.4250488281,      -10.9252929688,      -35.6445312500
1488507679.9272871017,1488507679.9295840263,        0.5971679688,       -0.0166015625,       -0.1323242188,        7.6141357422,      -10.9252929688,      -35.6445312500
1488507679.9298660755,1488507679.9322569370,        0.5971679688,       -0.0166015625,       -0.1323242188,        7.6141357422,      -10.9252929688,      -37.0941162109
1488507679.9325399399,1488507679.9348309040,        0.5664062500,        0.0249023438,       -0.1503906250,       10.1928710938,      -10.9558105469,      -37.0941162109
1488507679.9351189137,1488507679.9374170303,        0.5664062500,        0.0249023438,       -0.1503906250,       10.1928710938,      -10.9558105469,      -37.6281738281
1488507679.9377040863,1488507679.9400000572,        0.5664062500,        0.0249023438,       -0.1503906250,       12.5122070312,      -10.8795166016,      -37.6281738281
1488507679.9402849674,1488507679.9426569939,        0.5664062500,        0.0249023438,       -0.1503906250,       12.5122070312,      -10.8795166016,      -37.6281738281
1488507679.9429509640,1488507679.9453680515,        0.5483398438,        0.1132812500,       -0.1533203125,       13.0462646484,      -10.8337402344,      -37.8112792969
1488507679.9456579685,1488507679.9480750561,        0.5483398438,        0.1132812500,       -0.1533203125,       13.0462646484,      -10.8337402344,      -37.8112792969
1488507679.9483680725,1488507679.9507899284,        0.5483398438,        0.1132812500,       -0.1533203125,       11.6882324219,      -11.5966796875,      -37.9333496094
1488507679.9510819912,1488507679.9535079002,        0.5483398438,        0.1318359375,       -0.1567382812,       11.6882324219,      -11.5966796875,      -37.9333496094
1488507679.9537999630,1488507679.9562160969,        0.5561523438,        0.1318359375,       -0.1567382812,        8.5449218750,      -12.3291015625,      -37.9791259766
1488507679.9565050602,1488507679.9589300156,        0.5561523438,        0.1318359375,       -0.1567382812,        8.5449218750,      -12.3291015625,      -37.9791259766
1488507679.9592170715,1488507679.9616289139,        0.5561523438,        0.1318359375,       -0.1567382812,        4.3182373047,      -12.9852294922,      -38.2232666016
1488507679.9619820118,1488507679.9644029140,        0.5747070312,        0.0903320312,       -0.1308593750,        4.3182373047,      -12.9852294922,      -38.2232666016
1488507679.9646909237,1488507679.9671111107,        0.5747070312,        0.0903320312,       -0.1308593750,        0.7781982422,      -14.0228271484,      -38.7268066406
1488507679.9674019814,1488507679.9698169231,        0.5747070312,        0.0903320312,       -0.1308593750,        0.7781982422,      -14.0228271484,      -38.7268066406
1488507679.9701058865,1488507679.9725070000,        0.5747070312,        0.0903320312,       -0.1308593750,       -1.3580322266,      -14.9078369141,      -39.8406982422
1488507679.9727900028,1488507679.9750790596,        0.6171875000,        0.0214843750,       -0.1010742188,       -1.3580322266,      -14.9078369141,      -39.8406982422
1488507679.9753639698,1488507679.9776539803,        0.6171875000,        0.0214843750,       -0.1010742188,       -2.6550292969,      -16.1743164062,      -41.6564941406
1488507679.9779360294,1488507679.9802329540,        0.6171875000,        0.0214843750,       -0.1010742188,       -2.6550292969,      -16.1743164062,      -41.6564941406
1488507679.9805150032,1488507679.9829330444,        0.6171875000,        0.0214843750,       -0.1010742188,       -2.8839111328,      -17.9748535156,      -43.9758300781
1488507679.9832220078,1488507679.9856441021,        0.6196289062,       -0.0004882812,       -0.0800781250,       -2.8839111328,      -17.9748535156,      -43.9758300781
1488507679.9860498905,1488507679.9884700775,        0.6196289062,       -0.0004882812,       -0.0800781250,       -0.9765625000,      -20.1263427734,      -45.9136962891
1488507679.9887599945,1488507679.9911758900,        0.6196289062,       -0.0004882812,       -0.0800781250,       -0.9765625000,      -20.1263427734,      -45.9136962891
1488507679.9914650917,1488507679.9939219952,        0.6196289062,        0.0263671875,       -0.0644531250,        1.4801025391,      -22.1405029297,      -48.1567382812
1488507679.9942119122,1488507679.9966299534,        0.6337890625,        0.0263671875,       -0.0644531250,        1.4801025391,      -22.1405029297,      -48.1567382812
1488507679.9969179630,1488507679.9994170666,        0.6337890625,        0.0263671875,       -0.0644531250,        3.9367675781,      -22.8271484375,      -50.0946044922
1488507679.9997079372,1488507680.0021219254,        0.6337890625,        0.0263671875,       -0.0644531250,        3.9367675781,      -22.8271484375,      -50.0946044922
1488507680.0028378963,1488507680.0052549839,        0.6513671875,        0.0019531250,       -0.0507812500,        5.5999755859,      -22.4151611328,      -52.7191162109
1488507680.0055439472,1488507680.0079710484,        0.6513671875,        0.0019531250,       -0.0507812500,        5.5999755859,      -22.4151611328,      -56.6253662109
1488507680.0082609653,1488507680.0106809139,        0.6513671875,        0.0019531250,       -0.0507812500,        8.5906982422,      -22.4151611328,      -55.1452636719
1488507680.0109720230,1488507680.0133230686,        0.6513671875,        0.0019531250,       -0.1176757812,        8.5906982422,      -22.4151611328,      -55.1452636719
1488507680.0136070251,1488507680.0158979893,        0.6157226562,       -0.0200195312,       -0.1176757812,       13.9312744141,      -23.3612060547,      -58.0749511719
1488507680.0161828995,1488507680.0184760094,        0.6157226562,       -0.0200195312,       -0.1176757812,       13.9312744141,      -23.3612060547,      -58.0749511719
1488507680.0187609196,1488507680.0210599899,        0.6157226562,       -0.0200195312,       -0.1176757812,       19.5617675781,      -24.1546630859,      -60.5468750000
1488507680.0213439465,1488507680.0237579346,        0.6157226562,        0.1049804688,       -0.1601562500,       19.5617675781,      -24.1546630859,      -60.5468750000
1488507680.0240490437,1488507680.0264649391,        0.5917968750,        0.0258789062,       -0.1601562500,       24.4445800781,      -24.1241455078,      -61.4318847656
1488507680.0267560482,1488507680.0291769505,        0.5917968750,        0.0258789062,       -0.1601562500,       24.4445800781,      -24.1241455078,      -61.4318847656
1488507680.0294690132,1488507680.0319180489,        0.5917968750,        0.0258789062,       -0.1601562500,       29.1900634766,      -22.8424072266,      -61.1877441406
1488507680.0322039127,1488507680.0345039368,        0.5439453125,        0.0478515625,       -0.1577148438,       29.1900634766,      -22.8424072266,      -61.1877441406
1488507680.0347890854,1488507680.0370819569,        0.5439453125,        0.0478515625,       -0.1577148438,       32.7148437500,      -22.3846435547,      -60.7299804688
1488507680.0373659134,1488507680.0396571159,        0.5439453125,        0.0478515625,       -0.1577148438,       32.7148437500,      -22.3846435547,      -60.7299804688
1488507680.0399401188,1488507680.0422890186,        0.5439453125,        0.0478515625,       -0.1577148438,       36.1328125000,      -21.9421386719,      -59.6771240234
1488507680.0425729752,1488507680.0448710918,        0.4707031250,        0.1791992188,       -0.2070312500,       36.1328125000,      -21.9421386719,      -59.6771240234
1488507680.0451529026,1488507680.0474460125,        0.4707031250,        0.1791992188,       -0.2070312500,       40.4052734375,      -22.4609375000,      -57.1441650391
1488507680.0477290154,1488507680.0500330925,        0.4707031250,        0.1791992188,       -0.2070312500,       40.4052734375,      -22.4609375000,      -57.1441650391
1488507680.0504250526,1488507680.0528500080,        0.4707031250,        0.1791992188,       -0.2070312500,       42.5720214844,      -22.6898193359,      -52.5207519531
1488507680.0531370640,1488507680.0554399490,        0.4868164062,        0.3706054688,       -0.2822265625,       42.5720214844,      -22.6898193359,      -52.5207519531
1488507680.0557250977,1488507680.0580160618,        0.4868164062,        0.3706054688,       -0.2822265625,       39.6728515625,      -22.3846435547,      -46.8292236328
1488507680.0583000183,1488507680.0605919361,        0.4868164062,        0.3706054688,       -0.2822265625,       39.6728515625,      -22.3846435547,      -46.8292236328
1488507680.0608749390,1488507680.0632019043,        0.4868164062,        0.3706054688,       -0.2822265625,       31.8603515625,      -22.0489501953,      -41.7022705078
1488507680.0634849072,1488507680.0657820702,        0.5776367188,        0.4648437500,       -0.3085937500,       31.5704345703,      -22.0489501953,      -41.7022705078
1488507680.0660650730,1488507680.0683610439,        0.5776367188,        0.4648437500,       -0.3085937500,       31.5704345703,      -22.0489501953,      -36.5295410156
1488507680.0686450005,1488507680.0709450245,        0.5776367188,        0.4648437500,       -0.3085937500,       19.2108154297,      -20.6909179688,      -36.5295410156
1488507680.0712289810,1488507680.0736300945,        0.5776367188,        0.4648437500,       -0.3085937500,       19.2108154297,      -20.6909179688,      -32.3181152344
1488507680.0739219189,1488507680.0763390064,        0.6621093750,        0.3769531250,       -0.2617187500,        6.0272216797,      -19.0277099609,      -32.3181152344
1488507680.0766279697,1488507680.0790410042,        0.6621093750,        0.3769531250,       -0.2617187500,        6.0272216797,      -19.0277099609,      -29.4494628906
1488507680.0793280602,1488507680.0817520618,        0.6621093750,        0.3769531250,       -0.2617187500,       -4.8675537109,      -17.1661376953,      -29.4494628906
1488507680.0820400715,1488507680.0844609737,        0.6621093750,        0.1269531250,       -0.2065429688,       -4.8675537109,      -17.1661376953,      -28.2745361328
1488507680.0847480297,1488507680.0871660709,        0.6918945312,        0.1459960938,       -0.2065429688,      -11.7492675781,      -15.7470703125,      -28.2745361328
1488507680.0874590874,1488507680.0898759365,        0.6918945312,        0.1459960938,       -0.2065429688,      -11.7492675781,      -15.7470703125,      -29.4342041016
1488507680.0901689529,1488507680.0925610065,        0.6918945312,        0.1459960938,       -0.2065429688,      -12.7868652344,      -15.5181884766,      -29.4342041016
1488507680.0928449631,1488507680.0951430798,        0.6430664062,        0.0000000000,       -0.1640625000,      -12.7868652344,      -15.5181884766,      -33.3404541016
1488507680.0954270363,1488507680.0977280140,        0.6430664062,        0.0000000000,       -0.1640625000,       -8.8653564453,      -15.8843994141,      -32.0281982422
1488507680.0980091095,1488507680.1003029346,        0.6430664062,        0.0000000000,       -0.1640625000,       -8.8653564453,      -15.8843994141,      -32.0281982422
1488507680.1005840302,1488507680.1030631065,        0.6430664062,        0.0000000000,       -0.1640625000,       -3.9520263672,      -15.8996582031,      -35.4156494141
1488507680.1033539772,1488507680.1057639122,        0.6245117188,       -0.0087890625,       -0.1220703125,       -3.9520263672,      -15.8996582031,      -35.4156494141
1488507680.1060550213,1488507680.1084558964,        0.6245117188,       -0.0087890625,       -0.1220703125,        2.0599365234,      -15.0451660156,      -38.0249023438
1488507680.1087479591,1488507680.1111490726,        0.6245117188,       -0.0087890625,       -0.1220703125,        2.0599365234,      -15.0451660156,      -38.0249023438
1488507680.1114389896,1488507680.1138219833,        0.6245117188,       -0.0087890625,       -0.1220703125,        9.8114013672,      -14.0838623047,      -40.3289794922
1488507680.1142060757,1488507680.1165020466,        0.5415039062,        0.0644531250,       -0.1445312500,        9.8114013672,      -14.0838623047,      -40.3289794922
1488507680.1167850494,1488507680.1192231178,        0.5415039062,        0.0644531250,       -0.1445312500,       17.3339843750,      -14.7247314453,      -42.9840087891
1488507680.1195120811,1488507680.1218860149,        0.5415039062,        0.0644531250,       -0.1445312500,       17.3339843750,      -14.7247314453,      -42.9840087891
1488507680.1221899986,1488507680.1246199608,        0.5415039062,        0.0644531250,       -0.2177734375,       22.5372314453,      -15.8843994141,      -44.6166992188
1488507680.1249148846,1488507680.1273350716,        0.5483398438,        0.2167968750,       -0.2177734375,       22.5372314453,      -15.8843994141,      -44.6166992188
1488507680.1276259422,1488507680.1300449371,        0.5483398438,        0.2167968750,       -0.2177734375,       23.9257812500,      -17.3339843750,      -44.1894531250
1488507680.1303339005,1488507680.1327660084,        0.5483398438,        0.2167968750,       -0.2177734375,       23.9257812500,      -17.3339843750,      -44.1894531250
1488507680.1330559254,1488507680.1354739666,        0.6733398438,        0.3159179688,       -0.2197265625,       20.4162597656,      -17.4255371094,      -42.6483154297
1488507680.1357638836,1488507680.1381759644,        0.6328125000,        0.3159179688,       -0.2197265625,       20.4162597656,      -17.4255371094,      -42.6483154297
1488507680.1384658813,1488507680.1408898830,        0.6328125000,        0.3159179688,       -0.2197265625,       13.3514404297,      -17.1051025391,      -40.9545898438
1488507680.1411819458,1488507680.1436090469,        0.6328125000,        0.3159179688,       -0.2197265625,       13.3514404297,      -17.1051025391,      -40.9545898438
1488507680.1438999176,1488507680.1463139057,        0.6303710938,        0.2519531250,       -0.1879882812,        5.8288574219,      -16.7999267578,      -40.4205322266
1488507680.1466031075,1488507680.1490209103,        0.6303710938,        0.2519531250,       -0.1879882812,        5.8288574219,      -16.7999267578,      -40.4205322266
1488507680.1493079662,1488507680.1517300606,        0.6303710938,        0.2519531250,       -0.1879882812,        0.0152587891,      -16.0675048828,      -41.1834716797
1488507680.1520109177,1488507680.1543109417,        0.6303710938,        0.2519531250,       -0.1879882812,        0.0152587891,      -16.0675048828,      -41.1834716797
1488507680.1545929909,1488507680.1568861008,        0.5678710938,        0.1064453125,       -0.1591796875,       -2.4108886719,      -15.1367187500,      -41.9006347656
1488507680.1571679115,1488507680.1594600677,        0.5678710938,        0.1064453125,       -0.1591796875,       -2.4108886719,      -15.1367187500,      -41.9006347656
1488507680.1597409248,1488507680.1621038914,        0.5678710938,        0.1064453125,       -0.1591796875,       -1.4190673828,      -14.2364501953,      -43.8690185547
1488507680.1623868942,1488507680.1646790504,        0.5678710938,        0.1064453125,       -0.1591796875,       -1.4190673828,      -14.2364501953,      -43.8690185547
1488507680.1649589539,1488507680.1672489643,        0.4990234375,        0.0214843750,       -0.1982421875,        4.4403076172,      -14.8773193359,      -46.4782714844
1488507680.1675310135,1488507680.1698229313,        0.4990234375,        0.0214843750,       -0.1982421875,        4.4403076172,      -14.8773193359,      -46.4782714844
1488507680.1701049805,1488507680.1724450588,        0.4990234375,        0.0214843750,       -0.1982421875,       12.5885009766,      -16.0064697266,      -48.9196777344
1488507680.1727290154,1488507680.1750290394,        0.4990234375,        0.0214843750,       -0.2758789062,       12.5885009766,      -16.0064697266,      -48.9196777344
1488507680.1753139496,1488507680.1776099205,        0.5541992188,        0.0966796875,       -0.2758789062,       16.4947509766,      -16.7999267578,      -50.8117675781
1488507680.1778950691,1488507680.1801919937,        0.5541992188,        0.0966796875,       -0.2758789062,       17.6696777344,      -16.7999267578,      -50.8117675781
1488507680.1805830002,1488507680.1830520630,        0.5541992188,        0.0966796875,       -0.2758789062,       17.6696777344,      -15.7012939453,      -52.0172119141
1488507680.1833450794,1488507680.1857669353,        0.5541992188,        0.1821289062,       -0.2475585938,       18.9208984375,      -15.7012939453,      -52.0172119141
1488507680.1860609055,1488507680.1884820461,        0.5991210938,        0.1821289062,       -0.2475585938,       18.9208984375,      -13.8092041016,      -52.8564453125
1488507680.1887741089,1488507680.1911950111,        0.5991210938,        0.1821289062,       -0.2475585938,       18.6767578125,      -13.8092041016,      -52.8564453125
1488507680.1914849281,1488507680.1939089298,        0.5991210938,        0.1821289062,       -0.2475585938,       18.6767578125,      -12.9089355469,      -53.5583496094
1488507680.1942000389,1488507680.1966230869,        0.5620117188,        0.1909179688,       -0.2709960938,       17.7612304688,      -12.9089355469,      -53.5583496094
1488507680.1969130039,1488507680.1993319988,        0.5620117188,        0.1909179688,       -0.2709960938,       17.7612304688,      -12.7716064453,      -54.3212890625
1488507680.1996250153,1488507680.2020499706,        0.5620117188,        0.1909179688,       -0.2709960938,       16.1743164062,      -12.7716064453,      -54.3212890625
1488507680.2023410797,1488507680.2047650814,        0.5620117188,        0.1909179688,       -0.2709960938,       12.2680664062,      -11.9934082031,      -55.1605224609
1488507680.2050569057,1488507680.2074739933,        0.5107421875,        0.1333007812,       -0.2197265625,       14.3585205078,      -11.9934082031,      -55.1605224609
1488507680.2077660561,1488507680.2101850510,        0.5107421875,        0.1333007812,       -0.2197265625,       14.3585205078,      -11.0931396484,      -56.8542480469
1488507680.2104771137,1488507680.2128450871,        0.5107421875,        0.1333007812,       -0.2197265625,       13.8397216797,      -11.0931396484,      -56.8542480469
1488507680.2131309509,1488507680.2154250145,        0.5107421875,        0.1333007812,       -0.2265625000,       13.8397216797,      -11.0931396484,      -59.1583251953
1488507680.2157111168,1488507680.2180058956,        0.4809570312,        0.1103515625,       -0.2265625000,       15.3350830078,      -11.6119384766,      -59.1583251953
1488507680.2182919979,1488507680.2205820084,        0.4809570312,        0.1103515625,       -0.2265625000,       15.3350830078,      -11.6119384766,      -60.8367919922
1488507680.2208669186,1488507680.2232489586,        0.4809570312,        0.1103515625,       -0.2265625000,       17.3645019531,      -13.0767822266,      -60.8367919922
1488507680.2235410213,1488507680.2259669304,        0.4809570312,        0.2353515625,       -0.2431640625,       17.3645019531,      -13.0767822266,      -60.9436035156
1488507680.2262570858,1488507680.2286710739,        0.5620117188,        0.2036132812,       -0.2431640625,       17.4255371094,      -14.4348144531,      -60.9436035156
1488507680.2289628983,1488507680.2313759327,        0.5620117188,        0.2036132812,       -0.2431640625,       17.4255371094,      -14.4348144531,      -60.8978271484
1488507680.2317008972,1488507680.2341361046,        0.5620117188,        0.2036132812,       -0.2431640625,       16.5405273438,      -15.3503417969,      -60.8978271484
1488507680.2344279289,1488507680.2368459702,        0.6127929688,        0.2587890625,       -0.1987304688,       16.5405273438,      -15.3503417969,      -61.6912841797
1488507680.2371370792,1488507680.2396070957,        0.6127929688,        0.2587890625,       -0.1987304688,       13.7176513672,      -15.5944824219,      -61.6912841797
1488507680.2399010658,1488507680.2426280975,        0.6127929688,        0.2587890625,       -0.1987304688,       13.7176513672,      -15.5944824219,      -63.2781982422
1488507680.2429220676,1488507680.2453401089,        0.6127929688,        0.2587890625,       -0.1987304688,       10.7879638672,      -15.8233642578,      -63.2781982422
1488507680.2457399368,1488507680.2481610775,        0.5893554688,        0.2363281250,       -0.1552734375,       10.7879638672,      -15.8233642578,      -64.6667480469
1488507680.2484519482,1488507680.2508718967,        0.5893554688,        0.2363281250,       -0.1552734375,        6.9885253906,      -16.9067382812,      -64.6667480469
1488507680.2511610985,1488507680.2535979748,        0.5893554688,        0.2363281250,       -0.1552734375,        6.9885253906,      -16.9067382812,      -65.5670166016
1488507680.2538859844,1488507680.2563021183,        0.5893554688,        0.1440429688,       -0.1191406250,        3.9520263672,      -18.0969238281,      -65.5670166016
1488507680.2565920353,1488507680.2590029240,        0.5629882812,        0.1440429688,       -0.1191406250,        3.9520263672,      -18.0969238281,      -66.6503906250
1488507680.2592918873,1488507680.2617230415,        0.5629882812,        0.1440429688,       -0.1191406250,        3.0670166016,      -19.4244384766,      -66.6503906250
1488507680.2620050907,1488507680.2642960548,        0.5629882812,        0.1440429688,       -0.1191406250,        3.0670166016,      -23.3306884766,      -68.8476562500
1488507680.2645781040,1488507680.2668681145,        0.5268554688,        0.1616210938,       -0.1352539062,        4.7454833984,      -21.3623046875,      -68.8476562500
1488507680.2671480179,1488507680.2694439888,        0.5268554688,        0.1616210938,       -0.1352539062,        4.7454833984,      -21.3623046875,      -70.2362060547
1488507680.2697250843,1488507680.2720251083,        0.5268554688,        0.1616210938,       -0.1352539062,        6.6070556641,      -23.9868164062,      -70.2362060547
1488507680.2723050117,1488507680.2746040821,        0.5268554688,        0.1616210938,       -0.1352539062,        6.6070556641,      -23.9868164062,      -70.2362060547
1488507680.2748839855,1488507680.2771780491,        0.5629882812,        0.2436523438,       -0.1591796875,        8.2092285156,      -25.8026123047,      -70.7855224609
1488507680.2774589062,1488507680.2797539234,        0.5629882812,        0.2436523438,       -0.1591796875,        8.2092285156,      -25.8026123047,      -70.7855224609
1488507680.2800350189,1488507680.2823419571,        0.5629882812,        0.2436523438,       -0.1591796875,        9.0026855469,      -26.6113281250,      -70.5108642578
1488507680.2826230526,1488507680.2849159241,        0.5629882812,        0.2436523438,       -0.1591796875,        9.0026855469,      -26.6113281250,      -70.5108642578
1488507680.2852001190,1488507680.2874898911,        0.5273437500,        0.2915039062,       -0.1684570312,        8.4686279297,      -27.0690917969,      -71.2127685547
1488507680.2877719402,1488507680.2900729179,        0.5273437500,        0.2915039062,       -0.1684570312,        8.4686279297,      -27.0690917969,      -71.2127685547
1488507680.2903549671,1488507680.2927989960,        0.5273437500,        0.2915039062,       -0.1684570312,        9.1552734375,      -28.1524658203,      -72.3724365234
1488507680.2930810452,1488507680.2953751087,        0.5273437500,        0.2915039062,       -0.1684570312,        9.1552734375,      -28.1524658203,      -72.3724365234
1488507680.2956569195,1488507680.2979459763,        0.5004882812,        0.2680664062,       -0.2285156250,        9.4146728516,      -29.3426513672,      -72.2961425781
1488507680.2982261181,1488507680.3005189896,        0.5004882812,        0.2680664062,       -0.2285156250,        9.4146728516,      -29.3426513672,      -72.2961425781
1488507680.3007988930,1488507680.3032550812,        0.5004882812,        0.2680664062,       -0.2285156250,        8.1787109375,      -27.8167724609,      -70.8007812500
1488507680.3035449982,1488507680.3059599400,        0.5004882812,        0.2680664062,       -0.2285156250,        8.1787109375,      -27.8167724609,      -70.8007812500
1488507680.3062479496,1488507680.3086609840,        0.5292968750,        0.2788085938,       -0.2641601562,        6.1187744141,      -25.6958007812,      -70.4040527344
1488507680.3090579510,1488507680.3114819527,        0.5292968750,        0.2788085938,       -0.2641601562,        6.1187744141,      -25.6958007812,      -70.4040527344
1488507680.3117799759,1488507680.3140730858,        0.5292968750,        0.2788085938,       -0.2641601562,        5.5236816406,      -25.1617431641,      -70.7550048828
1488507680.3143539429,1488507680.3166561127,        0.5292968750,        0.2788085938,       -0.2602539062,        5.5236816406,      -25.1617431641,      -70.7550048828
1488507680.3169369698,1488507680.3192269802,        0.4687500000,        0.2988281250,       -0.2602539062,        7.0953369141,      -25.2532958984,      -70.6024169922
1488507680.3195068836,1488507680.3218080997,        0.4687500000,        0.2988281250,       -0.2602539062,        7.0953369141,      -25.2532958984,      -70.6024169922
1488507680.3220961094,1488507680.3245189190,        0.4687500000,        0.2988281250,       -0.2602539062,        7.0953369141,      -25.1922607422,      -68.9544677734
1488507680.3248069286,1488507680.3272171021,        0.4687500000,        0.3574218750,       -0.2880859375,        6.7749023438,      -25.1922607422,      -68.9544677734
1488507680.3275060654,1488507680.3299229145,        0.4604492188,        0.3574218750,       -0.2880859375,        6.7749023438,      -23.2543945312,      -67.4743652344
1488507680.3302121162,1488507680.3326320648,        0.4604492188,        0.3574218750,       -0.2880859375,        5.3558349609,      -23.2543945312,      -67.4743652344
1488507680.3329219818,1488507680.3353369236,        0.4604492188,        0.3574218750,       -0.2880859375,        5.3558349609,      -21.8963623047,      -66.3757324219
1488507680.3356258869,1488507680.3380489349,        0.5087890625,        0.3872070312,       -0.2573242188,        2.5024414062,      -21.8963623047,      -66.3757324219
1488507680.3383378983,1488507680.3407509327,        0.5087890625,        0.3872070312,       -0.2573242188,        2.5024414062,      -21.3775634766,      -66.2994384766
1488507680.3410410881,1488507680.3435010910,        0.5087890625,        0.3872070312,       -0.2573242188,       -1.0070800781,      -21.3775634766,      -66.2994384766
1488507680.3437900543,1488507680.3462090492,        0.5087890625,        0.3872070312,       -0.2573242188,       -1.0070800781,      -21.0876464844,      -65.6433105469
1488507680.3464970589,1488507680.3489129543,        0.5537109375,        0.3847656250,       -0.2543945312,       -4.2877197266,      -21.0876464844,      -65.6433105469
1488507680.3492009640,1488507680.3516170979,        0.5537109375,        0.3847656250,       -0.2543945312,       -4.2877197266,      -20.5993652344,      -64.2852783203
1488507680.3519549370,1488507680.3543770313,        0.5537109375,        0.3847656250,       -0.2543945312,       -7.2021484375,      -20.5993652344,      -64.2852783203
1488507680.3546669483,1488507680.3570868969,        0.5537109375,        0.3847656250,       -0.2143554688,       -7.2021484375,      -19.9890136719,      -63.4613037109
1488507680.3573760986,1488507680.3598001003,        0.5507812500,        0.4013671875,       -0.2143554688,      -10.1165771484,      -19.9890136719,      -63.4613037109
1488507680.3600940704,1488507680.3625988960,        0.5507812500,        0.4013671875,       -0.2143554688,      -10.1165771484,      -20.9960937500,      -63.1866455078
1488507680.3628840446,1488507680.3654370308,        0.5507812500,        0.4013671875,       -0.2143554688,      -11.2915039062,      -20.9960937500,      -63.1866455078
1488507680.3657219410,1488507680.3680150509,        0.5698242188,        0.3818359375,       -0.1850585938,      -15.1977539062,      -20.4925537109,      -61.7523193359
1488507680.3682999611,1488507680.3705849648,        0.5698242188,        0.3818359375,       -0.1850585938,      -12.9852294922,      -20.4925537109,      -61.7523193359
1488507680.3708689213,1488507680.3732540607,        0.5698242188,        0.3818359375,       -0.1850585938,      -12.9852294922,      -16.5863037109,      -59.9822998047
1488507680.3736579418,1488507680.3760728836,        0.5698242188,        0.3818359375,       -0.1850585938,      -14.3585205078,      -19.1192626953,      -59.9822998047
1488507680.3763649464,1488507680.3787798882,        0.5708007812,        0.3779296875,       -0.2138671875,      -14.3585205078,      -19.1192626953,      -58.5327148438
1488507680.3790709972,1488507680.3814949989,        0.5708007812,        0.3779296875,       -0.2138671875,      -13.5192871094,      -18.0664062500,      -58.5327148438
1488507680.3817939758,1488507680.3842110634,        0.5708007812,        0.3779296875,       -0.2138671875,      -13.5192871094,      -18.0664062500,      -56.9305419922
1488507680.3845040798,1488507680.3869171143,        0.5708007812,        0.3779296875,       -0.2138671875,      -11.4593505859,      -18.0206298828,      -56.9305419922
1488507680.3872070312,1488507680.3896300793,        0.4526367188,        0.4023437500,       -0.2480468750,      -11.4593505859,      -18.0206298828,      -55.5572509766
1488507680.3899199963,1488507680.3923189640,        0.4526367188,        0.4023437500,       -0.2480468750,       -9.8419189453,      -17.3034667969,      -55.5572509766
1488507680.3926000595,1488507680.3948988914,        0.4526367188,        0.4023437500,       -0.2480468750,       -9.8419189453,      -17.3034667969,      -53.4973144531
1488507680.3951799870,1488507680.3974719048,        0.4526367188,        0.4023437500,       -0.2880859375,       -9.2773437500,      -16.1285400391,      -53.4973144531
1488507680.3977549076,1488507680.4000480175,        0.4428710938,        0.4584960938,       -0.2880859375,       -9.2773437500,      -16.1285400391,      -53.4973144531
1488507680.4003319740,1488507680.4026720524,        0.4428710938,        0.4584960938,       -0.2880859375,       -9.2620849609,      -15.3808593750,      -50.8880615234
1488507680.4029529095,1488507680.4052479267,        0.4428710938,        0.4584960938,       -0.2880859375,       -9.2620849609,      -15.3808593750,      -50.8880615234
1488507680.4055299759,1488507680.4078199863,        0.4428710938,        0.4970703125,       -0.2827148438,      -10.9710693359,      -13.7176513672,      -48.0499267578
1488507680.4081060886,1488507680.4104049206,        0.4770507812,        0.4970703125,       -0.2827148438,      -10.9710693359,      -13.7176513672,      -48.0499267578
1488507680.4106891155,1488507680.4131519794,        0.4770507812,        0.4970703125,       -0.2827148438,      -13.6566162109,      -12.5122070312,      -45.0439453125
1488507680.4134359360,1488507680.4157359600,        0.4770507812,        0.4970703125,       -0.2827148438,      -13.6566162109,      -12.5122070312,      -45.0439453125
1488507680.4160199165,1488507680.4183139801,        0.4443359375,        0.4433593750,       -0.2421875000,      -14.8010253906,      -12.1002197266,      -42.0227050781
1488507680.4185969830,1488507680.4208889008,        0.4443359375,        0.4433593750,       -0.2421875000,      -14.8010253906,      -12.1002197266,      -42.0227050781
1488507680.4211740494,1488507680.4236979485,        0.4443359375,        0.4433593750,       -0.2421875000,      -14.4042968750,      -13.0920410156,      -39.3981933594
1488507680.4239900112,1488507680.4263889790,        0.4443359375,        0.4433593750,       -0.2421875000,      -14.4042968750,      -13.0920410156,      -39.3981933594
1488507680.4266788960,1488507680.4290759563,        0.4755859375,        0.4907226562,       -0.2348632812,      -13.2904052734,      -14.4653320312,      -36.1480712891
1488507680.4293661118,1488507680.4317839146,        0.4755859375,        0.4907226562,       -0.2348632812,      -13.2904052734,      -14.4653320312,      -36.1480712891
1488507680.4320750237,1488507680.4344749451,        0.4755859375,        0.4907226562,       -0.2348632812,      -13.1683349609,      -13.5498046875,      -32.9895019531
1488507680.4347651005,1488507680.4371719360,        0.4755859375,        0.4907226562,       -0.2348632812,      -13.1683349609,      -13.5498046875,      -32.9895019531
1488507680.4375710487,1488507680.4399740696,        0.4907226562,        0.5063476562,       -0.2343750000,      -13.7481689453,      -12.8784179688,      -29.4494628906
1488507680.4402649403,1488507680.4427039623,        0.4907226562,        0.5063476562,       -0.2343750000,      -13.7481689453,      -12.8784179688,      -29.4494628906
1488507680.4429929256,1488507680.4453999996,        0.4907226562,        0.5063476562,       -0.2343750000,      -13.5345458984,      -12.5427246094,      -25.3753662109
1488507680.4456880093,1488507680.4480850697,        0.4907226562,        0.3813476562,       -0.2587890625,      -13.5345458984,      -12.5427246094,      -25.3753662109
1488507680.4483740330,1488507680.4507761002,        0.4150390625,        0.4794921875,       -0.2587890625,      -13.8702392578,      -12.3291015625,      -21.4385986328
1488507680.4510650635,1488507680.4535160065,        0.4150390625,        0.4794921875,       -0.2587890625,      -13.8702392578,      -12.3291015625,      -21.4385986328
1488507680.4538049698,1488507680.4562048912,        0.4150390625,        0.4794921875,       -0.2587890625,      -14.2822265625,      -10.9405517578,      -17.9290771484
1488507680.4564950466,1488507680.4589030743,        0.4218750000,        0.4570312500,       -0.3115234375,      -14.2822265625,      -10.9405517578,      -17.9290771484
1488507680.4591929913,1488507680.4615879059,        0.4218750000,        0.4570312500,       -0.3115234375,      -16.2811279297,       -9.0332031250,      -14.6026611328
1488507680.4619290829,1488507680.4643270969,        0.4218750000,        0.4570312500,       -0.3115234375,      -16.2811279297,       -9.0332031250,      -14.6026611328
1488507680.4646151066,1488507680.4670228958,        0.4218750000,        0.4570312500,       -0.3115234375,      -18.4478759766,       -6.5612792969,      -10.5743408203
1488507680.4673089981,1488507680.4697089195,        0.4067382812,        0.4423828125,       -0.3266601562,      -18.4478759766,       -6.5612792969,      -10.5743408203
1488507680.4699959755,1488507680.4724159241,        0.4067382812,        0.4423828125,       -0.3266601562,      -21.0876464844,       -5.2032470703,       -6.9427490234
1488507680.4727020264,1488507680.4751210213,        0.4067382812,        0.4423828125,       -0.3266601562,      -21.0876464844,       -5.2032470703,       -6.9427490234
1488507680.4754049778,1488507680.4779009819,        0.4067382812,        0.4423828125,       -0.3266601562,      -23.7579345703,       -5.2337646484,       -2.8228759766
1488507680.4781920910,1488507680.4806089401,        0.3769531250,        0.5000000000,       -0.3164062500,      -23.7579345703,       -5.2337646484,       -2.8228759766
1488507680.4808950424,1488507680.4837520123,        0.3769531250,        0.5000000000,       -0.3164062500,      -26.2298583984,       -7.2479248047,        1.8768310547
1488507680.4840400219,1488507680.4864630699,        0.3769531250,        0.5000000000,       -0.3164062500,      -26.2298583984,       -7.2479248047,        1.8768310547
1488507680.4867470264,1488507680.4891719818,        0.4160156250,        0.5219726562,       -0.3012695312,      -28.7017822266,       -8.5754394531,        6.6833496094
1488507680.4894568920,1488507680.4919190407,        0.4160156250,        0.5219726562,       -0.3012695312,      -28.7017822266,       -8.5754394531,        6.6833496094
1488507680.4922039509,1488507680.4946250916,        0.4160156250,        0.5219726562,       -0.3012695312,      -30.8227539062,       -8.6212158203,       11.6271972656
1488507680.4949150085,1488507680.4973349571,        0.4160156250,        0.5219726562,       -0.3012695312,      -30.8227539062,       -8.6212158203,       11.6271972656
1488507680.4976229668,1488507680.5000360012,        0.4736328125,        0.5014648438,       -0.3056640625,      -31.6619873047,       -6.5155029297,       16.4031982422
1488507680.5003240108,1488507680.5027589798,        0.4736328125,        0.5014648438,       -0.3056640625,      -31.6619873047,       -6.5155029297,       16.4031982422
1488507680.5031549931,1488507680.5055749416,        0.4736328125,        0.5014648438,       -0.3056640625,      -29.3121337891,       -4.3945312500,       21.5911865234
1488507680.5058629513,1488507680.5082840919,        0.4736328125,        0.5014648438,       -0.3056640625,      -29.3121337891,       -4.3945312500,       21.5911865234
1488507680.5085749626,1488507680.5109889507,        0.5458984375,        0.4614257812,       -0.3173828125,      -26.0925292969,       -3.6315917969,       26.0620117188
1488507680.5112779140,1488507680.5135989189,        0.5458984375,        0.4614257812,       -0.3173828125,      -26.0925292969,       -3.6315917969,       26.0620117188
1488507680.5138809681,1488507680.5161778927,        0.5458984375,        0.4614257812,       -0.3173828125,      -24.4445800781,       -0.9765625000,       30.1361083984
1488507680.5164599419,1488507680.5187499523,        0.5458984375,        0.5864257812,       -0.3725585938,      -24.4445800781,       -0.9765625000,       30.1361083984
1488507680.5190320015,1488507680.5213251114,        0.5512695312,        0.5253906250,       -0.3725585938,      -24.2767333984,        1.9073486328,       34.8205566406
1488507680.5216050148,1488507680.5239090919,        0.5512695312,        0.5253906250,       -0.3725585938,      -24.2767333984,        1.9073486328,       34.8205566406
1488507680.5241889954,1488507680.5264840126,        0.5512695312,        0.5253906250,       -0.3725585938,      -25.9094238281,        5.6304931641,       40.7714843750
1488507680.5267651081,1488507680.5290579796,        0.5512695312,        0.6269531250,       -0.4077148438,      -25.9094238281,        5.6304931641,       40.7714843750
1488507680.5293378830,1488507680.5316340923,        0.5537109375,        0.6269531250,       -0.4077148438,      -28.3050537109,        8.9874267578,       47.8668212891
1488507680.5320949554,1488507680.5343830585,        0.5537109375,        0.6269531250,       -0.4077148438,      -28.3050537109,        8.9874267578,       47.8668212891
1488507680.5346651077,1488507680.5369579792,        0.5537109375,        0.6269531250,       -0.4077148438,      -32.2723388672,       13.0767822266,       54.7790527344
1488507680.5372419357,1488507680.5395350456,        0.6381835938,        0.5727539062,       -0.4238281250,      -32.2723388672,       13.0767822266,       54.7790527344
1488507680.5398170948,1488507680.5422489643,        0.6381835938,        0.5727539062,       -0.4238281250,      -32.2723388672,       18.3105468750,       62.0269775391
1488507680.5425410271,1488507680.5449628830,        0.6381835938,        0.5727539062,       -0.4238281250,      -36.1175537109,       18.3105468750,       62.0269775391
1488507680.5452549458,1488507680.5476698875,        0.6381835938,        0.5727539062,       -0.4238281250,      -36.1175537109,       22.9644775391,       69.3664550781
1488507680.5479629040,1488507680.5503818989,        0.7011718750,        0.6391601562,       -0.4311523438,      -38.1774902344,       22.9644775391,       69.3664550781
1488507680.5506761074,1488507680.5531039238,        0.7011718750,        0.6391601562,       -0.4311523438,      -38.1774902344,       27.8625488281,       77.4078369141
1488507680.5533978939,1488507680.5558209419,        0.7011718750,        0.6391601562,       -0.4311523438,      -38.5894775391,       27.8625488281,       77.4078369141
1488507680.5561130047,1488507680.5585150719,        0.7011718750,        0.6391601562,       -0.4311523438,      -38.5894775391,       32.9437255859,       85.5102539062
1488507680.5587999821,1488507680.5610980988,        0.8076171875,        0.6997070312,       -0.3872070312,      -39.4744873047,       32.9437255859,       85.5102539062
1488507680.5613839626,1488507680.5638229847,        0.8076171875,        0.6997070312,       -0.3872070312,      -39.4744873047,       36.8499755859,       93.0633544922
1488507680.5641078949,1488507680.5663969517,        0.8076171875,        0.6997070312,       -0.3872070312,      -39.9322509766,       38.7725830078,       93.0633544922
1488507680.5667901039,1488507680.5696480274,        0.8076171875,        0.6997070312,       -0.3012695312,      -41.0003662109,       45.3033447266,      101.2420654297
1488507680.5699360371,1488507680.5723180771,        0.9980468750,        0.6938476562,       -0.3012695312,      -41.0003662109,       45.3033447266,      101.2420654297
1488507680.5726020336,1488507680.5748889446,        0.9980468750,        0.6938476562,       -0.3012695312,      -37.0941162109,       51.4526367188,      111.7095947266
1488507680.5751750469,1488507680.5774629116,        0.9980468750,        0.6938476562,       -0.3012695312,      -38.7115478516,       51.4526367188,      111.7095947266
1488507680.5777480602,1488507680.5800371170,        1.2792968750,        0.7065429688,       -0.2368164062,      -38.7115478516,       55.3588867188,      123.4283447266
1488507680.5803198814,1488507680.5827589035,        1.2792968750,        0.7065429688,       -0.2368164062,      -30.6701660156,       57.6629638672,      123.4283447266
1488507680.5830440521,1488507680.5853340626,        1.2792968750,        0.7065429688,       -0.2368164062,      -30.6701660156,       57.6629638672,      131.4086914062
1488507680.5856170654,1488507680.5879030228,        1.2792968750,        0.7065429688,       -0.2368164062,      -24.0478515625,       64.2089843750,      131.4086914062
1488507680.5881879330,1488507680.5904738903,        1.6362304688,        0.7192382812,       -0.1274414062,      -24.0478515625,       64.2089843750,      139.2211914062
1488507680.5907590389,1488507680.5930819511,        1.6362304688,        0.7192382812,       -0.1274414062,      -23.6206054688,       69.0765380859,      139.7705078125
1488507680.5933659077,1488507680.5956559181,        1.6362304688,        0.7192382812,       -0.1274414062,      -23.6206054688,       69.0765380859,      139.7705078125
1488507680.5959410667,1488507680.5982279778,        1.6362304688,        0.7192382812,       -0.1274414062,      -23.9105224609,       71.8383789062,      150.4669189453
1488507680.5985119343,1488507680.6007969379,        1.8725585938,        0.5688476562,       -0.1645507812,      -23.9105224609,       71.8383789062,      150.4669189453
1488507680.6010808945,1488507680.6034150124,        1.8725585938,        0.5688476562,       -0.1645507812,      -24.1546630859,       74.2340087891,      161.9720458984
1488507680.6036989689,1488507680.6059889793,        1.8725585938,        0.5688476562,       -0.1645507812,      -24.1546630859,       74.2340087891,      161.9720458984
1488507680.6062710285,1488507680.6085600853,        1.8725585938,        0.5688476562,       -0.1645507812,      -24.1088867188,       74.5086669922,      173.1109619141
1488507680.6088449955,1488507680.6111290455,        1.9858398438,        0.3676757812,       -0.1513671875,      -24.1088867188,       74.5086669922,      173.1109619141
1488507680.6114130020,1488507680.6137850285,        1.9858398438,        0.3676757812,       -0.1513671875,      -25.1922607422,       70.2819824219,      185.3027343750
1488507680.6140689850,1488507680.6163640022,        1.9858398438,        0.3676757812,       -0.1513671875,      -25.1922607422,       70.2819824219,      185.3027343750
1488507680.6166470051,1488507680.6189410686,        1.9858398438,        0.3676757812,       -0.1513671875,      -27.9846191406,       65.2465820312,      199.0203857422
1488507680.6192250252,1488507680.6215240955,        2.0273437500,        0.0483398438,       -0.1782226562,      -27.9846191406,       65.2465820312,      199.0203857422
1488507680.6218640804,1488507680.6242980957,        2.0273437500,        0.0483398438,       -0.1782226562,      -31.3110351562,       58.4869384766,      214.1571044922
1488507680.6245920658,1488507680.6270101070,        2.0273437500,        0.0483398438,       -0.1782226562,      -31.3110351562,       58.4869384766,      214.1571044922
1488507680.6273019314,1488507680.6297190189,        2.0273437500,        0.0483398438,       -0.2006835938,      -36.9262695312,       51.1627197266,      231.0028076172
1488507680.6301209927,1488507680.6325490475,        1.9648437500,       -0.4702148438,       -0.2006835938,      -36.9262695312,       51.1627197266,      231.0028076172
1488507680.6328420639,1488507680.6352570057,        1.9648437500,       -0.4702148438,       -0.2006835938,      -46.3562011719,       46.2188720703,      248.5504150391
1488507680.6355500221,1488507680.6379699707,        1.9648437500,       -0.4702148438,       -0.2006835938,      -46.3562011719,       46.2188720703,      248.5504150391
1488507680.6382620335,1488507680.6406769753,        1.7670898438,       -0.6645507812,       -0.1650390625,      -53.9093017578,       45.2423095703,      259.9945068359
1488507680.6409680843,1488507680.6433970928,        1.7670898438,       -0.6645507812,       -0.1650390625,      -53.9093017578,       45.2423095703,      259.9945068359
1488507680.6436870098,1488507680.6461040974,        1.7670898438,       -0.6645507812,       -0.1650390625,      -53.7567138672,       49.8199462891,      268.1274414062
1488507680.6463971138,1488507680.6488130093,        1.7670898438,       -0.6645507812,       -0.1650390625,      -53.7567138672,       49.8199462891,      268.1274414062
1488507680.6491050720,1488507680.6515209675,        1.2368164062,       -0.3349609375,       -0.0698242188,      -44.6014404297,       55.8319091797,      277.6489257812
1488507680.6518230438,1488507680.6541140079,        1.2368164062,       -0.3349609375,       -0.0698242188,      -44.6014404297,       55.8319091797,      277.6489257812
1488507680.6543979645,1488507680.6566929817,        1.2368164062,       -0.3349609375,       -0.0698242188,      -28.9764404297,       63.6138916016,      284.5001220703
1488507680.6569759846,1488507680.6592729092,        1.2368164062,       -0.3349609375,       -0.0698242188,      -29.6478271484,       63.6138916016,      284.5001220703
1488507680.6595571041,1488507680.6619119644,        0.7226562500,       -0.1093750000,       -0.0537109375,      -29.6478271484,       73.1964111328,      285.0494384766
1488507680.6622059345,1488507680.6646089554,        0.7226562500,       -0.1093750000,       -0.0537109375,      -18.8751220703,       73.1964111328,      285.0494384766
1488507680.6649010181,1488507680.6673040390,        0.7226562500,       -0.1093750000,       -0.0537109375,      -18.8751220703,       84.9151611328,      276.1840820312
1488507680.6675980091,1488507680.6700010300,        0.7226562500,       -0.1093750000,       -0.0332031250,      -17.9443359375,       82.5347900391,      276.1840820312
1488507680.6702950001,1488507680.6727058887,        0.5200195312,        0.2377929688,       -0.0332031250,      -17.9443359375,       86.4410400391,      257.5988769531
1488507680.6729960442,1488507680.6753780842,        0.5200195312,        0.2377929688,       -0.0332031250,      -12.0086669922,       87.0208740234,      257.5988769531
1488507680.6756689548,1488507680.6781589985,        0.5200195312,        0.2377929688,       -0.0332031250,      -12.0086669922,       79.2083740234,      227.2796630859
1488507680.6784510612,1488507680.6808381081,        1.1450195312,        1.0415039062,       -0.3876953125,       -2.4719238281,       81.8786621094,      227.2796630859
1488507680.6811230183,1488507680.6837460995,        1.1982421875,        1.0415039062,       -0.3876953125,       -2.4719238281,       76.6296386719,      181.1981201172
1488507680.6840379238,1488507680.6864519119,        1.1982421875,        1.0415039062,       -0.3876953125,        5.9356689453,       76.6296386719,      181.1981201172
1488507680.6867389679,1488507680.6891529560,        1.1982421875,        1.0415039062,       -0.3876953125,        5.9356689453,       77.5451660156,      139.3585205078
1488507680.6894390583,1488507680.6918940544,        0.9853515625,        1.3808593750,       -0.9306640625,        2.1057128906,       77.5451660156,      139.3585205078
1488507680.6921730042,1488507680.6944670677,        0.9853515625,        1.3808593750,       -0.9306640625,        2.1057128906,       69.7326660156,      104.5532226562
1488507680.6948559284,1488507680.6971449852,        0.9853515625,        1.3808593750,       -0.9306640625,        6.2103271484,       66.4215087891,      104.5532226562
1488507680.6974270344,1488507680.6997139454,        0.9853515625,        1.3808593750,       -0.9306640625,        6.2103271484,       66.4215087891,       64.3768310547
1488507680.6999959946,1488507680.7023530006,       -0.1943359375,        1.1328125000,       -1.2045898438,       41.3360595703,       34.6679687500,       64.3768310547
1488507680.7026429176,1488507680.7050659657,       -0.1943359375,        1.1328125000,       -1.2045898438,       41.3360595703,       34.6679687500,       34.5458984375
1488507680.7053558826,1488507680.7077739239,       -0.1943359375,        1.1328125000,       -1.2045898438,       67.4133300781,        9.0179443359,       34.5458984375
1488507680.7080600262,1488507680.7104780674,       -0.1943359375,        1.1328125000,       -0.5302734375,       67.4133300781,        9.0179443359,       16.1743164062
1488507680.7107679844,1488507680.7131240368,       -0.4233398438,        0.3505859375,       -0.5302734375,       72.2503662109,       -8.6822509766,       16.1743164062
1488507680.7134070396,1488507680.7157020569,       -0.4233398438,        0.3505859375,       -0.5302734375,       72.2503662109,       -8.6822509766,       -3.3569335938
1488507680.7159810066,1488507680.7182729244,       -0.4233398438,        0.3505859375,       -0.5302734375,       69.7021484375,      -17.3187255859,       -0.3509521484
1488507680.7185568810,1488507680.7208468914,       -0.4233398438,        0.0703125000,       -0.0449218750,       69.7021484375,      -17.3187255859,       -0.3509521484
1488507680.7211310863,1488507680.7234659195,       -0.1176757812,        0.0703125000,       -0.0449218750,       68.2678222656,      -18.9514160156,      -14.6484375000
1488507680.7237510681,1488507680.7260460854,       -0.1176757812,        0.0703125000,       -0.0449218750,       68.2678222656,      -18.9514160156,      -14.6484375000
1488507680.7263309956,1488507680.7286319733,       -0.1176757812,        0.0703125000,       -0.0449218750,       69.3664550781,      -18.1884765625,      -26.5960693359
1488507680.7289168835,1488507680.7312049866,        0.1323242188,       -0.0361328125,        0.1713867188,       69.3664550781,      -18.1884765625,      -26.5960693359
1488507680.7314898968,1488507680.7339460850,        0.1806640625,       -0.0361328125,        0.1713867188,       71.0754394531,      -16.7541503906,      -36.0412597656
1488507680.7342340946,1488507680.7365250587,        0.1806640625,       -0.0361328125,        0.1713867188,       71.0754394531,      -16.7541503906,      -36.0412597656
1488507680.7368121147,1488507680.7391040325,        0.1806640625,       -0.0361328125,        0.1713867188,       71.6552734375,      -14.9841308594,      -41.5496826172
1488507680.7393898964,1488507680.7418220043,        0.1318359375,        0.0073242188,        0.1762695312,       71.6552734375,      -14.9841308594,      -41.5496826172
1488507680.7421081066,1488507680.7444040775,        0.1318359375,        0.0073242188,        0.1762695312,       66.4672851562,      -12.8936767578,      -43.8690185547
1488507680.7446908951,1488507680.7469871044,        0.1318359375,        0.0073242188,        0.1762695312,       66.4672851562,      -12.8936767578,      -43.8690185547
1488507680.7472739220,1488507680.7495679855,        0.1318359375,        0.0073242188,        0.1762695312,       52.4139404297,      -12.2985839844,      -44.4183349609
1488507680.7498519421,1488507680.7521829605,        0.0043945312,        0.0957031250,        0.1406250000,       52.4139404297,      -12.2985839844,      -44.4183349609
1488507680.7524750233,1488507680.7548880577,        0.0043945312,        0.0957031250,        0.1406250000,       31.4025878906,      -12.2833251953,      -42.3278808594
1488507680.7551798820,1488507680.7575809956,        0.0043945312,        0.0957031250,        0.1406250000,       31.4025878906,      -12.2833251953,      -42.3278808594
1488507680.7579739094,1488507680.7603840828,        0.0043945312,        0.0957031250,        0.1406250000,        6.1492919922,      -12.7716064453,      -37.7044677734
1488507680.7606730461,1488507680.7631180286,       -0.0708007812,        0.0781250000,        0.0937500000,        6.1492919922,      -12.7716064453,      -37.7044677734
1488507680.7634050846,1488507680.7658059597,       -0.0708007812,        0.0781250000,        0.0937500000,      -21.0266113281,      -14.4500732422,      -31.3262939453
1488507680.7660989761,1488507680.7685010433,       -0.0708007812,        0.0781250000,        0.0937500000,      -21.0266113281,      -14.4500732422,      -31.3262939453
1488507680.7687931061,1488507680.7711958885,       -0.0708007812,        0.0781250000,        0.1137695312,      -45.2728271484,      -16.3726806641,      -25.6347656250
1488507680.7714879513,1488507680.7738978863,       -0.0615234375,       -0.0874023438,        0.1137695312,      -45.2728271484,      -16.3726806641,      -25.6347656250
1488507680.7741880417,1488507680.7765889168,       -0.0615234375,       -0.0874023438,        0.1137695312,      -58.8531494141,      -16.4947509766,      -20.0042724609
1488507680.7768819332,1488507680.7792799473,       -0.0615234375,       -0.0874023438,        0.1137695312,      -58.8531494141,      -16.4947509766,      -20.0042724609
1488507680.7795729637,1488507680.7819840908,        0.0112304688,       -0.2954101562,        0.1582031250,      -59.0972900391,      -14.6331787109,      -14.7552490234
1488507680.7822940350,1488507680.7847120762,        0.0112304688,       -0.2954101562,        0.1582031250,      -59.0972900391,      -14.6331787109,      -14.7552490234
1488507680.7850050926,1488507680.7874259949,        0.0112304688,       -0.2954101562,        0.1582031250,      -47.0428466797,      -11.4135742188,      -11.6577148438
1488507680.7877180576,1488507680.7901320457,        0.0112304688,       -0.2954101562,        0.1582031250,      -47.0428466797,      -11.4135742188,      -11.6577148438
1488507680.7904250622,1488507680.7928109169,        0.0019531250,       -0.3706054688,        0.1547851562,      -27.5115966797,       -8.0108642578,       -9.5825195312
1488507680.7930929661,1488507680.7953848839,        0.0019531250,       -0.3706054688,        0.1547851562,      -29.5257568359,       -8.0108642578,       -9.5825195312
1488507680.7956640720,1488507680.7980349064,        0.0019531250,       -0.3706054688,        0.1547851562,      -29.5257568359,       -4.6539306641,       -8.3007812500
1488507680.7983310223,1488507680.8006329536,        0.0019531250,       -0.3706054688,        0.1547851562,      -11.2152099609,       -4.6539306641,       -8.3007812500
1488507680.8009140491,1488507680.8037250042,       -0.0463867188,       -0.3056640625,        0.1298828125,        4.4097900391,       -1.5563964844,       -7.0190429688
1488507680.8040070534,1488507680.8064289093,       -0.0463867188,       -0.3056640625,        0.1298828125,        5.1879882812,       -1.5563964844,       -7.0190429688
1488507680.8067090511,1488507680.8091249466,       -0.0463867188,       -0.3056640625,        0.1298828125,       20.8129882812,       -0.2899169922,       -5.2642822266
1488507680.8094129562,1488507680.8118340969,       -0.0463867188,       -0.1635742188,        0.0673828125,       20.2484130859,       -0.2899169922,       -5.2642822266
1488507680.8121209145,1488507680.8145411015,       -0.0820312500,       -0.1635742188,        0.0673828125,       31.9671630859,        0.3356933594,       -3.4942626953
1488507680.8148269653,1488507680.8172430992,       -0.0820312500,       -0.1635742188,        0.0673828125,       32.2418212891,        0.3356933594,       -3.4942626953
1488507680.8175280094,1488507680.8199439049,       -0.0820312500,       -0.1635742188,        0.0673828125,       40.0543212891,        0.6408691406,       -2.2583007812
1488507680.8202309608,1488507680.8226931095,       -0.1000976562,       -0.0092773438,       -0.0078125000,       41.3665771484,        0.6408691406,       -2.2583007812
1488507680.8229839802,1488507680.8254010677,       -0.1000976562,       -0.0092773438,       -0.0078125000,       45.2728271484,        0.6103515625,       -0.5798339844
1488507680.8257999420,1488507680.8282198906,       -0.1000976562,       -0.0092773438,       -0.0078125000,       45.5322265625,        0.6103515625,       -0.5798339844
1488507680.8285079002,1488507680.8309249878,       -0.1000976562,       -0.0092773438,       -0.0078125000,       45.5322265625,        0.3204345703,        0.9002685547
1488507680.8312129974,1488507680.8335320950,       -0.0878906250,        0.1030273438,       -0.0375976562,       45.7458496094,        0.3204345703,        0.9002685547
1488507680.8338110447,1488507680.8361060619,       -0.0878906250,        0.1030273438,       -0.0375976562,       45.7458496094,        0.3204345703,        2.3193359375
1488507680.8363850117,1488507680.8386750221,       -0.0878906250,        0.1030273438,       -0.0375976562,       44.7235107422,        0.3204345703,        2.3193359375
1488507680.8389539719,1488507680.8412449360,       -0.0878906250,        0.1030273438,       -0.0375976562,       44.7235107422,        0.3204345703,        3.4027099609
1488507680.8415250778,1488507680.8438429832,       -0.0639648438,        0.1787109375,       -0.0473632812,       43.1976318359,        0.0610351562,        3.4027099609
1488507680.8441228867,1488507680.8464179039,       -0.0639648438,        0.1787109375,       -0.0473632812,       43.1976318359,        0.0610351562,        3.0364990234
1488507680.8466959000,1488507680.8489940166,       -0.0639648438,        0.1787109375,       -0.0473632812,       44.1589355469,       -0.7476806641,        3.0364990234
1488507680.8492720127,1488507680.8515660763,       -0.0639648438,        0.1787109375,       -0.0473632812,       44.1589355469,       -0.7476806641,        3.0364990234
1488507680.8518719673,1488507680.8541710377,       -0.0283203125,        0.2070312500,       -0.0415039062,       44.7692871094,       -0.6866455078,        1.2969970703
1488507680.8544499874,1488507680.8567440510,       -0.0283203125,        0.2070312500,       -0.0415039062,       44.7692871094,       -0.6866455078,        1.2969970703
1488507680.8570230007,1488507680.8593120575,       -0.0283203125,        0.2070312500,       -0.0415039062,       45.2423095703,       -0.1220703125,       -1.2664794922
1488507680.8595910072,1488507680.8620839119,       -0.0283203125,        0.2070312500,       -0.0444335938,       45.2423095703,       -0.1220703125,       -1.2664794922
1488507680.8623731136,1488507680.8647990227,       -0.0234375000,        0.2021484375,       -0.0444335938,       44.6472167969,       -0.1983642578,       -4.3792724609
1488507680.8650839329,1488507680.8675010204,       -0.0234375000,        0.2021484375,       -0.0444335938,       44.6472167969,       -0.1983642578,       -4.3792724609
1488507680.8677880764,1488507680.8702030182,       -0.0234375000,        0.2021484375,       -0.0444335938,       43.0450439453,       -1.4190673828,       -7.9803466797
1488507680.8704879284,1488507680.8729178905,       -0.0546875000,        0.1728515625,       -0.0410156250,       43.0450439453,       -1.4190673828,       -7.9803466797
1488507680.8732020855,1488507680.8756189346,       -0.0546875000,        0.1728515625,       -0.0410156250,       40.0390625000,       -2.7465820312,      -11.4898681641
1488507680.8759078979,1488507680.8783268929,       -0.0546875000,        0.1728515625,       -0.0410156250,       40.0390625000,       -2.7465820312,      -11.4898681641
1488507680.8786170483,1488507680.8810279369,       -0.0546875000,        0.1728515625,       -0.0410156250,       36.6973876953,       -3.3264160156,      -14.3737792969
1488507680.8813180923,1488507680.8837099075,       -0.0541992188,        0.0839843750,        0.0078125000,       36.6973876953,       -3.3264160156,      -14.3737792969
1488507680.8839919567,1488507680.8862869740,       -0.0541992188,        0.0839843750,        0.0078125000,       34.0270996094,       -3.5247802734,      -16.8304443359
1488507680.8865690231,1488507680.8888599873,       -0.0541992188,        0.0839843750,        0.0078125000,       34.0270996094,       -3.5247802734,      -16.8304443359
1488507680.8892550468,1488507680.8915519714,       -0.0541992188,        0.0839843750,        0.0078125000,       32.8216552734,       -2.4108886719,      -18.2037353516
1488507680.8918340206,1488507680.8941230774,       -0.0185546875,       -0.0307617188,        0.0541992188,       32.8216552734,       -2.4108886719,      -18.2037353516
1488507680.8944039345,1488507680.8966979980,       -0.0185546875,       -0.0307617188,        0.0541992188,       32.6843261719,       -0.7324218750,      -18.5699462891
1488507680.8969790936,1488507680.8992679119,       -0.0185546875,       -0.0307617188,        0.0541992188,       32.6843261719,       -0.7324218750,      -18.5699462891
1488507680.8995509148,1488507680.9019079208,       -0.0185546875,       -0.0307617188,        0.0541992188,       33.7371826172,        1.1291503906,      -17.0593261719
1488507680.9021959305,1488507680.9046180248,        0.0048828125,       -0.0976562500,        0.0996093750,       33.7371826172,        1.1291503906,      -17.0593261719
