time_stamp before, time_stamp after, Acceleration x, Acceleration y, Acceleration z, Gyro x, Gyro y, Gyro z
1488507577.0165650845,1488507577.0257899761,        0.6166992188,        0.0278320312,       -0.1801757812,       -4.6539306641,       -4.1046142578,        1.8310546875
1488507577.0260949135,1488507577.0294361115,        0.6166992188,        0.0278320312,       -0.1801757812,       -4.6539306641,       -4.1046142578,        2.2583007812
1488507577.0297310352,1488507577.0329771042,        0.6064453125,        0.0263671875,       -0.1723632812,       -4.8828125000,       -4.4403076172,        2.2583007812
1488507577.0332610607,1488507577.0357429981,        0.6064453125,        0.0263671875,       -0.1723632812,       -4.9591064453,       -4.4097900391,        2.7008056641
1488507577.0360260010,1488507577.0383050442,        0.6064453125,        0.0263671875,       -0.1723632812,       -4.9591064453,       -4.4097900391,        2.7008056641
1488507577.0385789871,1488507577.0408549309,        0.6000976562,        0.0366210938,       -0.1528320312,       -4.7454833984,       -4.2572021484,        3.1738281250
1488507577.0411260128,1488507577.0434529781,        0.6000976562,        0.0366210938,       -0.1528320312,       -4.7454833984,       -4.2572021484,        3.1738281250
1488507577.0437240601,1488507577.0460019112,        0.6000976562,        0.0366210938,       -0.1528320312,       -4.6081542969,       -4.4403076172,        3.4179687500
1488507577.0462739468,1488507577.0485548973,        0.6000976562,        0.0366210938,       -0.1528320312,       -4.6081542969,       -4.4403076172,        3.4179687500
1488507577.0488269329,1488507577.0511059761,        0.6025390625,        0.0249023438,       -0.1679687500,       -4.6081542969,       -4.3640136719,        3.6773681641
1488507577.0513780117,1488507577.0536689758,        0.6025390625,        0.0249023438,       -0.1679687500,       -4.8828125000,       -4.3640136719,        3.6773681641
1488507577.0539400578,1488507577.0562219620,        0.6025390625,        0.0249023438,       -0.1679687500,       -4.8828125000,       -4.3640136719,        3.7231445312
1488507577.0564920902,1488507577.0587720871,        0.6025390625,        0.0249023438,       -0.1679687500,       -4.9285888672,       -4.4860839844,        3.7231445312
1488507577.0590419769,1488507577.0613179207,        0.6083984375,        0.0087890625,       -0.1782226562,       -4.9285888672,       -4.4860839844,        3.6010742188
1488507577.0615899563,1488507577.0639889240,        0.6083984375,        0.0087890625,       -0.1782226562,       -4.7454833984,       -4.2419433594,        3.6010742188
1488507577.0642600060,1488507577.0665450096,        0.6083984375,        0.0087890625,       -0.1782226562,       -4.7454833984,       -4.2419433594,        3.6010742188
1488507577.0668170452,1488507577.0690989494,        0.6083984375,        0.0087890625,       -0.1782226562,       -4.2419433594,       -4.4403076172,        3.4027099609
1488507577.0693690777,1488507577.0716519356,        0.6044921875,        0.0034179688,       -0.1757812500,       -4.2419433594,       -4.4403076172,        3.4027099609
1488507577.0719759464,1488507577.0742669106,        0.6044921875,        0.0034179688,       -0.1757812500,       -3.5705566406,       -4.1046142578,        3.1280517578
1488507577.0745389462,1488507577.0768299103,        0.6044921875,        0.0034179688,       -0.1757812500,       -3.5705566406,       -4.1046142578,        3.1280517578
1488507577.0771028996,1488507577.0793929100,        0.6044921875,        0.0034179688,       -0.1757812500,       -3.6163330078,       -3.7689208984,        2.8839111328
1488507577.0796670914,1488507577.0820400715,        0.6064453125,        0.0034179688,       -0.1733398438,       -3.6163330078,       -3.7689208984,        2.8839111328
1488507577.0823149681,1488507577.0845999718,        0.6064453125,        0.0034179688,       -0.1733398438,       -3.3111572266,       -4.4097900391,        2.3193359375
1488507577.0848739147,1488507577.0871629715,        0.6064453125,        0.0034179688,       -0.1733398438,       -3.3111572266,       -4.4097900391,        2.3193359375
1488507577.0875909328,1488507577.0898809433,        0.6064453125,        0.0034179688,       -0.1733398438,       -2.9907226562,       -4.2572021484,        1.9989013672
1488507577.0901539326,1488507577.0926160812,        0.6015625000,        0.0107421875,       -0.1704101562,       -2.9907226562,       -4.2572021484,        1.9989013672
1488507577.0928940773,1488507577.0954189301,        0.6015625000,        0.0107421875,       -0.1704101562,       -2.6092529297,       -4.3334960938,        1.7547607422
1488507577.0957040787,1488507577.0981149673,        0.6015625000,        0.0107421875,       -0.1704101562,       -2.6092529297,       -4.3334960938,        1.7547607422
1488507577.0983960629,1488507577.1008110046,        0.6015625000,        0.0107421875,       -0.1772460938,       -2.7770996094,       -4.2419433594,        1.8157958984
1488507577.1010921001,1488507577.1035149097,        0.5996093750,        0.0043945312,       -0.1772460938,       -2.7770996094,       -4.2419433594,        1.8157958984
1488507577.1037979126,1488507577.1062150002,        0.5996093750,        0.0043945312,       -0.1772460938,       -3.2653808594,       -4.1961669922,        1.1596679688
1488507577.1064949036,1488507577.1089138985,        0.5996093750,        0.0043945312,       -0.1772460938,       -3.2653808594,       -4.1961669922,        1.1596679688
1488507577.1091949940,1488507577.1116089821,        0.6010742188,        0.0014648438,       -0.1855468750,       -2.8839111328,       -3.8909912109,        0.9307861328
1488507577.1119449139,1488507577.1143639088,        0.6010742188,        0.0014648438,       -0.1855468750,       -2.8839111328,       -3.8909912109,        0.9307861328
1488507577.1146459579,1488507577.1170620918,        0.6010742188,        0.0014648438,       -0.1855468750,       -2.7313232422,       -4.0435791016,        0.4882812500
1488507577.1173439026,1488507577.1197550297,        0.6010742188,        0.0014648438,       -0.1855468750,       -2.7313232422,       -4.0435791016,        0.4882812500
1488507577.1200370789,1488507577.1224570274,        0.6035156250,        0.0009765625,       -0.1879882812,       -2.8839111328,       -4.4250488281,        0.1220703125
1488507577.1227319241,1488507577.1250269413,        0.6035156250,        0.0009765625,       -0.1879882812,       -2.8839111328,       -4.4250488281,        0.1220703125
1488507577.1253030300,1488507577.1275908947,        0.6035156250,        0.0009765625,       -0.1879882812,       -2.6092529297,       -4.3792724609,       -0.0152587891
1488507577.1278660297,1488507577.1301550865,        0.6035156250,        0.0009765625,       -0.1879882812,       -2.6092529297,       -4.3792724609,       -0.0152587891
1488507577.1304299831,1488507577.1328070164,        0.5957031250,        0.0087890625,       -0.1777343750,       -2.6092529297,       -4.4555664062,       -0.1983642578
1488507577.1330831051,1488507577.1353719234,        0.5957031250,        0.0087890625,       -0.1777343750,       -2.5482177734,       -4.4555664062,       -0.1983642578
1488507577.1356461048,1488507577.1379408836,        0.5957031250,        0.0087890625,       -0.1777343750,       -2.5482177734,       -4.4555664062,       -0.2441406250
1488507577.1382141113,1488507577.1405079365,        0.5957031250,        0.0087890625,       -0.1777343750,       -2.1209716797,       -4.1351318359,       -0.2441406250
1488507577.1407821178,1488507577.1431550980,        0.6035156250,        0.0161132812,       -0.1879882812,       -2.1209716797,       -4.1351318359,       -0.3051757812
1488507577.1434369087,1488507577.1458389759,        0.6035156250,        0.0161132812,       -0.1879882812,       -1.6021728516,       -3.9367675781,       -0.3051757812
1488507577.1461191177,1488507577.1485929489,        0.6035156250,        0.0161132812,       -0.1879882812,       -1.6021728516,       -3.9367675781,       -0.1678466797
1488507577.1488759518,1488507577.1512989998,        0.6035156250,        0.0161132812,       -0.1933593750,       -2.0446777344,       -4.0435791016,       -0.1678466797
1488507577.1516981125,1488507577.1541259289,        0.6025390625,        0.0195312500,       -0.1933593750,       -2.0446777344,       -4.0435791016,       -0.1983642578
1488507577.1544070244,1488507577.1568229198,        0.6025390625,        0.0195312500,       -0.1933593750,       -2.4261474609,       -4.1046142578,       -0.1983642578
1488507577.1571040154,1488507577.1595239639,        0.6025390625,        0.0195312500,       -0.1933593750,       -2.4261474609,       -4.1046142578,       -0.4119873047
1488507577.1598069668,1488507577.1622240543,        0.6005859375,        0.0195312500,       -0.1772460938,       -2.3040771484,       -4.0435791016,       -0.4119873047
1488507577.1625061035,1488507577.1649160385,        0.6005859375,        0.0195312500,       -0.1772460938,       -2.3040771484,       -4.0435791016,       -0.7324218750
1488507577.1651949883,1488507577.1676158905,        0.6005859375,        0.0195312500,       -0.1772460938,       -1.9226074219,       -3.4942626953,       -0.7324218750
1488507577.1678960323,1488507577.1703140736,        0.6005859375,        0.0195312500,       -0.1772460938,       -1.9226074219,       -3.4942626953,       -0.7171630859
1488507577.1705949306,1488507577.1730179787,        0.5927734375,        0.0131835938,       -0.1767578125,       -1.6784667969,       -2.9296875000,       -0.7171630859
1488507577.1732990742,1488507577.1757199764,        0.5927734375,        0.0131835938,       -0.1767578125,       -1.6784667969,       -2.9296875000,       -0.9460449219
1488507577.1760001183,1488507577.1784141064,        0.5927734375,        0.0131835938,       -0.1767578125,       -1.4190673828,       -3.4179687500,       -0.9460449219
1488507577.1786949635,1488507577.1811149120,        0.5927734375,        0.0131835938,       -0.1767578125,       -1.4190673828,       -3.4179687500,       -1.1138916016
1488507577.1813960075,1488507577.1837179661,        0.5893554688,        0.0122070312,       -0.1806640625,       -0.6408691406,       -3.5705566406,       -1.1138916016
1488507577.1839931011,1488507577.1862840652,        0.5893554688,        0.0122070312,       -0.1806640625,       -0.6408691406,       -3.5705566406,       -1.1138916016
1488507577.1865580082,1488507577.1888539791,        0.5893554688,        0.0122070312,       -0.1806640625,        0.1220703125,       -4.5471191406,       -1.1596679688
1488507577.1891279221,1488507577.1914219856,        0.5893554688,        0.0122070312,       -0.1777343750,        0.1220703125,       -4.5471191406,       -1.1596679688
1488507577.1918170452,1488507577.1942369938,        0.5893554688,        0.0073242188,       -0.1777343750,        1.2664794922,       -4.9591064453,       -1.2817382812
1488507577.1945130825,1488507577.1968109608,        0.5893554688,        0.0073242188,       -0.1777343750,        1.2664794922,       -4.9591064453,       -1.2817382812
1488507577.1970839500,1488507577.1993739605,        0.5893554688,        0.0073242188,       -0.1777343750,        1.9378662109,       -4.6234130859,       -1.7089843750
1488507577.1996459961,1488507577.2020471096,        0.5893554688,        0.0073242188,       -0.1762695312,        1.9378662109,       -4.6234130859,       -1.7089843750
1488507577.2023289204,1488507577.2047441006,        0.5991210938,        0.0097656250,       -0.1762695312,        2.9602050781,       -4.5166015625,       -2.1972656250
1488507577.2050271034,1488507577.2074398994,        0.5991210938,        0.0097656250,       -0.1762695312,        2.9602050781,       -4.5166015625,       -2.1972656250
1488507577.2077200413,1488507577.2101409435,        0.5991210938,        0.0097656250,       -0.1762695312,        3.3874511719,       -5.0659179688,       -2.3040771484
1488507577.2104229927,1488507577.2128400803,        0.5991210938,        0.0102539062,       -0.1743164062,        3.3874511719,       -5.0659179688,       -2.3040771484
1488507577.2131209373,1488507577.2155320644,        0.5991210938,        0.0102539062,       -0.1743164062,        4.1961669922,       -4.8370361328,       -2.3651123047
1488507577.2159230709,1488507577.2183461189,        0.5991210938,        0.0102539062,       -0.1743164062,        4.1961669922,       -4.8370361328,       -2.3651123047
1488507577.2186279297,1488507577.2210431099,        0.5991210938,        0.0102539062,       -0.1743164062,        4.7149658203,       -4.8522949219,       -2.5024414062
1488507577.2213261127,1488507577.2237539291,        0.6015625000,        0.0209960938,       -0.1879882812,        4.7149658203,       -4.8522949219,       -2.5024414062
1488507577.2240350246,1488507577.2264480591,        0.6015625000,        0.0209960938,       -0.1879882812,        5.0659179688,       -5.3405761719,       -2.1820068359
1488507577.2267289162,1488507577.2291450500,        0.6015625000,        0.0209960938,       -0.1879882812,        5.0659179688,       -5.3405761719,       -2.1820068359
1488507577.2294249535,1488507577.2318439484,        0.6015625000,        0.0209960938,       -0.1879882812,        5.6152343750,       -5.5694580078,       -1.8463134766
1488507577.2321259975,1488507577.2345359325,        0.6093750000,        0.0156250000,       -0.1870117188,        5.6152343750,       -5.5694580078,       -1.8463134766
1488507577.2348189354,1488507577.2372269630,        0.6093750000,        0.0156250000,       -0.1870117188,        5.9051513672,       -5.1269531250,       -1.7547607422
1488507577.2375090122,1488507577.2399890423,        0.6093750000,        0.0156250000,       -0.1870117188,        5.9051513672,       -5.1269531250,       -1.7547607422
1488507577.2402629852,1488507577.2426779270,        0.6093750000,        0.0258789062,       -0.2031250000,        6.4697265625,       -4.3029785156,       -1.5411376953
1488507577.2429559231,1488507577.2453370094,        0.6137695312,        0.0258789062,       -0.2031250000,        6.4697265625,       -4.3029785156,       -1.5411376953
1488507577.2456150055,1488507577.2481319904,        0.6137695312,        0.0258789062,       -0.2031250000,        6.8511962891,       -4.4097900391,       -1.1901855469
1488507577.2484140396,1488507577.2507939339,        0.6137695312,        0.0258789062,       -0.2031250000,        6.8511962891,       -4.4097900391,       -1.1901855469
1488507577.2514679432,1488507577.2539310455,        0.5976562500,        0.0312500000,       -0.1889648438,        6.9274902344,       -4.3640136719,       -1.0681152344
1488507577.2542140484,1488507577.2566270828,        0.5976562500,        0.0312500000,       -0.1889648438,        6.9274902344,       -4.3640136719,       -1.0681152344
1488507577.2569079399,1488507577.2593250275,        0.5976562500,        0.0312500000,       -0.1889648438,        6.7596435547,       -4.0130615234,       -1.1138916016
1488507577.2596080303,1488507577.2620310783,        0.5976562500,        0.0312500000,       -0.1889648438,        6.7596435547,       -4.0130615234,       -1.1138916016
1488507577.2623119354,1488507577.2647249699,        0.6044921875,        0.0244140625,       -0.1860351562,        6.7901611328,       -3.8757324219,       -1.0833740234
1488507577.2650051117,1488507577.2674229145,        0.6044921875,        0.0244140625,       -0.1860351562,        6.7901611328,       -3.8757324219,       -1.0833740234
1488507577.2677040100,1488507577.2701210976,        0.6044921875,        0.0244140625,       -0.1860351562,        6.4697265625,       -3.7384033203,       -0.5035400391
1488507577.2704029083,1488507577.2727670670,        0.6044921875,        0.0263671875,       -0.1982421875,        6.4697265625,       -3.7384033203,       -0.5035400391
1488507577.2730419636,1488507577.2753338814,        0.6005859375,        0.0263671875,       -0.1982421875,        5.4931640625,       -3.8452148438,       -0.1525878906
1488507577.2756090164,1488507577.2778940201,        0.6005859375,        0.0263671875,       -0.1982421875,        5.4931640625,       -3.8452148438,       -0.1525878906
1488507577.2781689167,1488507577.2804570198,        0.6005859375,        0.0263671875,       -0.1982421875,        5.5236816406,       -3.4332275391,        0.0457763672
1488507577.2808380127,1488507577.2831358910,        0.6005859375,        0.0239257812,       -0.2060546875,        5.5236816406,       -3.4332275391,        0.0457763672
1488507577.2834110260,1488507577.2856979370,        0.5961914062,        0.0239257812,       -0.2060546875,        4.7607421875,       -3.3264160156,        0.1525878906
1488507577.2859730721,1488507577.2882649899,        0.5961914062,        0.0239257812,       -0.2060546875,        4.7607421875,       -3.3264160156,        0.1525878906
1488507577.2885389328,1488507577.2908320427,        0.5961914062,        0.0239257812,       -0.2060546875,        3.9978027344,       -3.0517578125,        0.4272460938
1488507577.2911050320,1488507577.2935519218,        0.5971679688,        0.0229492188,       -0.2070312500,        3.9978027344,       -3.0517578125,        0.4272460938
1488507577.2938458920,1488507577.2961399555,        0.5971679688,        0.0229492188,       -0.2070312500,        0.0915527344,       -3.0212402344,        0.8850097656
1488507577.2964160442,1488507577.2987079620,        0.5971679688,        0.0229492188,       -0.2070312500,        3.1433105469,       -3.0212402344,        0.8850097656
1488507577.2989830971,1488507577.3012750149,        0.5971679688,        0.0229492188,       -0.2070312500,        3.1433105469,       -3.0212402344,        0.8544921875
1488507577.3015480042,1488507577.3040499687,        0.6000976562,        0.0122070312,       -0.1992187500,        2.9296875000,       -2.9602050781,        0.8544921875
1488507577.3043339252,1488507577.3067479134,        0.6000976562,        0.0122070312,       -0.1992187500,        2.9296875000,       -2.9602050781,        0.6103515625
1488507577.3070280552,1488507577.3094429970,        0.6000976562,        0.0122070312,       -0.1992187500,        2.2277832031,       -2.6397705078,        0.6103515625
1488507577.3097259998,1488507577.3121500015,        0.6000976562,        0.0122070312,       -0.1992187500,        2.2277832031,       -2.6397705078,        0.3967285156
1488507577.3124299049,1488507577.3148429394,        0.5991210938,        0.0083007812,       -0.1948242188,        2.2277832031,       -2.5939941406,        0.3967285156
1488507577.3151240349,1488507577.3175389767,        0.5991210938,        0.0083007812,       -0.1948242188,        2.2277832031,       -2.5939941406,        0.3204345703
1488507577.3178200722,1488507577.3202350140,        0.5991210938,        0.0083007812,       -0.1948242188,        2.0294189453,       -3.1738281250,        0.3204345703
1488507577.3205170631,1488507577.3228828907,        0.5991210938,        0.0083007812,       -0.1928710938,        2.0294189453,       -3.1738281250,        0.2136230469
1488507577.3231580257,1488507577.3254489899,        0.5996093750,        0.0029296875,       -0.1928710938,        1.9073486328,       -3.1280517578,        0.2136230469
1488507577.3257229328,1488507577.3280119896,        0.5996093750,        0.0029296875,       -0.1928710938,        1.9073486328,       -3.1280517578,       -3.6926269531
1488507577.3282840252,1488507577.3305768967,        0.5996093750,        0.0029296875,       -0.1928710938,        1.6479492188,       -3.3416748047,       -0.1220703125
1488507577.3308520317,1488507577.3332319260,        0.5996093750,        0.0029296875,       -0.1816406250,        1.6479492188,       -3.3416748047,       -0.1220703125
1488507577.3335139751,1488507577.3359279633,        0.6049804688,        0.0019531250,       -0.1816406250,        1.5411376953,       -3.3416748047,       -0.1983642578
1488507577.3362100124,1488507577.3386249542,        0.6049804688,        0.0019531250,       -0.1816406250,        1.5411376953,       -3.3416748047,       -0.1983642578
1488507577.3389070034,1488507577.3413228989,        0.6049804688,        0.0019531250,       -0.1816406250,        1.2359619141,       -3.3111572266,       -0.2441406250
1488507577.3416049480,1488507577.3440220356,        0.6166992188,        0.0029296875,       -0.1791992188,        1.2359619141,       -3.3111572266,       -0.2441406250
1488507577.3444108963,1488507577.3468289375,        0.6166992188,        0.0029296875,       -0.1791992188,        1.3275146484,       -3.5400390625,       -0.3204345703
1488507577.3471119404,1488507577.3495280743,        0.6166992188,        0.0029296875,       -0.1791992188,        1.3275146484,       -3.5400390625,       -0.3204345703
1488507577.3498089314,1488507577.3522388935,        0.6166992188,        0.0029296875,       -0.1791992188,        1.9073486328,       -3.9672851562,       -0.2441406250
1488507577.3525209427,1488507577.3549330235,        0.6079101562,        0.0029296875,       -0.1791992188,        1.9073486328,       -3.9672851562,       -0.2441406250
1488507577.3552141190,1488507577.3576219082,        0.6079101562,        0.0029296875,       -0.1791992188,        2.9907226562,       -3.9062500000,       -0.3814697266
1488507577.3581719398,1488507577.3605771065,        0.6079101562,        0.0029296875,       -0.1791992188,        2.9907226562,       -3.9062500000,       -0.3814697266
1488507577.3608589172,1488507577.3637070656,        0.6079101562,        0.0029296875,       -0.1723632812,        3.2806396484,       -3.3264160156,       -0.6561279297
1488507577.3639919758,1488507577.3664069176,        0.6074218750,       -0.0024414062,       -0.1723632812,        3.2806396484,       -3.3264160156,       -0.9460449219
1488507577.3666899204,1488507577.3691020012,        0.6074218750,       -0.0024414062,       -0.1723632812,        3.4027099609,       -3.4332275391,       -0.9460449219
1488507577.3693840504,1488507577.3718109131,        0.6074218750,       -0.0024414062,       -0.1723632812,        3.4027099609,       -3.4332275391,       -1.4801025391
1488507577.3720850945,1488507577.3743820190,        0.6030273438,        0.0039062500,       -0.1835937500,        4.0130615234,       -3.8604736328,       -1.4801025391
1488507577.3746559620,1488507577.3769459724,        0.6030273438,        0.0039062500,       -0.1835937500,        4.0130615234,       -3.8604736328,       -1.4801025391
1488507577.3772199154,1488507577.3795158863,        0.6030273438,        0.0039062500,       -0.1835937500,        4.2114257812,       -3.6773681641,       -2.0294189453
1488507577.3797891140,1488507577.3821439743,        0.6030273438,        0.0039062500,       -0.1835937500,        4.2114257812,       -3.6773681641,       -2.0294189453
1488507577.3824260235,1488507577.3848390579,        0.6054687500,        0.0024414062,       -0.1904296875,        4.3945312500,       -3.7384033203,       -2.2583007812
1488507577.3851211071,1488507577.3875319958,        0.6054687500,        0.0024414062,       -0.1904296875,        4.3945312500,       -3.7384033203,       -2.2583007812
1488507577.3878140450,1488507577.3902308941,        0.6054687500,        0.0024414062,       -0.1904296875,        4.1198730469,       -3.7841796875,       -2.3956298828
1488507577.3905119896,1488507577.3928771019,        0.6054687500,        0.0024414062,       -0.1904296875,        4.1198730469,       -3.7841796875,       -2.3956298828
1488507577.3931510448,1488507577.3954479694,        0.6010742188,        0.0034179688,       -0.2070312500,        3.5095214844,       -3.8452148438,       -2.3803710938
1488507577.3957209587,1488507577.3980059624,        0.6010742188,        0.0034179688,       -0.2070312500,        3.5095214844,       -3.8452148438,       -2.3803710938
1488507577.3982789516,1488507577.4005699158,        0.6010742188,        0.0034179688,       -0.2070312500,        3.5400390625,       -3.8604736328,       -2.5482177734
1488507577.4008440971,1488507577.4031391144,        0.6010742188,        0.0034179688,       -0.2070312500,        3.5400390625,       -3.8604736328,       -2.5482177734
1488507577.4034121037,1488507577.4057068825,        0.6049804688,        0.0014648438,       -0.1860351562,        3.6163330078,       -3.9367675781,       -2.6855468750
1488507577.4059810638,1488507577.4082729816,        0.6049804688,        0.0014648438,       -0.1860351562,        3.6163330078,       -3.9367675781,       -2.6855468750
1488507577.4086461067,1488507577.4109439850,        0.6049804688,        0.0014648438,       -0.1860351562,        3.7536621094,       -4.0283203125,       -2.5024414062
1488507577.4112179279,1488507577.4136331081,        0.6049804688,        0.0014648438,       -0.2036132812,        3.7536621094,       -4.0283203125,       -2.5024414062
1488507577.4139089584,1488507577.4162030220,        0.6020507812,        0.0087890625,       -0.2036132812,        3.8604736328,       -4.0283203125,       -2.8839111328
1488507577.4164769650,1488507577.4187729359,        0.6020507812,        0.0087890625,       -0.2036132812,        3.8604736328,       -4.0283203125,       -2.8839111328
1488507577.4190471172,1488507577.4213390350,        0.6020507812,        0.0087890625,       -0.2036132812,        3.8604736328,       -3.8299560547,       -3.0975341797
1488507577.4216129780,1488507577.4239919186,        0.6020507812,        0.0087890625,       -0.1787109375,        3.8604736328,       -3.8299560547,       -3.0975341797
1488507577.4242660999,1488507577.4265599251,        0.5947265625,        0.0141601562,       -0.1787109375,        3.8604736328,       -4.2572021484,       -3.3874511719
1488507577.4268329144,1488507577.4291241169,        0.5947265625,        0.0141601562,       -0.1787109375,        3.4942626953,       -4.2572021484,       -3.3874511719
1488507577.4293971062,1488507577.4317491055,        0.5947265625,        0.0141601562,       -0.1787109375,        3.4942626953,       -4.2572021484,       -3.1890869141
1488507577.4320330620,1488507577.4344449043,        0.5947265625,        0.0200195312,       -0.2011718750,        2.6092529297,       -4.3792724609,       -3.1890869141
1488507577.4347259998,1488507577.4371459484,        0.6074218750,        0.0200195312,       -0.2011718750,        2.6092529297,       -4.3792724609,       -3.0975341797
1488507577.4374260902,1488507577.4399321079,        0.6074218750,        0.0200195312,       -0.2011718750,        2.2277832031,       -4.6691894531,       -3.0975341797
1488507577.4402060509,1488507577.4426739216,        0.6074218750,        0.0200195312,       -0.2011718750,        2.2277832031,       -4.6691894531,       -3.0670166016
1488507577.4429519176,1488507577.4453380108,        0.6054687500,        0.0166015625,       -0.1777343750,        2.2277832031,       -4.5471191406,       -3.0670166016
1488507577.4456179142,1488507577.4484341145,        0.6054687500,        0.0166015625,       -0.1777343750,        2.2277832031,       -4.5471191406,       -3.1738281250
1488507577.4487090111,1488507577.4510040283,        0.6054687500,        0.0166015625,       -0.1777343750,        3.0059814453,       -4.5776367188,       -3.1738281250
1488507577.4512760639,1488507577.4536399841,        0.6054687500,        0.0166015625,       -0.1777343750,        3.0059814453,       -4.5776367188,       -3.1280517578
1488507577.4539129734,1488507577.4561979771,        0.6054687500,        0.0161132812,       -0.1835937500,        3.4942626953,       -4.6997070312,       -3.1280517578
1488507577.4564700127,1488507577.4587581158,        0.6054687500,        0.0161132812,       -0.1835937500,        3.4942626953,       -4.6997070312,       -3.1127929688
1488507577.4590311050,1488507577.4613149166,        0.6054687500,        0.0161132812,       -0.1835937500,        3.2806396484,       -4.5471191406,       -3.1127929688
1488507577.4615879059,1488507577.4638819695,        0.6054687500,        0.0161132812,       -0.1835937500,        3.2806396484,       -4.5471191406,       -3.1127929688
1488507577.4641549587,1488507577.4664380550,        0.6083984375,        0.0205078125,       -0.1933593750,        3.3416748047,       -4.8828125000,       -2.7618408203
1488507577.4667119980,1488507577.4689979553,        0.6083984375,        0.0205078125,       -0.1933593750,        3.3416748047,       -4.8828125000,       -2.7618408203
1488507577.4692718983,1488507577.4715690613,        0.6083984375,        0.0205078125,       -0.1933593750,        3.3416748047,       -5.2947998047,       -3.0059814453
1488507577.4718420506,1488507577.4741289616,        0.6083984375,        0.0205078125,       -0.1933593750,        3.3416748047,       -5.2947998047,       -3.0059814453
1488507577.4745109081,1488507577.4768021107,        0.6020507812,        0.0244140625,       -0.1953125000,        3.6315917969,       -5.2032470703,       -3.1433105469
1488507577.4770779610,1488507577.4793660641,        0.6020507812,        0.0244140625,       -0.1953125000,        3.6315917969,       -5.2032470703,       -3.1433105469
1488507577.4796409607,1488507577.4819409847,        0.6020507812,        0.0244140625,       -0.1953125000,        4.3945312500,       -4.8065185547,       -3.0670166016
1488507577.4822149277,1488507577.4845058918,        0.6020507812,        0.0244140625,       -0.1972656250,        4.3945312500,       -4.8065185547,       -3.0670166016
1488507577.4847788811,1488507577.4870700836,        0.6025390625,        0.0078125000,       -0.1972656250,        4.9133300781,       -5.0506591797,       -3.4027099609
1488507577.4873440266,1488507577.4896340370,        0.6025390625,        0.0078125000,       -0.1972656250,        4.9133300781,       -5.0506591797,       -3.4027099609
1488507577.4899070263,1488507577.4922549725,        0.6025390625,        0.0078125000,       -0.1972656250,        5.1116943359,       -5.4321289062,       -3.3111572266
1488507577.4925279617,1488507577.4948260784,        0.6025390625,        0.0122070312,       -0.2041015625,        5.1116943359,       -5.4321289062,       -3.3111572266
1488507577.4951000214,1488507577.4973978996,        0.6015625000,        0.0122070312,       -0.2041015625,        5.1116943359,       -5.4779052734,       -3.1127929688
1488507577.4976720810,1488507577.4999649525,        0.6015625000,        0.0122070312,       -0.2041015625,        5.4321289062,       -5.4779052734,       -3.1127929688
1488507577.5002388954,1488507577.5026259422,        0.6015625000,        0.0122070312,       -0.2041015625,        5.4321289062,       -5.4779052734,       -2.9602050781
1488507577.5029010773,1488507577.5051939487,        0.6015625000,        0.0180664062,       -0.2050781250,        5.9509277344,       -5.4779052734,       -2.9602050781
1488507577.5054669380,1488507577.5077528954,        0.6025390625,        0.0180664062,       -0.2050781250,        5.9509277344,       -5.4779052734,       -2.7160644531
1488507577.5080270767,1488507577.5103149414,        0.6025390625,        0.0180664062,       -0.2050781250,        5.2795410156,       -5.3558349609,       -2.7160644531
1488507577.5105879307,1488507577.5129370689,        0.6025390625,        0.0180664062,       -0.2050781250,        5.2795410156,       -5.3558349609,       -2.7160644531
1488507577.5132119656,1488507577.5154950619,        0.6054687500,        0.0126953125,       -0.2021484375,        4.7760009766,       -5.2947998047,       -2.8839111328
1488507577.5157680511,1488507577.5180599689,        0.6054687500,        0.0126953125,       -0.2021484375,        4.7760009766,       -5.2947998047,       -2.8839111328
1488507577.5183320045,1488507577.5206160545,        0.6054687500,        0.0126953125,       -0.2021484375,        4.6691894531,       -5.0506591797,       -2.8991699219
1488507577.5208880901,1488507577.5232260227,        0.6054687500,        0.0126953125,       -0.2021484375,        4.6691894531,       -5.0506591797,       -2.8991699219
1488507577.5234999657,1488507577.5257871151,        0.6035156250,        0.0053710938,       -0.2080078125,        4.2877197266,       -5.4321289062,       -3.1738281250
1488507577.5260620117,1488507577.5283470154,        0.6035156250,        0.0053710938,       -0.2080078125,        4.2877197266,       -5.4321289062,       -3.1738281250
1488507577.5286209583,1488507577.5309081078,        0.6035156250,        0.0053710938,       -0.2080078125,        4.3182373047,       -5.1574707031,       -3.2348632812
1488507577.5311820507,1488507577.5334830284,        0.6035156250,        0.0053710938,       -0.2080078125,        4.3182373047,       -5.1574707031,       -3.2348632812
1488507577.5337569714,1488507577.5360460281,        0.6015625000,        0.0161132812,       -0.2036132812,        4.6081542969,       -5.2947998047,       -3.0822753906
1488507577.5364398956,1488507577.5387330055,        0.6015625000,        0.0161132812,       -0.2036132812,        4.6081542969,       -5.2947998047,       -3.0822753906
1488507577.5390050411,1488507577.5412940979,        0.6015625000,        0.0161132812,       -0.2036132812,        4.0740966797,       -5.2032470703,       -3.2348632812
1488507577.5415670872,1488507577.5439689159,        0.6015625000,        0.0161132812,       -0.2036132812,        4.0740966797,       -5.2032470703,       -3.2348632812
1488507577.5442430973,1488507577.5465269089,        0.6015625000,        0.0185546875,       -0.1899414062,        0.1678466797,       -5.0354003906,       -3.2501220703
1488507577.5468029976,1488507577.5490911007,        0.6015625000,        0.0185546875,       -0.1899414062,        3.1890869141,       -5.0354003906,       -3.2501220703
1488507577.5493650436,1488507577.5516510010,        0.6015625000,        0.0185546875,       -0.1899414062,        3.1890869141,       -5.0354003906,       -3.2958984375
1488507577.5521130562,1488507577.5543980598,        0.6015625000,        0.0185546875,       -0.1899414062,        2.5939941406,       -4.8980712891,       -3.2958984375
1488507577.5546720028,1488507577.5569570065,        0.6069335938,        0.0239257812,       -0.2084960938,        2.5939941406,       -4.8980712891,       -2.9602050781
1488507577.5577700138,1488507577.5600640774,        0.6069335938,        0.0239257812,       -0.2084960938,        2.5329589844,       -4.8217773438,       -2.9602050781
1488507577.5603380203,1488507577.5626680851,        0.6069335938,        0.0239257812,       -0.2084960938,        2.5329589844,       -5.1574707031,       -2.8228759766
1488507577.5629410744,1488507577.5652260780,        0.6069335938,        0.0239257812,       -0.2041015625,        2.1667480469,       -5.1574707031,       -2.8228759766
1488507577.5654990673,1488507577.5677840710,        0.5971679688,        0.0219726562,       -0.2041015625,        2.1667480469,       -5.1574707031,       -3.0670166016
1488507577.5680599213,1488507577.5703430176,        0.5971679688,        0.0219726562,       -0.2041015625,        1.3427734375,       -5.0201416016,       -3.0670166016
1488507577.5706179142,1488507577.5730218887,        0.5971679688,        0.0219726562,       -0.2041015625,        1.3427734375,       -5.0201416016,       -3.4179687500
1488507577.5732960701,1488507577.5755839348,        0.5971679688,        0.0219726562,       -0.2050781250,        0.6103515625,       -4.7454833984,       -3.4179687500
1488507577.5758581161,1488507577.5781450272,        0.5996093750,        0.0185546875,       -0.2050781250,        0.6103515625,       -4.7454833984,       -3.4179687500
1488507577.5784189701,1488507577.5807058811,        0.5996093750,        0.0185546875,       -0.2050781250,        0.5340576172,       -4.8828125000,       -3.2806396484
1488507577.5809800625,1488507577.5832810402,        0.5996093750,        0.0185546875,       -0.2050781250,        0.5340576172,       -4.8828125000,       -3.2806396484
1488507577.5835540295,1488507577.5858399868,        0.5996093750,        0.0156250000,       -0.1918945312,        0.6561279297,       -5.1879882812,       -3.1585693359
1488507577.5861129761,1488507577.5883998871,        0.5981445312,        0.0156250000,       -0.1918945312,        0.6561279297,       -5.1879882812,       -3.1585693359
1488507577.5886740685,1488507577.5909619331,        0.5981445312,        0.0156250000,       -0.1918945312,        0.3662109375,       -5.0201416016,       -3.2348632812
1488507577.5912349224,1488507577.5935289860,        0.5981445312,        0.0156250000,       -0.1918945312,        0.3662109375,       -5.0201416016,       -3.2348632812
1488507577.5938029289,1488507577.5960860252,        0.5981445312,        0.0214843750,       -0.1997070312,       -0.1220703125,       -5.0354003906,       -3.1738281250
1488507577.5963599682,1488507577.5986440182,        0.5976562500,        0.0214843750,       -0.1997070312,       -0.1220703125,       -5.0354003906,       -3.1738281250
1488507577.5990250111,1488507577.6013150215,        0.5976562500,        0.0214843750,       -0.1997070312,       -0.0457763672,       -5.1269531250,       -2.8076171875
1488507577.6015920639,1488507577.6039679050,        0.5976562500,        0.0214843750,       -0.1997070312,       -0.0457763672,       -5.1269531250,       -2.8076171875
1488507577.6042439938,1488507577.6065340042,        0.6020507812,        0.0249023438,       -0.1997070312,        0.1831054688,       -5.0811767578,       -2.8228759766
1488507577.6068079472,1488507577.6090989113,        0.6020507812,        0.0249023438,       -0.1997070312,        0.1831054688,       -5.0811767578,       -2.8228759766
1488507577.6093719006,1488507577.6118071079,        0.6020507812,        0.0249023438,       -0.1997070312,        0.1831054688,       -5.4168701172,       -2.8228759766
1488507577.6120810509,1488507577.6143701077,        0.6020507812,        0.0249023438,       -0.1997070312,        0.4425048828,       -5.4168701172,       -2.8228759766
1488507577.6146450043,1488507577.6169300079,        0.6030273438,        0.0180664062,       -0.1943359375,        0.4425048828,       -5.4168701172,       -2.6702880859
1488507577.6172039509,1488507577.6194870472,        0.6030273438,        0.0180664062,       -0.1943359375,        0.5340576172,       -5.2337646484,       -2.6702880859
1488507577.6197590828,1488507577.6220939159,        0.6030273438,        0.0180664062,       -0.1943359375,        0.5340576172,       -5.2337646484,       -2.4719238281
1488507577.6223690510,1488507577.6246559620,        0.6030273438,        0.0180664062,       -0.1943359375,        0.6713867188,       -5.5084228516,       -2.4719238281
1488507577.6249310970,1488507577.6272180080,        0.5917968750,        0.0219726562,       -0.1982421875,        0.6713867188,       -5.5084228516,       -2.4719238281
1488507577.6274919510,1488507577.6297800541,        0.5917968750,        0.0219726562,       -0.1982421875,        0.9002685547,       -5.4016113281,       -2.3651123047
1488507577.6300539970,1488507577.6324288845,        0.5917968750,        0.0219726562,       -0.1982421875,        0.9002685547,       -5.4016113281,       -2.3651123047
1488507577.6327049732,1488507577.6349940300,        0.5917968750,        0.0219726562,       -0.1982421875,        1.2969970703,       -5.6304931641,       -2.2430419922
1488507577.6352679729,1488507577.6375501156,        0.5937500000,        0.0151367188,       -0.1967773438,        1.2969970703,       -5.6304931641,       -2.2430419922
1488507577.6378240585,1488507577.6401040554,        0.5937500000,        0.0151367188,       -0.1967773438,        1.4648437500,       -5.8898925781,       -2.1209716797
1488507577.6403770447,1488507577.6427619457,        0.5937500000,        0.0151367188,       -0.1967773438,        1.4648437500,       -5.8898925781,       -2.1209716797
1488507577.6430408955,1488507577.6454410553,        0.5937500000,        0.0151367188,       -0.1967773438,        2.6397705078,       -5.5694580078,       -2.6397705078
1488507577.6457200050,1488507577.6481170654,        0.6005859375,        0.0151367188,       -0.2065429688,        2.6397705078,       -5.5694580078,       -2.6397705078
1488507577.6483960152,1488507577.6507968903,        0.6005859375,        0.0151367188,       -0.2065429688,        3.1280517578,       -5.7525634766,       -2.6550292969
1488507577.6510760784,1488507577.6534879208,        0.6005859375,        0.0151367188,       -0.2065429688,        3.1280517578,       -5.7525634766,       -2.6550292969
1488507577.6537671089,1488507577.6561648846,        0.6005859375,        0.0151367188,       -0.2099609375,        3.1890869141,       -5.7678222656,       -2.4108886719
1488507577.6564431190,1488507577.6588399410,        0.5932617188,        0.0156250000,       -0.2099609375,        3.1890869141,       -5.7678222656,       -2.4108886719
1488507577.6591200829,1488507577.6615190506,        0.5932617188,        0.0156250000,       -0.2099609375,        3.3111572266,       -5.5541992188,       -2.3498535156
1488507577.6619529724,1488507577.6643528938,        0.5932617188,        0.0156250000,       -0.2099609375,        3.3111572266,       -5.5541992188,       -2.3498535156
1488507577.6646320820,1488507577.6670250893,        0.5932617188,        0.0200195312,       -0.1977539062,        3.4179687500,       -5.7830810547,       -2.2888183594
1488507577.6673040390,1488507577.6697700024,        0.5961914062,        0.0200195312,       -0.1977539062,        3.4179687500,       -5.7830810547,       -2.2888183594
1488507577.6700530052,1488507577.6729080677,        0.5961914062,        0.0200195312,       -0.1977539062,        3.1890869141,       -5.5541992188,       -2.3803710938
1488507577.6731910706,1488507577.6756069660,        0.5961914062,        0.0200195312,       -0.1977539062,        3.1890869141,       -5.5541992188,       -2.3803710938
1488507577.6758880615,1488507577.6783061028,        0.6025390625,        0.0253906250,       -0.2294921875,        3.2501220703,       -5.5236816406,       -1.8005371094
1488507577.6785869598,1488507577.6810030937,        0.6025390625,        0.0253906250,       -0.2294921875,        3.2501220703,       -5.5236816406,       -1.8005371094
1488507577.6812849045,1488507577.6837179661,        0.6025390625,        0.0253906250,       -0.2294921875,        3.4790039062,       -5.2642822266,       -1.9683837891
1488507577.6839990616,1488507577.6864171028,        0.6025390625,        0.0253906250,       -0.2167968750,        3.4790039062,       -5.2642822266,       -1.9683837891
1488507577.6866989136,1488507577.6891150475,        0.5966796875,        0.0253906250,       -0.2167968750,        3.5095214844,       -5.3100585938,       -1.9836425781
1488507577.6893959045,1488507577.6918148994,        0.5966796875,        0.0253906250,       -0.2167968750,        3.5095214844,       -5.3100585938,       -1.9836425781
1488507577.6920940876,1488507577.6945109367,        0.5966796875,        0.0253906250,       -0.2167968750,        2.8533935547,       -5.4931640625,       -1.5869140625
1488507577.6947898865,1488507577.6972110271,        0.5966796875,        0.0292968750,       -0.2050781250,        2.8533935547,       -5.4931640625,       -1.5869140625
1488507577.6974909306,1488507577.6999080181,        0.5937500000,        0.0292968750,       -0.2050781250,        3.0364990234,       -5.0964355469,       -1.0986328125
1488507577.7001900673,1488507577.7025771141,        0.5937500000,        0.0292968750,       -0.2050781250,        3.0364990234,       -5.0964355469,       -1.0986328125
1488507577.7028510571,1488507577.7051401138,        0.5937500000,        0.0292968750,       -0.2050781250,        3.1890869141,       -5.0354003906,       -1.1138916016
1488507577.7054119110,1488507577.7077069283,        0.5874023438,        0.0278320312,       -0.2114257812,        3.1890869141,       -5.0354003906,       -1.1138916016
1488507577.7079799175,1488507577.7102749348,        0.5874023438,        0.0278320312,       -0.2114257812,        3.5705566406,       -4.8828125000,       -1.3580322266
1488507577.7105469704,1488507577.7128820419,        0.5874023438,        0.0278320312,       -0.2114257812,        3.5705566406,       -4.8828125000,       -1.3580322266
1488507577.7131550312,1488507577.7154490948,        0.5874023438,        0.0278320312,       -0.2114257812,        3.6926269531,       -4.8828125000,       -1.4495849609
1488507577.7157208920,1488507577.7180070877,        0.5844726562,        0.0292968750,       -0.2055664062,        3.6926269531,       -4.8828125000,       -1.4495849609
1488507577.7182800770,1488507577.7205760479,        0.5844726562,        0.0292968750,       -0.2055664062,        3.6926269531,       -5.0964355469,       -1.3885498047
1488507577.7208490372,1488507577.7232398987,        0.5844726562,        0.0292968750,       -0.2055664062,        3.5247802734,       -5.0964355469,       -1.3885498047
1488507577.7235169411,1488507577.7258090973,        0.5844726562,        0.0292968750,       -0.2055664062,        3.5247802734,       -5.0964355469,       -1.0375976562
1488507577.7261910439,1488507577.7284829617,        0.5854492188,        0.0332031250,       -0.2104492188,        3.1280517578,       -4.8370361328,       -1.0375976562
1488507577.7287569046,1488507577.7310481071,        0.5854492188,        0.0332031250,       -0.2104492188,        3.1280517578,       -4.8370361328,       -0.9613037109
1488507577.7313210964,1488507577.7338459492,        0.5854492188,        0.0332031250,       -0.2104492188,        3.5705566406,       -4.7760009766,       -0.9613037109
1488507577.7341279984,1488507577.7365460396,        0.5854492188,        0.0332031250,       -0.2104492188,        3.5705566406,       -4.7760009766,       -1.0833740234
1488507577.7368259430,1488507577.7392389774,        0.5898437500,        0.0268554688,       -0.2084960938,        3.6621093750,       -4.8980712891,       -1.0833740234
1488507577.7395219803,1488507577.7419490814,        0.5898437500,        0.0268554688,       -0.2084960938,        3.6621093750,       -4.8980712891,       -0.8697509766
1488507577.7422308922,1488507577.7446370125,        0.5898437500,        0.0268554688,       -0.2084960938,        3.3264160156,       -4.8065185547,       -0.8697509766
1488507577.7449190617,1488507577.7473349571,        0.5898437500,        0.0268554688,       -0.2133789062,        3.3264160156,       -4.8065185547,       -0.9460449219
1488507577.7476150990,1488507577.7500340939,        0.5947265625,        0.0146484375,       -0.2133789062,        3.8146972656,       -4.9133300781,       -0.9460449219
1488507577.7503139973,1488507577.7527430058,        0.5947265625,        0.0146484375,       -0.2133789062,        3.8146972656,       -4.9133300781,       -1.2054443359
1488507577.7530229092,1488507577.7554399967,        0.5947265625,        0.0146484375,       -0.2133789062,        4.0740966797,       -4.7607421875,       -1.2054443359
1488507577.7557189465,1488507577.7581310272,        0.6015625000,        0.0170898438,       -0.2094726562,        4.0740966797,       -4.7607421875,       -1.3732910156
1488507577.7584118843,1488507577.7608249187,        0.6015625000,        0.0170898438,       -0.2094726562,        3.2348632812,       -4.9591064453,       -1.3732910156
1488507577.7611050606,1488507577.7634398937,        0.6015625000,        0.0170898438,       -0.2094726562,        3.2348632812,       -4.9591064453,       -1.3732910156
1488507577.7637128830,1488507577.7660000324,        0.6015625000,        0.0170898438,       -0.2094726562,        3.4637451172,       -5.2947998047,       -1.4801025391
1488507577.7662730217,1488507577.7685599327,        0.5961914062,        0.0351562500,       -0.2036132812,        3.4637451172,       -5.2947998047,       -1.4801025391
1488507577.7688341141,1488507577.7711238861,        0.5961914062,        0.0351562500,       -0.2036132812,        2.9907226562,       -5.0964355469,       -1.3122558594
1488507577.7713980675,1488507577.7737770081,        0.5961914062,        0.0351562500,       -0.2036132812,        2.9907226562,       -5.0964355469,       -1.3122558594
1488507577.7740519047,1488507577.7763469219,        0.5961914062,        0.0351562500,       -0.2036132812,        3.0059814453,       -5.1269531250,       -1.3275146484
1488507577.7766220570,1488507577.7789111137,        0.5927734375,        0.0410156250,       -0.2187500000,        3.0059814453,       -5.1269531250,       -1.3275146484
1488507577.7791841030,1488507577.7814710140,        0.5927734375,        0.0410156250,       -0.2187500000,        2.3803710938,       -5.7220458984,       -1.4038085938
1488507577.7817440033,1488507577.7841579914,        0.5927734375,        0.0410156250,       -0.2187500000,        2.3803710938,       -5.7220458984,       -1.4038085938
1488507577.7844378948,1488507577.7868549824,        0.5927734375,        0.0410156250,       -0.2187500000,        1.7852783203,       -6.6223144531,       -1.2664794922
1488507577.7871339321,1488507577.7896819115,        0.5839843750,        0.0097656250,       -0.1943359375,        1.7852783203,       -6.6223144531,       -1.2664794922
1488507577.7900719643,1488507577.7929120064,        0.5839843750,        0.0097656250,       -0.1943359375,        1.3427734375,       -7.0037841797,       -1.8463134766
1488507577.7931950092,1488507577.7956130505,        0.5839843750,        0.0097656250,       -0.1943359375,        1.3427734375,       -7.0037841797,       -1.8463134766
1488507577.7958929539,1488507577.7983140945,        0.5839843750,       -0.0039062500,       -0.2041015625,        2.3193359375,       -7.2937011719,       -2.7618408203
1488507577.7985959053,1488507577.8010079861,        0.5751953125,       -0.0039062500,       -0.2041015625,        2.3193359375,       -7.2937011719,       -2.7618408203
1488507577.8012900352,1488507577.8037118912,        0.5751953125,       -0.0039062500,       -0.2041015625,        2.9754638672,       -7.5836181641,       -3.6926269531
1488507577.8039929867,1488507577.8064119816,        0.5751953125,       -0.0039062500,       -0.2041015625,        2.9754638672,       -7.5836181641,       -3.6926269531
1488507577.8066930771,1488507577.8091049194,        0.5766601562,       -0.0131835938,       -0.2031250000,        3.7689208984,       -8.1329345703,       -4.5471191406
1488507577.8093860149,1488507577.8118150234,        0.5766601562,       -0.0131835938,       -0.2031250000,        3.7689208984,       -8.1329345703,       -4.5471191406
1488507577.8120889664,1488507577.8143780231,        0.5766601562,       -0.0131835938,       -0.2031250000,        4.0588378906,       -8.5906982422,       -5.3405761719
1488507577.8146529198,1488507577.8169479370,        0.5766601562,       -0.0131835938,       -0.2031250000,        4.0588378906,       -8.5906982422,       -5.3405761719
1488507577.8172221184,1488507577.8195168972,        0.5942382812,        0.0068359375,       -0.1953125000,        4.2572021484,       -8.3312988281,       -5.6762695312
1488507577.8197910786,1488507577.8221290112,        0.5942382812,        0.0068359375,       -0.1953125000,        4.2572021484,       -8.3312988281,       -5.6762695312
1488507577.8224029541,1488507577.8246989250,        0.5942382812,        0.0068359375,       -0.1953125000,        3.6773681641,       -8.7280273438,       -5.9356689453
1488507577.8249740601,1488507577.8272669315,        0.5942382812,        0.0068359375,       -0.1953125000,        3.6773681641,       -8.7280273438,       -5.9356689453
1488507577.8275439739,1488507577.8298330307,        0.6142578125,        0.0185546875,       -0.2084960938,        2.6550292969,       -9.5062255859,       -6.2103271484
1488507577.8301079273,1488507577.8324019909,        0.6142578125,        0.0185546875,       -0.2084960938,        2.6550292969,       -9.5062255859,       -6.2103271484
1488507577.8326768875,1488507577.8349719048,        0.6142578125,        0.0185546875,       -0.2084960938,        2.6550292969,       -9.2315673828,       -6.2866210938
1488507577.8352439404,1488507577.8375370502,        0.6142578125,        0.0185546875,       -0.2084960938,        1.2969970703,       -9.2315673828,       -6.2866210938
1488507577.8378119469,1488507577.8401029110,        0.6064453125,        0.0366210938,       -0.2177734375,        1.2969970703,       -9.2315673828,       -5.9814453125
1488507577.8403759003,1488507577.8428208828,        0.6064453125,        0.0366210938,       -0.2177734375,        0.6256103516,       -8.6975097656,       -5.9814453125
1488507577.8430969715,1488507577.8453888893,        0.6064453125,        0.0366210938,       -0.2177734375,        0.6256103516,       -8.6975097656,       -5.7525634766
1488507577.8456630707,1488507577.8479580879,        0.6064453125,        0.0366210938,       -0.2060546875,       -0.6866455078,       -8.5906982422,       -5.7525634766
1488507577.8482310772,1488507577.8505249023,        0.6142578125,        0.0410156250,       -0.2060546875,       -0.6866455078,       -8.5906982422,       -5.7525634766
1488507577.8507978916,1488507577.8532218933,        0.6142578125,        0.0410156250,       -0.2060546875,       -1.5106201172,       -7.8125000000,       -5.4626464844
1488507577.8536078930,1488507577.8559861183,        0.6142578125,        0.0410156250,       -0.2060546875,       -1.5106201172,       -7.8125000000,       -5.4626464844
1488507577.8562641144,1488507577.8586430550,        0.6142578125,        0.0161132812,       -0.2246093750,       -1.7395019531,       -7.3089599609,       -5.4779052734
1488507577.8589220047,1488507577.8613018990,        0.6162109375,        0.0161132812,       -0.2246093750,       -1.7395019531,       -7.3089599609,       -5.4779052734
1488507577.8615810871,1488507577.8638958931,        0.6162109375,        0.0161132812,       -0.2246093750,       -1.3732910156,       -7.0953369141,       -5.4016113281
1488507577.8641679287,1488507577.8664610386,        0.6162109375,        0.0161132812,       -0.2246093750,       -1.3732910156,       -7.0953369141,       -5.4016113281
1488507577.8667340279,1488507577.8690280914,        0.6015625000,        0.0009765625,       -0.2216796875,       -0.1831054688,       -7.5836181641,       -5.5389404297
1488507577.8693020344,1488507577.8715939522,        0.6015625000,        0.0009765625,       -0.2216796875,       -0.1831054688,       -7.5836181641,       -5.5389404297
1488507577.8719930649,1488507577.8744080067,        0.6015625000,        0.0009765625,       -0.2216796875,        0.7934570312,       -7.2784423828,       -5.9356689453
1488507577.8746900558,1488507577.8771059513,        0.6015625000,        0.0009765625,       -0.2216796875,        0.7934570312,       -7.2784423828,       -5.9356689453
1488507577.8773889542,1488507577.8798050880,        0.5869140625,        0.0112304688,       -0.2324218750,        2.2888183594,       -7.0343017578,       -6.2255859375
1488507577.8800859451,1488507577.8825120926,        0.5869140625,        0.0112304688,       -0.2324218750,        2.2888183594,       -7.0343017578,       -6.2255859375
1488507577.8827929497,1488507577.8852090836,        0.5869140625,        0.0112304688,       -0.2324218750,        4.1503906250,       -6.8511962891,       -6.1798095703
1488507577.8854889870,1488507577.8879060745,        0.5869140625,        0.0112304688,       -0.2324218750,        4.1503906250,       -6.8511962891,       -6.1798095703
1488507577.8881869316,1488507577.8906059265,        0.5874023438,        0.0156250000,       -0.2338867188,        5.3405761719,       -6.7596435547,       -6.1492919922
1488507577.8908879757,1488507577.8933920860,        0.5874023438,        0.0156250000,       -0.2338867188,        5.3405761719,       -6.7596435547,       -6.1492919922
1488507577.8936738968,1488507577.8960909843,        0.5874023438,        0.0156250000,       -0.2338867188,        5.4473876953,       -6.7138671875,       -6.3629150391
1488507577.8963689804,1488507577.8987860680,        0.5874023438,        0.0156250000,       -0.2451171875,        5.4473876953,       -6.7138671875,       -6.3629150391
1488507577.8990659714,1488507577.9014809132,        0.5874023438,        0.0185546875,       -0.2451171875,        6.0577392578,       -6.1492919922,       -6.3171386719
1488507577.9017701149,1488507577.9040610790,        0.5874023438,        0.0185546875,       -0.2451171875,        6.0577392578,       -6.1492919922,       -6.3171386719
1488507577.9043350220,1488507577.9066278934,        0.5874023438,        0.0185546875,       -0.2451171875,        7.1716308594,       -6.0424804688,       -5.8898925781
1488507577.9069008827,1488507577.9093770981,        0.5874023438,        0.0346679688,       -0.2597656250,        7.1716308594,       -6.0424804688,       -5.8898925781
1488507577.9096529484,1488507577.9121758938,        0.5854492188,        0.0346679688,       -0.2597656250,        8.0108642578,       -5.5389404297,       -5.5541992188
1488507577.9124610424,1488507577.9148828983,        0.5854492188,        0.0346679688,       -0.2597656250,        8.0108642578,       -5.5389404297,       -5.5541992188
1488507577.9151639938,1488507577.9175810814,        0.5854492188,        0.0346679688,       -0.2597656250,        7.6751708984,       -5.0201416016,       -5.4779052734
1488507577.9179770947,1488507577.9203920364,        0.5922851562,        0.0278320312,       -0.2626953125,        7.6751708984,       -5.0201416016,       -5.4779052734
1488507577.9206728935,1488507577.9231030941,        0.5922851562,        0.0278320312,       -0.2626953125,        7.5531005859,       -4.4097900391,       -5.0659179688
1488507577.9233860970,1488507577.9258060455,        0.5922851562,        0.0278320312,       -0.2626953125,        7.5531005859,       -4.4097900391,       -5.0659179688
1488507577.9260849953,1488507577.9284999371,        0.5922851562,        0.0278320312,       -0.2626953125,        7.3852539062,       -4.3640136719,       -5.1422119141
1488507577.9287800789,1488507577.9311990738,        0.5981445312,        0.0214843750,       -0.2602539062,        7.3852539062,       -4.3640136719,       -5.1422119141
1488507577.9314780235,1488507577.9339020252,        0.5981445312,        0.0214843750,       -0.2602539062,        6.7291259766,       -3.7078857422,       -4.6844482422
1488507577.9341828823,1488507577.9365999699,        0.5981445312,        0.0214843750,       -0.2602539062,        6.7291259766,       -3.7078857422,       -4.6844482422
1488507577.9368820190,1488507577.9392910004,        0.5981445312,        0.0214843750,       -0.2524414062,        6.2713623047,       -3.1433105469,       -4.3945312500
1488507577.9395709038,1488507577.9419860840,        0.5991210938,        0.0327148438,       -0.2524414062,        6.2713623047,       -3.1433105469,       -4.3945312500
1488507577.9422600269,1488507577.9445490837,        0.5991210938,        0.0327148438,       -0.2524414062,        5.5541992188,       -2.6092529297,       -4.2724609375
1488507577.9448220730,1488507577.9471158981,        0.5991210938,        0.0327148438,       -0.2524414062,        5.5541992188,       -2.6092529297,       -4.2724609375
1488507577.9473888874,1488507577.9496788979,        0.5991210938,        0.0258789062,       -0.2456054688,        5.1574707031,       -2.2277832031,       -4.0130615234
1488507577.9499530792,1488507577.9522879124,        0.6142578125,        0.0258789062,       -0.2456054688,        5.1574707031,       -2.2277832031,       -4.0130615234
1488507577.9525620937,1488507577.9548521042,        0.6142578125,        0.0258789062,       -0.2456054688,        5.1574707031,       -1.5411376953,       -3.7231445312
1488507577.9551250935,1488507577.9574129581,        0.6142578125,        0.0258789062,       -0.2456054688,        4.1351318359,       -1.5411376953,       -3.7231445312
1488507577.9576849937,1488507577.9599750042,        0.6040039062,        0.0292968750,       -0.2519531250,        4.1351318359,       -1.5411376953,       -3.5095214844
1488507577.9602470398,1488507577.9626770020,        0.6040039062,        0.0292968750,       -0.2519531250,        3.0975341797,       -0.3967285156,       -3.5095214844
1488507577.9629549980,1488507577.9652450085,        0.6040039062,        0.0292968750,       -0.2519531250,        3.0975341797,       -0.3967285156,       -3.6010742188
1488507577.9655210972,1488507577.9678149223,        0.6040039062,        0.0292968750,       -0.2519531250,        1.9378662109,       -0.1373291016,       -3.6010742188
1488507577.9680879116,1488507577.9703819752,        0.6020507812,        0.0146484375,       -0.2421875000,        1.9378662109,       -0.1373291016,       -3.6926269531
1488507577.9706540108,1488507577.9731121063,        0.6020507812,        0.0146484375,       -0.2421875000,        1.0986328125,       -0.1678466797,       -3.6926269531
1488507577.9733951092,1488507577.9758141041,        0.6020507812,        0.0146484375,       -0.2421875000,        1.0986328125,       -0.1678466797,       -7.5988769531
1488507577.9760959148,1488507577.9785139561,        0.6020507812,        0.0146484375,       -0.2421875000,        0.5340576172,        0.2288818359,       -3.9520263672
1488507577.9787960052,1488507577.9812159538,        0.6098632812,        0.0126953125,       -0.2426757812,        0.5340576172,        0.2288818359,       -3.9520263672
1488507577.9816050529,1488507577.9840240479,        0.6098632812,        0.0126953125,       -0.2426757812,        0.0305175781,        0.8544921875,       -4.2419433594
1488507577.9843049049,1488507577.9867200851,        0.6098632812,        0.0126953125,       -0.2426757812,        0.0305175781,        0.8544921875,       -4.2419433594
1488507577.9870018959,1488507577.9894199371,        0.6098632812,        0.0126953125,       -0.2382812500,       -0.6256103516,        1.8920898438,       -4.8217773438
1488507577.9897019863,1488507577.9921300411,        0.6000976562,        0.0327148438,       -0.2382812500,       -0.6256103516,        1.8920898438,       -4.8217773438
1488507577.9924120903,1488507577.9948260784,        0.6000976562,        0.0327148438,       -0.2382812500,       -1.5258789062,        2.3040771484,       -5.4626464844
1488507577.9951069355,1488507577.9975230694,        0.6000976562,        0.0327148438,       -0.2382812500,       -1.5258789062,        2.3040771484,       -5.4626464844
1488507577.9978039265,1488507578.0002150536,        0.6000976562,        0.0297851562,       -0.2333984375,       -1.9378662109,        2.3956298828,       -5.5236816406
1488507578.0004949570,1488507578.0028591156,        0.5966796875,        0.0297851562,       -0.2333984375,       -1.9378662109,        2.3956298828,       -5.5236816406
1488507578.0031321049,1488507578.0054190159,        0.5966796875,        0.0297851562,       -0.2333984375,       -2.5482177734,        2.7465820312,       -6.0729980469
1488507578.0056910515,1488507578.0079789162,        0.5966796875,        0.0297851562,       -0.2333984375,       -2.5482177734,        2.7465820312,       -6.0729980469
1488507578.0082530975,1488507578.0105431080,        0.5942382812,        0.0166015625,       -0.2397460938,       -3.4179687500,        2.9907226562,       -6.5460205078
1488507578.0108170509,1488507578.0131878853,        0.5942382812,        0.0166015625,       -0.2397460938,       -3.4179687500,        2.9907226562,       -6.5460205078
1488507578.0134639740,1488507578.0157589912,        0.5942382812,        0.0166015625,       -0.2397460938,       -4.1809082031,        2.6855468750,       -7.2021484375
1488507578.0160319805,1488507578.0183269978,        0.5942382812,        0.0166015625,       -0.2397460938,       -4.1809082031,        2.6855468750,       -7.2021484375
1488507578.0185990334,1488507578.0208849907,        0.5903320312,        0.0063476562,       -0.2285156250,       -5.3253173828,        2.8076171875,       -7.9650878906
1488507578.0211589336,1488507578.0235619545,        0.5903320312,        0.0063476562,       -0.2285156250,       -5.3253173828,        2.8076171875,       -7.9650878906
1488507578.0238449574,1488507578.0262610912,        0.5903320312,        0.0063476562,       -0.2285156250,       -6.5155029297,        3.2501220703,       -8.3618164062
1488507578.0265429020,1488507578.0290439129,        0.5903320312,        0.0063476562,       -0.2285156250,       -6.5155029297,        3.2501220703,       -8.3618164062
1488507578.0293290615,1488507578.0317449570,        0.5966796875,        0.0166015625,       -0.2426757812,       -7.2937011719,        3.4332275391,       -9.1094970703
1488507578.0324530602,1488507578.0348711014,        0.5966796875,        0.0166015625,       -0.2426757812,       -7.2937011719,        3.4332275391,       -9.1094970703
1488507578.0351550579,1488507578.0375719070,        0.5966796875,        0.0166015625,       -0.2426757812,       -8.6059570312,        3.5095214844,      -10.2691650391
1488507578.0378589630,1488507578.0402779579,        0.5966796875,       -0.1083984375,       -0.2485351562,       -8.6059570312,        3.5095214844,      -10.2691650391
1488507578.0405640602,1488507578.0429940224,        0.5981445312,       -0.0009765625,       -0.2485351562,      -10.2386474609,        4.1503906250,      -11.1083984375
1488507578.0432829857,1488507578.0457010269,        0.5981445312,       -0.0009765625,       -0.2485351562,      -10.2386474609,        4.1503906250,      -11.1083984375
1488507578.0460999012,1488507578.0485188961,        0.5981445312,       -0.0009765625,       -0.2485351562,      -11.0626220703,        4.4097900391,      -12.0849609375
1488507578.0488090515,1488507578.0512259007,        0.5810546875,       -0.0009765625,       -0.2202148438,      -11.0626220703,        4.4097900391,      -12.0849609375
1488507578.0515151024,1488507578.0539429188,        0.5810546875,       -0.0009765625,       -0.2202148438,      -11.5051269531,        4.1046142578,      -13.5498046875
1488507578.0542318821,1488507578.0566489697,        0.5810546875,       -0.0009765625,       -0.2202148438,      -11.5051269531,        4.1046142578,      -13.5498046875
1488507578.0569388866,1488507578.0593569279,        0.5810546875,       -0.0009765625,       -0.2202148438,      -11.5814208984,        4.1656494141,      -15.4418945312
1488507578.0596470833,1488507578.0621089935,        0.5815429688,       -0.0156250000,       -0.2187500000,      -11.5814208984,        4.1656494141,      -15.4418945312
1488507578.0623919964,1488507578.0646829605,        0.5815429688,       -0.0156250000,       -0.2187500000,      -10.4522705078,        4.8065185547,      -16.9830322266
1488507578.0649659634,1488507578.0672569275,        0.5815429688,       -0.0156250000,       -0.2187500000,      -10.4522705078,        4.8065185547,      -16.9830322266
1488507578.0675389767,1488507578.0698330402,        0.5815429688,       -0.0156250000,       -0.2187500000,       -9.5214843750,        4.8370361328,      -18.8446044922
1488507578.0701110363,1488507578.0724050999,        0.5883789062,       -0.0170898438,       -0.2114257812,       -9.5214843750,        4.8370361328,      -18.8446044922
1488507578.0726840496,1488507578.0749750137,        0.5883789062,       -0.0170898438,       -0.2114257812,       -8.1481933594,        5.0811767578,      -20.8740234375
1488507578.0752530098,1488507578.0775470734,        0.5883789062,       -0.0170898438,       -0.2114257812,       -8.1481933594,        5.0811767578,      -20.8740234375
1488507578.0778229237,1488507578.0801179409,        0.5883789062,       -0.0170898438,       -0.2114257812,       -7.2631835938,        5.6457519531,      -22.6287841797
1488507578.0803949833,1488507578.0827999115,        0.5849609375,       -0.0126953125,       -0.2236328125,       -7.2631835938,        5.6457519531,      -22.6287841797
1488507578.0830800533,1488507578.0853741169,        0.5849609375,       -0.0126953125,       -0.2236328125,       -7.2631835938,        5.9967041016,      -24.6429443359
1488507578.0856521130,1488507578.0879459381,        0.5849609375,       -0.0126953125,       -0.2236328125,       -5.8593750000,        5.9967041016,      -24.6429443359
1488507578.0882229805,1488507578.0905139446,        0.5849609375,       -0.0126953125,       -0.2231445312,       -5.8593750000,        5.9967041016,      -26.0009765625
1488507578.0907919407,1488507578.0932459831,        0.5795898438,       -0.0058593750,       -0.2231445312,       -4.6691894531,        6.2408447266,      -26.0009765625
1488507578.0935339928,1488507578.0959498882,        0.5795898438,       -0.0058593750,       -0.2231445312,       -4.6691894531,        6.2408447266,      -27.2521972656
1488507578.0962359905,1488507578.0986490250,        0.5795898438,       -0.0058593750,       -0.2231445312,       -3.1127929688,        5.4931640625,      -27.2521972656
1488507578.0989360809,1488507578.1013550758,        0.5795898438,       -0.0019531250,       -0.2241210938,       -3.1127929688,        5.4931640625,      -27.8167724609
1488507578.1016399860,1488507578.1039769650,        0.5703125000,       -0.0019531250,       -0.2241210938,       -1.8768310547,        5.3710937500,      -27.8167724609
1488507578.1042559147,1488507578.1065430641,        0.5703125000,       -0.0019531250,       -0.2241210938,       -1.8768310547,        5.3710937500,      -28.9764404297
1488507578.1068229675,1488507578.1091129780,        0.5703125000,       -0.0019531250,       -0.2241210938,       -0.9613037109,        4.8522949219,      -28.9764404297
1488507578.1094949245,1488507578.1118059158,        0.5844726562,        0.0346679688,       -0.2197265625,       -0.9613037109,        4.8522949219,      -28.9764404297
1488507578.1120939255,1488507578.1145110130,        0.5844726562,        0.0346679688,       -0.2197265625,       -1.1749267578,        5.1116943359,      -30.0140380859
1488507578.1147971153,1488507578.1172111034,        0.5844726562,        0.0346679688,       -0.2197265625,       -1.1749267578,        5.1116943359,      -30.0140380859
1488507578.1174969673,1488507578.1199131012,        0.5844726562,        0.0346679688,       -0.2197265625,       -0.8087158203,        4.8828125000,      -30.6701660156
1488507578.1201989651,1488507578.1226201057,        0.5996093750,        0.0463867188,       -0.2094726562,       -0.8087158203,        4.8828125000,      -34.5764160156
1488507578.1229059696,1488507578.1253290176,        0.5996093750,        0.0463867188,       -0.2094726562,       -0.6103515625,        4.3792724609,      -31.5246582031
1488507578.1256148815,1488507578.1280319691,        0.5996093750,        0.0463867188,       -0.2094726562,       -0.6103515625,        4.3792724609,      -31.5246582031
1488507578.1283180714,1488507578.1307339668,        0.5996093750,        0.0463867188,       -0.2094726562,       -1.1138916016,        4.0283203125,      -32.2265625000
1488507578.1310200691,1488507578.1334431171,        0.5937500000,        0.0322265625,       -0.2133789062,       -1.1138916016,        4.0283203125,      -32.2265625000
1488507578.1337280273,1488507578.1361498833,        0.5937500000,        0.0322265625,       -0.2133789062,       -0.8850097656,        3.5858154297,      -33.2031250000
1488507578.1364340782,1488507578.1388499737,        0.5937500000,        0.0322265625,       -0.2133789062,       -0.8850097656,        3.5858154297,      -33.2031250000
1488507578.1391348839,1488507578.1415500641,        0.5937500000,        0.0151367188,       -0.1997070312,       -0.3051757812,        2.7770996094,      -34.5458984375
1488507578.1418380737,1488507578.1442658901,        0.5844726562,        0.0151367188,       -0.1997070312,       -0.3051757812,        2.7770996094,      -34.5458984375
1488507578.1445519924,1488507578.1469678879,        0.5844726562,        0.0151367188,       -0.1997070312,        0.6561279297,        2.2125244141,      -36.2396240234
1488507578.1472530365,1488507578.1498489380,        0.5844726562,        0.0151367188,       -0.1997070312,        0.6561279297,        2.2125244141,      -36.2396240234
1488507578.1501350403,1488507578.1529290676,        0.5810546875,        0.0151367188,       -0.1962890625,        2.0141601562,        1.9378662109,      -37.6586914062
1488507578.1532089710,1488507578.1555020809,        0.5810546875,        0.0151367188,       -0.1962890625,        2.0141601562,        1.9378662109,      -39.5660400391
1488507578.1557810307,1488507578.1580710411,        0.5810546875,        0.0151367188,       -0.1962890625,        4.0588378906,        1.7395019531,      -39.5660400391
1488507578.1583499908,1488507578.1606390476,        0.5810546875,        0.0151367188,       -0.1962890625,        4.0588378906,        1.7395019531,      -39.5660400391
1488507578.1609160900,1488507578.1633360386,        0.6030273438,        0.0102539062,       -0.1909179688,        5.8441162109,        0.5645751953,      -41.0919189453
1488507578.1636230946,1488507578.1660389900,        0.6030273438,        0.0102539062,       -0.1909179688,        5.8441162109,        0.5645751953,      -41.0919189453
1488507578.1663250923,1488507578.1687419415,        0.6030273438,        0.0102539062,       -0.1909179688,        6.9580078125,       -0.1373291016,      -42.2668457031
1488507578.1690289974,1488507578.1714439392,        0.6030273438,        0.0102539062,       -0.2031250000,        6.9580078125,       -0.1373291016,      -42.2668457031
1488507578.1717441082,1488507578.1741569042,        0.5976562500,        0.0351562500,       -0.2031250000,        7.4005126953,       -0.5950927734,      -43.4875488281
1488507578.1744439602,1488507578.1768639088,        0.5976562500,        0.0351562500,       -0.2031250000,        7.4005126953,       -0.5950927734,      -43.4875488281
1488507578.1772570610,1488507578.1796760559,        0.5976562500,        0.0351562500,       -0.2031250000,        8.1329345703,       -0.3204345703,      -45.2270507812
1488507578.1799631119,1488507578.1823639870,        0.6035156250,        0.0341796875,       -0.2143554688,        8.1329345703,       -0.3204345703,      -45.2270507812
1488507578.1826438904,1488507578.1849379539,        0.6035156250,        0.0341796875,       -0.2143554688,        8.1329345703,       -0.8087158203,      -46.7529296875
1488507578.1852180958,1488507578.1875030994,        0.6035156250,        0.0341796875,       -0.2143554688,        8.1329345703,       -0.8087158203,      -46.7529296875
1488507578.1877820492,1488507578.1900711060,        0.6035156250,        0.0341796875,       -0.2143554688,        8.3007812500,       -1.4038085938,      -48.1109619141
1488507578.1903500557,1488507578.1926860809,        0.5981445312,        0.0429687500,       -0.2070312500,        8.3007812500,       -1.4038085938,      -48.1109619141
1488507578.1929650307,1488507578.1952550411,        0.5981445312,        0.0429687500,       -0.2070312500,        8.6669921875,       -1.8768310547,      -49.6215820312
1488507578.1955330372,1488507578.1978271008,        0.5981445312,        0.0429687500,       -0.2070312500,        8.6669921875,       -1.8768310547,      -49.6215820312
1488507578.1981060505,1488507578.2003989220,        0.5981445312,        0.0429687500,       -0.2070312500,        9.1247558594,       -2.3193359375,      -51.1627197266
1488507578.2006781101,1488507578.2030129433,        0.5996093750,        0.0610351562,       -0.2011718750,        9.1247558594,       -2.3193359375,      -51.1627197266
1488507578.2032918930,1488507578.2055869102,        0.5996093750,        0.0610351562,       -0.2011718750,        8.7738037109,       -2.6397705078,      -53.1158447266
1488507578.2058639526,1488507578.2081561089,        0.5996093750,        0.0610351562,       -0.2011718750,        8.7738037109,       -2.6397705078,      -53.1158447266
1488507578.2084341049,1488507578.2107279301,        0.5996093750,        0.0610351562,       -0.2011718750,        8.4991455078,       -2.9602050781,      -55.3436279297
1488507578.2110071182,1488507578.2134709358,        0.5937500000,        0.0522460938,       -0.2089843750,        8.4991455078,       -2.9602050781,      -55.3436279297
1488507578.2137589455,1488507578.2161710262,        0.5937500000,        0.0522460938,       -0.2089843750,        8.4991455078,       -3.5552978516,      -57.9223632812
1488507578.2164568901,1488507578.2188720703,        0.5937500000,        0.0522460938,       -0.2089843750,        8.1634521484,       -3.5552978516,      -57.9223632812
1488507578.2191569805,1488507578.2215750217,        0.5937500000,        0.0522460938,       -0.2089843750,        4.2572021484,       -4.1809082031,      -60.5468750000
1488507578.2219018936,1488507578.2243180275,        0.6005859375,        0.0185546875,       -0.2031250000,        7.5073242188,       -4.1809082031,      -60.5468750000
1488507578.2246019840,1488507578.2270159721,        0.6005859375,        0.0185546875,       -0.2031250000,        7.5073242188,       -5.2947998047,      -63.4765625000
1488507578.2273008823,1488507578.2297129631,        0.6005859375,        0.0185546875,       -0.2031250000,        7.2174072266,       -5.2947998047,      -63.4765625000
1488507578.2299990654,1488507578.2324230671,        0.6005859375,        0.0102539062,       -0.1850585938,       11.1236572266,       -6.6223144531,      -66.0705566406
1488507578.2327129841,1488507578.2351338863,        0.5927734375,        0.0102539062,       -0.1850585938,        8.0871582031,       -6.6223144531,      -66.0705566406
1488507578.2354190350,1488507578.2378289700,        0.5927734375,        0.0102539062,       -0.1850585938,        8.0871582031,       -7.9650878906,      -69.4732666016
1488507578.2381169796,1488507578.2405309677,        0.5927734375,        0.0102539062,       -0.1850585938,        9.9334716797,       -7.9650878906,      -69.4732666016
1488507578.2409260273,1488507578.2432711124,        0.5937500000,       -0.0170898438,       -0.1923828125,       13.8397216797,       -8.8043212891,      -71.7926025391
1488507578.2435541153,1488507578.2458460331,        0.5937500000,       -0.0170898438,       -0.1923828125,       12.9241943359,       -8.8043212891,      -71.7926025391
1488507578.2461280823,1488507578.2484180927,        0.5937500000,       -0.0170898438,       -0.1923828125,       12.9241943359,       -8.8043212891,      -74.4323730469
1488507578.2486989498,1488507578.2509889603,        0.5937500000,       -0.0170898438,       -0.1923828125,       16.0369873047,       -9.3688964844,      -74.4323730469
1488507578.2512710094,1488507578.2536160946,        0.5913085938,        0.0283203125,       -0.2089843750,       16.0369873047,       -9.3688964844,      -77.0721435547
1488507578.2538979053,1488507578.2561900616,        0.5913085938,        0.0283203125,       -0.2089843750,       19.3634033203,      -10.0402832031,      -77.0721435547
1488507578.2564759254,1488507578.2587599754,        0.5913085938,        0.0283203125,       -0.2089843750,       19.3634033203,      -10.0402832031,      -80.9783935547
1488507578.2590460777,1488507578.2613289356,        0.5913085938,        0.0283203125,       -0.2089843750,       21.7742919922,      -10.9252929688,      -79.6203613281
1488507578.2616150379,1488507578.2639160156,        0.5634765625,        0.1240234375,       -0.2011718750,       21.7742919922,      -10.9252929688,      -79.6203613281
1488507578.2642009258,1488507578.2664868832,        0.5634765625,        0.1240234375,       -0.2011718750,       21.9421386719,      -12.0849609375,      -81.2072753906
1488507578.2667720318,1488507578.2691791058,        0.5634765625,        0.1240234375,       -0.2011718750,       21.9421386719,      -12.0849609375,      -81.2072753906
1488507578.2694671154,1488507578.2718269825,        0.5634765625,        0.1240234375,       -0.2011718750,       18.6004638672,      -13.3666992188,      -82.2906494141
1488507578.2721319199,1488507578.2744340897,        0.5527343750,        0.1723632812,       -0.1972656250,       18.6004638672,      -13.3666992188,      -82.2906494141
1488507578.2747220993,1488507578.2770130634,        0.5527343750,        0.1723632812,       -0.1972656250,       13.1072998047,      -15.2435302734,      -82.5958251953
1488507578.2772989273,1488507578.2795860767,        0.5527343750,        0.1723632812,       -0.1972656250,       13.1072998047,      -15.2435302734,      -82.5958251953
1488507578.2798700333,1488507578.2821640968,        0.5527343750,        0.1723632812,       -0.1972656250,        7.6599121094,      -17.7612304688,      -82.9162597656
1488507578.2824470997,1488507578.2847349644,        0.5629882812,        0.2236328125,       -0.1748046875,        7.6599121094,      -17.7612304688,      -82.9162597656
1488507578.2850170135,1488507578.2873010635,        0.5629882812,        0.2236328125,       -0.1748046875,        1.5869140625,      -19.8364257812,      -83.4197998047
1488507578.2875819206,1488507578.2898769379,        0.5629882812,        0.2236328125,       -0.1748046875,        1.5869140625,      -19.8364257812,      -83.4197998047
1488507578.2901589870,1488507578.2925090790,        0.5629882812,        0.2236328125,       -0.1386718750,       -4.0740966797,      -21.7742919922,      -85.0982666016
1488507578.2927908897,1488507578.2950789928,        0.5932617188,        0.1967773438,       -0.1386718750,       -4.0740966797,      -21.7742919922,      -85.0982666016
1488507578.2953600883,1488507578.2976479530,        0.5932617188,        0.1967773438,       -0.1386718750,       -4.0740966797,      -24.0325927734,      -87.0056152344
1488507578.2979300022,1488507578.3002130985,        0.5932617188,        0.1967773438,       -0.1386718750,       -7.4157714844,      -24.0325927734,      -87.0056152344
1488507578.3004949093,1488507578.3028309345,        0.5932617188,        0.0717773438,       -0.1264648438,       -7.4157714844,      -24.0325927734,      -89.7674560547
1488507578.3032190800,1488507578.3055100441,        0.6323242188,        0.0581054688,       -0.1264648438,       -8.1329345703,      -25.2685546875,      -89.7674560547
1488507578.3057930470,1488507578.3080780506,        0.6323242188,        0.0581054688,       -0.1264648438,       -8.1329345703,      -25.2685546875,      -93.4295654297
1488507578.3083610535,1488507578.3106460571,        0.6323242188,        0.0581054688,       -0.1264648438,       -6.3018798828,      -25.6347656250,      -93.4295654297
1488507578.3109281063,1488507578.3132610321,        0.6323242188,        0.0317382812,       -0.1582031250,       -6.3018798828,      -25.6347656250,     -101.2420654297
1488507578.3135418892,1488507578.3158280849,        0.6372070312,        0.0317382812,       -0.1582031250,       -1.1596679688,      -25.0549316406,      -98.0224609375
1488507578.3161110878,1488507578.3183999062,        0.6372070312,        0.0317382812,       -0.1582031250,       -1.1596679688,      -25.0549316406,      -98.0224609375
1488507578.3186810017,1488507578.3209650517,        0.6372070312,        0.0317382812,       -0.1582031250,        4.8217773438,      -25.4058837891,     -102.3864746094
1488507578.3212490082,1488507578.3235919476,        0.5649414062,        0.1132812500,       -0.2001953125,        4.8217773438,      -25.4058837891,     -102.3864746094
1488507578.3238739967,1488507578.3261659145,        0.5649414062,        0.1132812500,       -0.2001953125,        9.7656250000,      -26.2451171875,     -106.4453125000
1488507578.3264479637,1488507578.3287429810,        0.5649414062,        0.1132812500,       -0.2001953125,        9.7656250000,      -26.2451171875,     -106.4453125000
1488507578.3290240765,1488507578.3313159943,        0.5649414062,        0.1132812500,       -0.2001953125,       11.9323730469,      -28.0609130859,     -109.1003417969
1488507578.3316020966,1488507578.3341290951,        0.5161132812,        0.1762695312,       -0.2026367188,       11.9323730469,      -28.0609130859,     -109.1003417969
1488507578.3344230652,1488507578.3368399143,        0.5161132812,        0.1762695312,       -0.2026367188,       10.8795166016,      -29.5715332031,     -110.7788085938
1488507578.3371338844,1488507578.3395500183,        0.5161132812,        0.1762695312,       -0.2026367188,       10.8795166016,      -29.5715332031,     -110.7788085938
1488507578.3398420811,1488507578.3422999382,        0.5161132812,        0.1762695312,       -0.2026367188,        7.7667236328,      -30.3802490234,     -111.6790771484
1488507578.3425879478,1488507578.3450009823,        0.5273437500,        0.2143554688,       -0.2392578125,        7.7667236328,      -30.3802490234,     -111.6790771484
1488507578.3452889919,1488507578.3477048874,        0.5273437500,        0.2143554688,       -0.2392578125,        6.4849853516,      -31.1279296875,     -112.2894287109
1488507578.3479928970,1488507578.3504118919,        0.5273437500,        0.2143554688,       -0.2392578125,        6.4849853516,      -31.1279296875,     -112.2894287109
1488507578.3507030010,1488507578.3530600071,        0.5273437500,        0.2143554688,       -0.2338867188,        5.4321289062,      -31.8603515625,     -113.5253906250
1488507578.3533420563,1488507578.3556311131,        0.5000000000,        0.2558593750,       -0.2338867188,        5.4321289062,      -31.8603515625,     -113.5253906250
1488507578.3559110165,1488507578.3582060337,        0.5000000000,        0.2558593750,       -0.2338867188,        4.4555664062,      -32.7301025391,     -114.1815185547
1488507578.3584859371,1488507578.3607800007,        0.5000000000,        0.2558593750,       -0.2338867188,        4.4555664062,      -32.7301025391,     -114.1815185547
1488507578.3610599041,1488507578.3634519577,        0.5000000000,        0.2558593750,       -0.2709960938,        3.4790039062,      -33.4625244141,     -112.9302978516
1488507578.3637421131,1488507578.3661580086,        0.4541015625,        0.3320312500,       -0.2709960938,        3.4790039062,      -33.4625244141,     -112.9302978516
1488507578.3665590286,1488507578.3689761162,        0.4541015625,        0.3320312500,       -0.2709960938,        1.4495849609,      -34.3933105469,     -111.4196777344
1488507578.3692660332,1488507578.3717219830,        0.4541015625,        0.3320312500,       -0.2709960938,        1.4495849609,      -34.3933105469,     -111.4196777344
1488507578.3720140457,1488507578.3744289875,        0.3818359375,        0.3227539062,       -0.2407226562,       -0.9002685547,      -34.9273681641,     -110.9771728516
1488507578.3747179508,1488507578.3771300316,        0.3818359375,        0.3227539062,       -0.2407226562,       -0.9002685547,      -34.9273681641,     -110.9771728516
1488507578.3774189949,1488507578.3798360825,        0.3818359375,        0.3227539062,       -0.2407226562,       -2.4414062500,      -35.5377197266,     -108.4442138672
1488507578.3801269531,1488507578.3825550079,        0.3818359375,        0.3227539062,       -0.2407226562,       -2.4414062500,      -35.5377197266,     -108.4442138672
1488507578.3828449249,1488507578.3852610588,        0.2890625000,        0.3486328125,       -0.2797851562,       -2.8991699219,      -36.2091064453,     -105.0262451172
1488507578.3855500221,1488507578.3881731033,        0.2890625000,        0.3486328125,       -0.2797851562,       -2.8991699219,      -36.2091064453,     -105.0262451172
1488507578.3884649277,1488507578.3908720016,        0.2890625000,        0.3486328125,       -0.2797851562,       -2.1514892578,      -35.6445312500,     -101.7303466797
1488507578.3911619186,1488507578.3939809799,        0.2890625000,        0.3486328125,       -0.3002929688,       -2.1514892578,      -35.6445312500,     -101.7303466797
1488507578.3942708969,1488507578.3966848850,        0.2753906250,        0.4179687500,       -0.3002929688,       -3.0364990234,      -36.6058349609,      -98.5260009766
1488507578.3969728947,1488507578.3993909359,        0.2753906250,        0.4179687500,       -0.3002929688,       -3.0364990234,      -36.6058349609,      -98.5260009766
1488507578.3996798992,1488507578.4020879269,        0.2753906250,        0.4179687500,       -0.3002929688,       -4.5166015625,      -37.1856689453,      -94.8944091797
1488507578.4023709297,1488507578.4046618938,        0.2680664062,        0.4169921875,       -0.2885742188,       -4.5166015625,      -37.1856689453,      -94.8944091797
1488507578.4049420357,1488507578.4072299004,        0.2680664062,        0.4169921875,       -0.2885742188,       -6.1187744141,      -36.8041992188,      -90.8203125000
1488507578.4075109959,1488507578.4098029137,        0.2680664062,        0.4169921875,       -0.2885742188,       -6.1187744141,      -36.8041992188,      -90.8203125000
1488507578.4100840092,1488507578.4124269485,        0.2680664062,        0.4169921875,       -0.2885742188,       -5.6457519531,      -36.0717773438,      -86.1968994141
1488507578.4127180576,1488507578.4151339531,        0.3032226562,        0.5073242188,       -0.3510742188,       -5.6457519531,      -36.0717773438,      -86.1968994141
1488507578.4154219627,1488507578.4178380966,        0.3032226562,        0.5073242188,       -0.3510742188,       -6.1340332031,      -35.4461669922,      -81.8328857422
1488507578.4181261063,1488507578.4205439091,        0.3032226562,        0.5073242188,       -0.3510742188,       -6.1340332031,      -35.4461669922,      -81.8328857422
1488507578.4208331108,1488507578.4232089520,        0.3032226562,        0.5073242188,       -0.3510742188,       -9.9182128906,      -35.3240966797,      -77.5756835938
1488507578.4234919548,1488507578.4257879257,        0.4414062500,        0.5146484375,       -0.3676757812,       -9.9182128906,      -35.3240966797,      -77.5756835938
1488507578.4260709286,1488507578.4283618927,        0.4414062500,        0.5146484375,       -0.3676757812,      -17.7307128906,      -34.5916748047,      -73.7152099609
1488507578.4286460876,1488507578.4309449196,        0.4414062500,        0.5146484375,       -0.3676757812,      -16.2048339844,      -34.5916748047,      -73.7152099609
1488507578.4313390255,1488507578.4336540699,        0.4414062500,        0.5146484375,       -0.3676757812,      -16.2048339844,      -34.4848632812,      -72.4792480469
1488507578.4339389801,1488507578.4362299442,        0.6030273438,        0.4013671875,       -0.3725585938,      -21.6217041016,      -34.4848632812,      -72.4792480469
1488507578.4365150928,1488507578.4388110638,        0.6030273438,        0.4013671875,       -0.3725585938,      -21.6217041016,      -34.4848632812,      -72.8759765625
1488507578.4390950203,1488507578.4413900375,        0.6030273438,        0.4013671875,       -0.3725585938,      -24.1699218750,      -34.4696044922,      -72.8759765625
1488507578.4418120384,1488507578.4441099167,        0.6030273438,        0.2763671875,       -0.3554687500,      -24.1699218750,      -34.4696044922,      -74.8748779297
1488507578.4443941116,1488507578.4466829300,        0.7089843750,        0.3261718750,       -0.3554687500,      -26.1535644531,      -34.2559814453,      -74.8748779297
1488507578.4469680786,1488507578.4492630959,        0.7089843750,        0.3261718750,       -0.3554687500,      -26.1535644531,      -34.2559814453,      -74.8748779297
1488507578.4495470524,1488507578.4519960880,        0.7089843750,        0.3261718750,       -0.3554687500,      -28.2440185547,      -34.2254638672,      -77.3925781250
1488507578.4522809982,1488507578.4545800686,        0.7089843750,        0.3056640625,       -0.3374023438,      -28.2440185547,      -34.2254638672,      -77.3925781250
1488507578.4548659325,1488507578.4571540356,        0.7089843750,        0.3056640625,       -0.3374023438,      -30.3955078125,      -34.2864990234,      -79.9255371094
1488507578.4574398994,1488507578.4597339630,        0.7089843750,        0.3056640625,       -0.3374023438,      -30.3955078125,      -34.2864990234,      -79.9255371094
1488507578.4600169659,1488507578.4623489380,        0.7089843750,        0.3056640625,       -0.3374023438,      -32.8521728516,      -34.3933105469,      -83.1146240234
1488507578.4626429081,1488507578.4651279449,        0.6503906250,        0.3461914062,       -0.3808593750,      -32.8521728516,      -34.3933105469,      -83.1146240234
1488507578.4654140472,1488507578.4677109718,        0.6503906250,        0.3461914062,       -0.3808593750,      -35.2783203125,      -35.7208251953,      -85.4644775391
1488507578.4679939747,1488507578.4702839851,        0.6503906250,        0.3461914062,       -0.3808593750,      -35.2783203125,      -35.7208251953,      -85.4644775391
1488507578.4705669880,1488507578.4730560780,        0.6503906250,        0.3461914062,       -0.3808593750,      -38.1774902344,      -37.5671386719,      -86.7462158203
1488507578.4733479023,1488507578.4757289886,        0.6450195312,        0.4160156250,       -0.3549804688,      -38.1774902344,      -37.5671386719,      -86.7462158203
1488507578.4760200977,1488507578.4790029526,        0.6450195312,        0.4160156250,       -0.3549804688,      -41.1987304688,      -37.4298095703,      -87.9058837891
1488507578.4792900085,1488507578.4815819263,        0.6450195312,        0.4160156250,       -0.3549804688,      -41.1987304688,      -37.4298095703,      -87.9058837891
1488507578.4819619656,1488507578.4842491150,        0.6450195312,        0.4160156250,       -0.2397460938,      -45.2575683594,      -37.3992919922,      -89.4165039062
1488507578.4845321178,1488507578.4868240356,        0.6757812500,        0.4106445312,       -0.2397460938,      -45.2575683594,      -37.3992919922,      -89.4165039062
1488507578.4871070385,1488507578.4893980026,        0.6757812500,        0.4106445312,       -0.2397460938,      -50.1098632812,      -38.1774902344,      -91.6595458984
1488507578.4896819592,1488507578.4919800758,        0.6757812500,        0.4106445312,       -0.2397460938,      -50.1098632812,      -38.1774902344,      -91.6595458984
1488507578.4922649860,1488507578.4945549965,        0.6757812500,        0.4106445312,       -0.1728515625,      -52.0172119141,      -38.9862060547,      -93.7042236328
1488507578.4949529171,1488507578.4972429276,        0.6293945312,        0.3735351562,       -0.1728515625,      -52.0172119141,      -38.9862060547,      -93.7042236328
1488507578.4975299835,1488507578.4998240471,        0.6293945312,        0.3735351562,       -0.1728515625,      -48.9654541016,      -37.1398925781,      -95.3369140625
1488507578.5001080036,1488507578.5024049282,        0.6293945312,        0.3735351562,       -0.1728515625,      -48.9654541016,      -37.1398925781,      -95.3369140625
1488507578.5026879311,1488507578.5049769878,        0.6293945312,        0.4189453125,       -0.1020507812,      -43.5485839844,      -35.5224609375,      -96.1456298828
1488507578.5052618980,1488507578.5075509548,        0.4272460938,        0.4189453125,       -0.1020507812,      -43.5485839844,      -35.5224609375,      -96.1456298828
1488507578.5078370571,1488507578.5101289749,        0.4272460938,        0.4189453125,       -0.1020507812,      -38.2843017578,      -35.0952148438,      -97.2595214844
1488507578.5104138851,1488507578.5127210617,        0.4272460938,        0.4189453125,       -0.1020507812,      -38.2843017578,      -35.0952148438,      -97.2595214844
1488507578.5130069256,1488507578.5153019428,        0.3022460938,        0.4531250000,       -0.1416015625,      -38.2843017578,      -34.6679687500,      -97.9156494141
1488507578.5155858994,1488507578.5178759098,        0.3339843750,        0.4531250000,       -0.1416015625,      -33.4930419922,      -34.6679687500,      -97.9156494141
1488507578.5181601048,1488507578.5204589367,        0.3339843750,        0.4531250000,       -0.1416015625,      -33.4930419922,      -34.6679687500,      -98.2208251953
1488507578.5207428932,1488507578.5231950283,        0.3339843750,        0.4531250000,       -0.1416015625,      -29.8004150391,      -34.3475341797,      -98.2208251953
1488507578.5234820843,1488507578.5257740021,        0.3378906250,        0.4204101562,       -0.2490234375,      -29.8004150391,      -34.3475341797,      -98.6938476562
1488507578.5260589123,1488507578.5283589363,        0.3378906250,        0.4204101562,       -0.2490234375,      -27.0690917969,      -34.3017578125,      -98.6938476562
1488507578.5286440849,1488507578.5309410095,        0.3378906250,        0.4204101562,       -0.2490234375,      -27.0690917969,      -34.3017578125,      -98.6938476562
1488507578.5312249660,1488507578.5337259769,        0.3378906250,        0.4204101562,       -0.2490234375,      -25.0854492188,      -35.0952148438,      -99.1058349609
1488507578.5340199471,1488507578.5364389420,        0.3427734375,        0.4497070312,       -0.3466796875,      -25.0854492188,      -35.0952148438,      -99.1058349609
1488507578.5367319584,1488507578.5391418934,        0.3427734375,        0.4497070312,       -0.3466796875,      -25.6805419922,      -36.6668701172,      -99.4567871094
1488507578.5394349098,1488507578.5418939590,        0.3427734375,        0.4497070312,       -0.3466796875,      -25.6805419922,      -36.6668701172,      -99.4567871094
1488507578.5421869755,1488507578.5446000099,        0.3427734375,        0.4497070312,       -0.3466796875,      -26.3671875000,      -36.6668701172,      -99.4110107422
1488507578.5448920727,1488507578.5473110676,        0.4501953125,        0.5175781250,       -0.4619140625,      -26.3671875000,      -36.6668701172,      -99.4110107422
1488507578.5476028919,1488507578.5500240326,        0.4501953125,        0.5175781250,       -0.4619140625,      -28.2135009766,      -38.7268066406,      -97.9766845703
1488507578.5503160954,1488507578.5526940823,        0.4501953125,        0.5175781250,       -0.4619140625,      -28.2135009766,      -38.7268066406,      -97.9766845703
1488507578.5529799461,1488507578.5552790165,        0.4501953125,        0.5175781250,       -0.5551757812,      -32.1807861328,      -39.7186279297,      -98.4954833984
1488507578.5555620193,1488507578.5578470230,        0.6108398438,        0.5083007812,       -0.5551757812,      -32.1807861328,      -39.7186279297,      -98.4954833984
1488507578.5582399368,1488507578.5605330467,        0.6108398438,        0.5083007812,       -0.5551757812,      -37.3535156250,      -40.0390625000,      -99.3804931641
1488507578.5608160496,1488507578.5632009506,        0.6108398438,        0.5083007812,       -0.5551757812,      -37.3535156250,      -40.0390625000,      -99.3804931641
1488507578.5634930134,1488507578.5659759045,        0.8608398438,        0.5146484375,       -0.5727539062,      -42.8466796875,      -41.4581298828,     -100.6774902344
1488507578.5662620068,1488507578.5685551167,        0.7626953125,        0.5146484375,       -0.5727539062,      -42.8466796875,      -41.4581298828,     -100.6774902344
1488507578.5688409805,1488507578.5711319447,        0.7626953125,        0.5146484375,       -0.5727539062,      -46.5698242188,      -43.0908203125,     -101.8066406250
1488507578.5714170933,1488507578.5738749504,        0.7626953125,        0.5146484375,       -0.5727539062,      -46.5698242188,      -43.0908203125,     -101.8066406250
1488507578.5741670132,1488507578.5765500069,        0.9404296875,        0.5102539062,       -0.5883789062,      -50.4150390625,      -44.1131591797,     -104.9957275391
1488507578.5768430233,1488507578.5793859959,        0.9404296875,        0.5102539062,       -0.5883789062,      -50.4150390625,      -44.1131591797,     -104.9957275391
1488507578.5796749592,1488507578.5820920467,        0.9404296875,        0.5102539062,       -0.5883789062,      -53.7109375000,      -45.6848144531,     -108.7951660156
1488507578.5823769569,1488507578.5846700668,        0.9404296875,        0.5102539062,       -0.5883789062,      -53.7109375000,      -45.6848144531,     -108.7951660156
1488507578.5849530697,1488507578.5872449875,        1.1748046875,        0.5209960938,       -0.5888671875,      -56.3201904297,      -47.0733642578,     -113.4490966797
1488507578.5875279903,1488507578.5898120403,        1.1748046875,        0.5209960938,       -0.5888671875,      -56.3201904297,      -47.0733642578,     -113.4490966797
1488507578.5900959969,1488507578.5923910141,        1.1748046875,        0.5209960938,       -0.5888671875,      -59.4635009766,      -48.1872558594,     -118.4692382812
1488507578.5926759243,1488507578.5952239037,        1.1748046875,        0.5209960938,       -0.5888671875,      -59.4635009766,      -48.1872558594,     -118.4692382812
1488507578.5955100060,1488507578.5978040695,        1.3818359375,        0.4467773438,       -0.5698242188,      -61.4318847656,      -49.1638183594,     -122.4822998047
1488507578.5980880260,1488507578.6003739834,        1.3818359375,        0.4467773438,       -0.5698242188,      -61.4318847656,      -49.1638183594,     -122.4822998047
1488507578.6006569862,1488507578.6029489040,        1.3818359375,        0.4467773438,       -0.5698242188,      -62.6831054688,      -49.2401123047,     -126.3275146484
1488507578.6032340527,1488507578.6055250168,        1.3818359375,        0.4467773438,       -0.5219726562,      -62.6831054688,      -49.2401123047,     -126.3275146484
1488507578.6058080196,1488507578.6080970764,        1.5258789062,        0.3613281250,       -0.5219726562,      -62.9730224609,      -47.3937988281,     -128.6621093750
1488507578.6083788872,1488507578.6106660366,        1.5258789062,        0.3613281250,       -0.5219726562,      -62.9730224609,      -47.3937988281,     -128.6621093750
1488507578.6109499931,1488507578.6132829189,        1.5258789062,        0.3613281250,       -0.5219726562,      -62.9730224609,      -44.3878173828,     -130.9356689453
1488507578.6135671139,1488507578.6158568859,        1.5258789062,        0.3613281250,       -0.4248046875,      -62.5000000000,      -44.3878173828,     -130.9356689453
1488507578.6161379814,1488507578.6184298992,        1.5117187500,        0.2509765625,       -0.4248046875,      -62.5000000000,      -44.3878173828,     -130.9204101562
1488507578.6187129021,1488507578.6209959984,        1.5117187500,        0.2509765625,       -0.4248046875,      -61.0809326172,      -39.5050048828,     -130.9204101562
1488507578.6213929653,1488507578.6237599850,        1.5117187500,        0.2509765625,       -0.4248046875,      -61.0809326172,      -39.5050048828,     -127.6702880859
1488507578.6240470409,1488507578.6263349056,        1.5117187500,        0.2421875000,       -0.3432617188,      -58.6090087891,      -33.5388183594,     -127.6702880859
1488507578.6266179085,1488507578.6289019585,        1.2812500000,        0.2421875000,       -0.3432617188,      -58.6090087891,      -33.5388183594,     -123.7640380859
1488507578.6291859150,1488507578.6314749718,        1.2812500000,        0.2421875000,       -0.3432617188,      -54.3518066406,      -27.4047851562,     -121.8109130859
1488507578.6318590641,1488507578.6341600418,        1.2812500000,        0.2421875000,       -0.3432617188,      -54.3518066406,      -27.4047851562,     -121.8109130859
1488507578.6344459057,1488507578.6367340088,        0.9916992188,        0.3203125000,       -0.3120117188,      -49.0264892578,      -21.7437744141,     -113.7542724609
1488507578.6370201111,1488507578.6393079758,        0.9916992188,        0.3203125000,       -0.3120117188,      -49.0264892578,      -21.7437744141,     -113.7542724609
1488507578.6395919323,1488507578.6419188976,        0.9916992188,        0.3203125000,       -0.3120117188,      -43.5180664062,      -15.3503417969,     -103.1646728516
1488507578.6422040462,1488507578.6444931030,        0.9916992188,        0.3203125000,       -0.3120117188,      -43.5180664062,      -15.3503417969,     -103.1646728516
1488507578.6447780132,1488507578.6470670700,        0.6040039062,        0.4077148438,       -0.2866210938,      -39.0930175781,      -10.2844238281,      -91.5069580078
1488507578.6473510265,1488507578.6496388912,        0.6040039062,        0.4077148438,       -0.2866210938,      -39.0930175781,      -10.2844238281,      -91.5069580078
1488507578.6499230862,1488507578.6522119045,        0.6040039062,        0.4077148438,       -0.2866210938,      -28.8391113281,      -10.1928710938,      -79.9255371094
1488507578.6524949074,1488507578.6547899246,        0.6040039062,        0.4077148438,       -0.2866210938,      -28.8391113281,      -10.1928710938,      -79.9255371094
1488507578.6550738811,1488507578.6573660374,        0.2324218750,        0.5483398438,       -0.2734375000,      -14.6942138672,      -13.8092041016,      -69.6716308594
1488507578.6576519012,1488507578.6599481106,        0.2324218750,        0.5483398438,       -0.2734375000,      -14.6942138672,      -13.8092041016,      -69.6716308594
1488507578.6602320671,1488507578.6625831127,        0.2324218750,        0.5483398438,       -0.2734375000,       -7.3242187500,      -13.0615234375,      -64.8956298828
1488507578.6628739834,1488507578.6652901173,        0.2324218750,        0.5483398438,       -0.2734375000,       -7.3242187500,      -13.0615234375,      -64.8956298828
1488507578.6655778885,1488507578.6681029797,        0.0200195312,        0.8476562500,       -0.1450195312,       -3.4179687500,      -10.0860595703,      -65.2313232422
1488507578.6683869362,1488507578.6706790924,        0.0200195312,        0.8476562500,       -0.1450195312,       -1.9226074219,      -10.0860595703,      -65.2313232422
1488507578.6709609032,1488507578.6734640598,        0.0200195312,        0.8476562500,       -0.1450195312,        2.1209716797,       -8.4228515625,      -65.0634765625
1488507578.6737489700,1488507578.6761329174,        0.0200195312,        0.8476562500,       -0.1450195312,        2.1209716797,       -8.4228515625,      -65.0634765625
1488507578.6764190197,1488507578.6797060966,       -0.2402343750,        0.9238281250,       -0.2490234375,        0.3356933594,       -7.4310302734,      -60.4095458984
1488507578.6799869537,1488507578.6823599339,       -0.2402343750,        0.9238281250,       -0.2490234375,        0.3356933594,       -7.4310302734,      -60.4095458984
1488507578.6826388836,1488507578.6849260330,       -0.2402343750,        0.9238281250,       -0.2490234375,       -7.4005126953,      -12.2528076172,      -53.5736083984
1488507578.6853170395,1488507578.6876080036,       -0.4599609375,        0.8623046875,       -0.2729492188,       -7.4005126953,      -12.2528076172,      -53.5736083984
1488507578.6878900528,1488507578.6901779175,       -0.4599609375,        0.8623046875,       -0.2729492188,      -15.3350830078,      -19.4854736328,      -48.4008789062
1488507578.6904630661,1488507578.6927590370,       -0.4599609375,        0.8623046875,       -0.2729492188,      -15.3350830078,      -19.4854736328,      -48.4008789062
1488507578.6930429935,1488507578.6953310966,       -0.4599609375,        0.8623046875,       -0.2729492188,      -24.7955322266,      -17.2271728516,      -41.5344238281
1488507578.6956169605,1488507578.6979060173,       -0.3627929688,        0.3251953125,       -0.3017578125,      -24.7955322266,      -17.2271728516,      -41.5344238281
1488507578.6981899738,1488507578.7004730701,       -0.3627929688,        0.3251953125,       -0.3017578125,      -32.6080322266,      -13.4887695312,      -26.1535644531
1488507578.7007570267,1488507578.7030990124,       -0.3627929688,        0.3251953125,       -0.3017578125,      -34.3933105469,      -13.4887695312,      -26.1535644531
1488507578.7033829689,1488507578.7056720257,       -0.3627929688,        0.3251953125,       -0.3017578125,      -34.3933105469,      -13.4887695312,       -4.8828125000
1488507578.7059528828,1488507578.7082409859,       -0.2299804688,       -0.4833984375,        0.0703125000,      -38.8946533203,      -12.2985839844,       -4.8828125000
1488507578.7085208893,1488507578.7108070850,       -0.2299804688,       -0.4833984375,        0.0703125000,      -38.8946533203,      -12.2985839844,       16.9525146484
1488507578.7110919952,1488507578.7134370804,       -0.2299804688,       -0.4833984375,        0.0703125000,      -34.3475341797,       -9.0484619141,       16.9525146484
1488507578.7137200832,1488507578.7160089016,       -0.2299804688,       -0.4833984375,        0.0703125000,      -34.3475341797,       -9.0484619141,       36.4837646484
1488507578.7162919044,1488507578.7185831070,       -0.1171875000,       -0.7915039062,        0.0800781250,      -24.0173339844,       -6.8206787109,       35.5072021484
1488507578.7188680172,1488507578.7211549282,       -0.1171875000,       -0.7915039062,        0.0800781250,      -24.0173339844,       -6.8206787109,       35.5072021484
1488507578.7214379311,1488507578.7237830162,       -0.1171875000,       -0.7915039062,        0.0800781250,      -13.1835937500,       -6.0729980469,       51.2390136719
1488507578.7240679264,1488507578.7263638973,       -0.1171875000,       -0.7915039062,        0.0800781250,      -13.1835937500,       -6.0729980469,       51.2390136719
1488507578.7266480923,1488507578.7289450169,       -0.0483398438,       -0.5380859375,       -0.0009765625,       -8.7432861328,       -1.1749267578,       62.6220703125
1488507578.7292249203,1488507578.7315170765,       -0.0483398438,       -0.5380859375,       -0.0009765625,       -8.7432861328,       -1.1749267578,       62.6220703125
1488507578.7318730354,1488507578.7343060970,       -0.0483398438,       -0.5380859375,       -0.0009765625,       -2.1667480469,       -1.5563964844,       73.7915039062
1488507578.7345919609,1488507578.7370140553,       -0.0483398438,       -0.5380859375,       -0.1059570312,       -2.1667480469,       -1.5563964844,       73.7915039062
1488507578.7373011112,1488507578.7397179604,       -0.1059570312,       -0.2729492188,       -0.1059570312,        2.0751953125,       -3.4179687500,       89.4165039062
1488507578.7400031090,1488507578.7424230576,       -0.1059570312,       -0.2729492188,       -0.1059570312,        2.0751953125,       -3.4179687500,       89.4165039062
1488507578.7427089214,1488507578.7451329231,       -0.1059570312,       -0.2729492188,       -0.1059570312,       -1.4495849609,       -0.1831054688,      106.6131591797
1488507578.7454190254,1488507578.7478330135,       -0.1059570312,       -0.2822265625,       -0.0214843750,       -1.4495849609,       -0.1831054688,      106.6131591797
1488507578.7482209206,1488507578.7506380081,       -0.0219726562,       -0.2822265625,       -0.0214843750,       -5.4016113281,        2.7770996094,      120.4223632812
1488507578.7509241104,1488507578.7532689571,       -0.0219726562,       -0.2822265625,       -0.0214843750,       -5.4016113281,        2.7770996094,      120.4223632812
1488507578.7535479069,1488507578.7558360100,       -0.0219726562,       -0.2822265625,       -0.0214843750,       -9.8876953125,        3.7841796875,      131.2408447266
1488507578.7561159134,1488507578.7584090233,        0.0190429688,       -0.1337890625,       -0.0068359375,       -9.8876953125,        3.7841796875,      131.2408447266
1488507578.7586879730,1488507578.7609810829,        0.0190429688,       -0.1337890625,       -0.0068359375,      -16.2658691406,        5.3100585938,      141.9525146484
1488507578.7612628937,1488507578.7637140751,        0.0190429688,       -0.1337890625,       -0.0068359375,      -16.2658691406,        5.3100585938,      141.9525146484
1488507578.7640058994,1488507578.7664289474,        0.0190429688,       -0.1337890625,       -0.0068359375,      -22.9797363281,        5.8898925781,      152.9998779297
1488507578.7667179108,1488507578.7691330910,        0.0371093750,       -0.1010742188,       -0.0180664062,      -22.9797363281,        5.8898925781,      152.9998779297
1488507578.7694220543,1488507578.7718839645,        0.0371093750,       -0.1010742188,       -0.0180664062,      -28.0303955078,        6.8511962891,      163.3300781250
1488507578.7721760273,1488507578.7745950222,        0.0371093750,       -0.1010742188,       -0.0180664062,      -28.0303955078,        6.8511962891,      163.3300781250
1488507578.7748849392,1488507578.7773079872,        0.0371093750,       -0.1010742188,       -0.0229492188,      -31.5093994141,        7.2174072266,      172.8820800781
1488507578.7775990963,1488507578.7800168991,        0.0615234375,       -0.1162109375,       -0.0229492188,      -31.5093994141,        7.2174072266,      172.8820800781
1488507578.7803070545,1488507578.7827379704,        0.0615234375,       -0.1162109375,       -0.0229492188,      -34.0576171875,        7.6751708984,      182.0526123047
1488507578.7830278873,1488507578.7854490280,        0.0615234375,       -0.1162109375,       -0.0229492188,      -34.0576171875,        7.6751708984,      182.0526123047
1488507578.7857370377,1488507578.7882990837,        0.1865234375,       -0.1176757812,       -0.0087890625,      -35.7666015625,        8.2244873047,      190.5517578125
1488507578.7886049747,1488507578.7910199165,        0.1259765625,       -0.1176757812,       -0.0087890625,      -35.7666015625,        8.2244873047,      190.5517578125
1488507578.7917420864,1488507578.7940380573,        0.1259765625,       -0.1176757812,       -0.0087890625,      -35.8886718750,        9.6282958984,      198.5931396484
1488507578.7943229675,1488507578.7966139317,        0.1259765625,       -0.1176757812,       -0.0087890625,      -35.8886718750,        9.6282958984,      198.5931396484
1488507578.7968959808,1488507578.7991878986,        0.1474609375,       -0.0834960938,       -0.0161132812,      -35.5682373047,       11.4135742188,      206.0699462891
1488507578.7994730473,1488507578.8017849922,        0.1474609375,       -0.0834960938,       -0.0161132812,      -35.5682373047,       11.4135742188,      206.0699462891
1488507578.8020780087,1488507578.8044950962,        0.1474609375,       -0.0834960938,       -0.0161132812,      -32.3791503906,       12.3596191406,      213.1195068359
1488507578.8047869205,1488507578.8072109222,        0.1474609375,       -0.0834960938,       -0.0161132812,      -32.3791503906,       12.3596191406,      213.1195068359
1488507578.8075048923,1488507578.8099200726,        0.2001953125,       -0.0717773438,        0.0136718750,      -25.6042480469,       12.5732421875,      218.7194824219
1488507578.8102130890,1488507578.8126289845,        0.2001953125,       -0.0717773438,        0.0136718750,      -25.6042480469,       12.5732421875,      218.7194824219
1488507578.8129210472,1488507578.8153440952,        0.2001953125,       -0.0717773438,        0.0136718750,      -15.1824951172,       12.6953125000,      221.7559814453
1488507578.8157498837,1488507578.8181710243,        0.2001953125,       -0.0727539062,        0.0659179688,      -15.1824951172,       12.6953125000,      221.7559814453
1488507578.8184618950,1488507578.8208770752,        0.2861328125,       -0.0727539062,        0.0659179688,       -2.6092529297,       12.7410888672,      223.9227294922
1488507578.8211679459,1488507578.8234999180,        0.2861328125,       -0.0727539062,        0.0659179688,       -2.6092529297,       12.7410888672,      223.9227294922
1488507578.8237819672,1488507578.8260700703,        0.2861328125,       -0.0727539062,        0.0659179688,       11.2152099609,       13.4124755859,      225.5096435547
1488507578.8263549805,1488507578.8286519051,        0.4008789062,       -0.0312500000,        0.0820312500,       11.2152099609,       13.4124755859,      225.5096435547
1488507578.8289370537,1488507578.8312349319,        0.4008789062,       -0.0312500000,        0.0820312500,       26.8402099609,       14.6179199219,      227.4475097656
1488507578.8315188885,1488507578.8339440823,        0.4008789062,       -0.0312500000,        0.0820312500,       23.5900878906,       14.6179199219,      227.4475097656
1488507578.8342280388,1488507578.8365259171,        0.4008789062,       -0.0312500000,        0.0820312500,       27.4963378906,       17.1356201172,      230.0567626953
1488507578.8368110657,1488507578.8391070366,        0.5009765625,        0.0869140625,        0.0444335938,       31.2042236328,       17.1356201172,      230.0567626953
1488507578.8393909931,1488507578.8418309689,        0.5009765625,        0.0869140625,        0.0444335938,       31.2042236328,       21.0418701172,      231.8267822266
1488507578.8421170712,1488507578.8444149494,        0.5009765625,        0.0869140625,        0.0444335938,       33.4930419922,       20.7214355469,      231.8267822266
1488507578.8446989059,1488507578.8469929695,        0.5009765625,        0.0869140625,        0.0444335938,       33.4930419922,       20.7214355469,      233.8409423828
1488507578.8472781181,1488507578.8495719433,        0.5698242188,        0.2172851562,        0.0053710938,       33.1115722656,       24.5513916016,      233.8409423828
1488507578.8498558998,1488507578.8521780968,        0.5698242188,        0.2172851562,        0.0053710938,       33.1115722656,       24.5513916016,      237.7471923828
1488507578.8524689674,1488507578.8548529148,        0.5698242188,        0.2172851562,        0.0053710938,       32.6690673828,       27.8320312500,      235.7177734375
1488507578.8551421165,1488507578.8575229645,        0.5698242188,        0.2172851562,        0.0053710938,       32.6690673828,       27.8320312500,      235.7177734375
1488507578.8578109741,1488507578.8601861000,        0.5869140625,        0.2866210938,       -0.0346679688,       32.6080322266,       31.9061279297,      238.2507324219
1488507578.8604760170,1488507578.8629748821,        0.5869140625,        0.2866210938,       -0.0346679688,       32.6080322266,       31.9061279297,      242.1569824219
1488507578.8632678986,1488507578.8656868935,        0.5869140625,        0.2866210938,       -0.0346679688,       32.3944091797,       35.2478027344,      241.0125732422
1488507578.8659811020,1488507578.8683989048,        0.5869140625,        0.2866210938,       -0.0839843750,       32.3944091797,       35.2478027344,      244.9188232422
1488507578.8686909676,1488507578.8711059093,        0.5771484375,        0.3686523438,       -0.0839843750,       33.3709716797,       37.9028320312,      243.7286376953
1488507578.8713979721,1488507578.8738238811,        0.5771484375,        0.3686523438,       -0.0839843750,       33.3709716797,       37.9028320312,      243.7286376953
1488507578.8741168976,1488507578.8765358925,        0.5771484375,        0.3686523438,       -0.0839843750,       35.4614257812,       40.6036376953,      245.8343505859
1488507578.8768270016,1488507578.8792450428,        0.5546875000,        0.3901367188,       -0.1245117188,       35.4614257812,       40.6036376953,      245.8343505859
1488507578.8796439171,1488507578.8821089268,        0.5546875000,        0.3901367188,       -0.1245117188,       37.3687744141,       43.1060791016,      248.4893798828
1488507578.8824000359,1488507578.8848240376,        0.5546875000,        0.3901367188,       -0.1245117188,       37.3687744141,       43.1060791016,      248.4893798828
1488507578.8851170540,1488507578.8875360489,        0.5546875000,        0.3901367188,       -0.1245117188,       40.6646728516,       44.4335937500,      249.8626708984
1488507578.8878290653,1488507578.8902430534,        0.5698242188,        0.3959960938,       -0.1718750000,       40.6646728516,       44.4335937500,      249.8626708984
1488507578.8905360699,1488507578.8929600716,        0.5698242188,        0.3959960938,       -0.1718750000,       45.2117919922,       46.4019775391,      249.2675781250
1488507578.8932449818,1488507578.8955368996,        0.5698242188,        0.3959960938,       -0.1718750000,       45.2117919922,       46.4019775391,      249.2675781250
