time_stamp before, time_stamp after, Acceleration x, Acceleration y, Acceleration z, Gyro x, Gyro y, Gyro z
1488507526.0170629025,1488507526.0254039764,        0.6176757812,        0.0498046875,       -0.1538085938,        1.7089843750,       -3.4179687500,       -4.1503906250
1488507526.0257010460,1488507526.0282239914,        0.6113281250,        0.0600585938,       -0.1591796875,        1.7089843750,       -3.4179687500,       -4.1503906250
1488507526.0285038948,1488507526.0307960510,        0.6113281250,        0.0600585938,       -0.1591796875,        1.4343261719,       -3.2653808594,       -4.2419433594
1488507526.0310668945,1488507526.0335149765,        0.6113281250,        0.0600585938,       -0.1591796875,        1.4343261719,       -3.2653808594,       -4.2419433594
1488507526.0337929726,1488507526.0368700027,        0.6113281250,        0.0600585938,       -0.1591796875,        1.5258789062,       -2.9296875000,       -3.6010742188
1488507526.0371539593,1488507526.0395689011,        0.6113281250,        0.0541992188,       -0.1484375000,        1.5258789062,       -2.9296875000,       -3.6010742188
1488507526.0398468971,1488507526.0423090458,        0.6113281250,        0.0541992188,       -0.1484375000,        1.7395019531,       -2.9296875000,       -2.9296875000
1488507526.0425870419,1488507526.0450010300,        0.6113281250,        0.0541992188,       -0.1484375000,        1.7395019531,       -2.9296875000,       -2.9296875000
1488507526.0452799797,1488507526.0476949215,        0.6103515625,        0.0502929688,       -0.1547851562,        1.4953613281,       -2.9144287109,       -2.3651123047
1488507526.0479729176,1488507526.0503931046,        0.6103515625,        0.0502929688,       -0.1547851562,        1.4953613281,       -2.9144287109,       -2.3651123047
1488507526.0506699085,1488507526.0530219078,        0.6103515625,        0.0502929688,       -0.1547851562,        1.7547607422,       -2.5024414062,       -2.1514892578
1488507526.0532948971,1488507526.0555820465,        0.6103515625,        0.0502929688,       -0.1547851562,        1.7547607422,       -2.5024414062,       -2.1514892578
1488507526.0558540821,1488507526.0581440926,        0.6088867188,        0.0615234375,       -0.1660156250,        1.6021728516,       -2.3193359375,       -1.7242431641
1488507526.0584149361,1488507526.0607020855,        0.6088867188,        0.0615234375,       -0.1660156250,        1.6021728516,       -2.3193359375,       -1.7242431641
1488507526.0609738827,1488507526.0632710457,        0.6088867188,        0.0615234375,       -0.1660156250,        1.8005371094,       -2.0904541016,       -1.9378662109
1488507526.0635430813,1488507526.0658309460,        0.6088867188,        0.0615234375,       -0.1660156250,        1.8005371094,       -2.0904541016,       -1.9378662109
1488507526.0661029816,1488507526.0683889389,        0.5986328125,        0.0546875000,       -0.1586914062,        1.7852783203,       -1.9836425781,       -1.5106201172
1488507526.0686600208,1488507526.0709509850,        0.5986328125,        0.0546875000,       -0.1586914062,        1.7852783203,       -1.9836425781,       -1.5106201172
1488507526.0712239742,1488507526.0735259056,        0.5986328125,        0.0546875000,       -0.1586914062,        1.2969970703,       -2.2583007812,       -1.1291503906
1488507526.0737988949,1488507526.0760910511,        0.5986328125,        0.0546875000,       -0.1586914062,        1.2969970703,       -2.2583007812,       -1.1291503906
1488507526.0763649940,1488507526.0786640644,        0.6015625000,        0.0439453125,       -0.1650390625,        1.4190673828,       -2.3498535156,       -1.0986328125
1488507526.0789361000,1488507526.0812261105,        0.6015625000,        0.0439453125,       -0.1650390625,        1.4190673828,       -2.3498535156,       -1.0986328125
1488507526.0815000534,1488507526.0839560032,        0.6015625000,        0.0439453125,       -0.1650390625,        1.4190673828,       -2.4414062500,       -1.2664794922
1488507526.0842289925,1488507526.0865221024,        0.6015625000,        0.0439453125,       -0.1650390625,        1.4801025391,       -2.4414062500,       -1.2664794922
1488507526.0869560242,1488507526.0892460346,        0.6088867188,        0.0288085938,       -0.1552734375,        1.4801025391,       -2.3803710938,       -1.0681152344
1488507526.0895209312,1488507526.0918879509,        0.6088867188,        0.0288085938,       -0.1552734375,        1.2054443359,       -2.3803710938,       -1.0681152344
1488507526.0921740532,1488507526.0945498943,        0.6088867188,        0.0288085938,       -0.1552734375,        1.2054443359,       -2.3803710938,       -1.0528564453
1488507526.0948300362,1488507526.0972099304,        0.6088867188,        0.0288085938,       -0.1523437500,        1.5411376953,       -2.2735595703,       -1.0528564453
1488507526.0974879265,1488507526.0998721123,        0.6142578125,        0.0322265625,       -0.1523437500,        1.5411376953,       -2.2735595703,       -1.0833740234
1488507526.1001489162,1488507526.1026511192,        0.6142578125,        0.0322265625,       -0.1523437500,        1.5869140625,       -2.5939941406,       -1.0833740234
1488507526.1029319763,1488507526.1053490639,        0.6142578125,        0.0322265625,       -0.1523437500,        1.5869140625,       -2.5939941406,       -1.6479492188
1488507526.1056320667,1488507526.1080470085,        0.6162109375,        0.0429687500,       -0.1630859375,        1.2512207031,       -2.2277832031,       -1.6479492188
1488507526.1083269119,1488507526.1107459068,        0.6162109375,        0.0429687500,       -0.1630859375,        1.2512207031,       -2.2277832031,       -2.0904541016
1488507526.1110260487,1488507526.1133561134,        0.6162109375,        0.0429687500,       -0.1630859375,        1.0528564453,       -1.9683837891,       -2.0904541016
1488507526.1136291027,1488507526.1159200668,        0.6162109375,        0.0429687500,       -0.1630859375,        1.0528564453,       -1.9683837891,       -1.8768310547
1488507526.1161930561,1488507526.1184899807,        0.6206054688,        0.0424804688,       -0.1420898438,        1.2054443359,       -1.9989013672,       -1.8768310547
1488507526.1187629700,1488507526.1210579872,        0.6206054688,        0.0424804688,       -0.1420898438,        1.2054443359,       -1.9989013672,       -1.8768310547
1488507526.1213309765,1488507526.1237540245,        0.6206054688,        0.0424804688,       -0.1420898438,        1.3885498047,       -2.2888183594,       -1.8920898438
1488507526.1240370274,1488507526.1264519691,        0.6206054688,        0.0424804688,       -0.1420898438,        1.3885498047,       -2.2888183594,       -1.8920898438
1488507526.1267330647,1488507526.1291470528,        0.6171875000,        0.0307617188,       -0.1489257812,        1.3732910156,       -2.0904541016,       -1.9378662109
1488507526.1294279099,1488507526.1318440437,        0.6171875000,        0.0307617188,       -0.1489257812,        1.3732910156,       -2.0904541016,       -1.9378662109
1488507526.1321249008,1488507526.1345419884,        0.6171875000,        0.0307617188,       -0.1489257812,        1.6326904297,       -2.2735595703,       -2.0751953125
1488507526.1348209381,1488507526.1372380257,        0.6171875000,        0.0307617188,       -0.1489257812,        1.6326904297,       -2.2735595703,       -2.0751953125
1488507526.1375179291,1488507526.1399331093,        0.6127929688,        0.0390625000,       -0.1459960938,        2.5329589844,       -2.5329589844,       -2.1514892578
1488507526.1402139664,1488507526.1426429749,        0.6127929688,        0.0390625000,       -0.1459960938,        2.5329589844,       -2.5329589844,       -2.1514892578
1488507526.1429240704,1488507526.1453399658,        0.6127929688,        0.0390625000,       -0.1459960938,        2.8381347656,       -2.3193359375,       -2.6092529297
1488507526.1456189156,1488507526.1481308937,        0.6127929688,        0.0366210938,       -0.1386718750,        2.8381347656,       -2.3193359375,       -2.6092529297
1488507526.1484229565,1488507526.1508479118,        0.6142578125,        0.0366210938,       -0.1386718750,        2.8533935547,       -2.6855468750,       -2.7465820312
1488507526.1512401104,1488507526.1537079811,        0.6142578125,        0.0366210938,       -0.1386718750,        2.8533935547,       -2.6855468750,       -2.7465820312
1488507526.1539890766,1488507526.1564080715,        0.6142578125,        0.0366210938,       -0.1386718750,        2.7313232422,       -2.5634765625,       -2.9144287109
1488507526.1566898823,1488507526.1591079235,        0.6176757812,        0.0449218750,       -0.1347656250,        2.7313232422,       -2.5634765625,       -2.9144287109
1488507526.1593871117,1488507526.1618158817,        0.6176757812,        0.0449218750,       -0.1347656250,        2.5634765625,       -1.9989013672,       -3.1127929688
1488507526.1620891094,1488507526.1643819809,        0.6176757812,        0.0449218750,       -0.1347656250,        2.5634765625,       -1.9989013672,       -3.1127929688
1488507526.1646559238,1488507526.1669440269,        0.6176757812,        0.0449218750,       -0.1347656250,        1.8463134766,       -2.5177001953,       -3.2348632812
1488507526.1672170162,1488507526.1695129871,        0.6123046875,        0.0561523438,       -0.1269531250,        1.8463134766,       -2.5177001953,       -3.2348632812
1488507526.1697850227,1488507526.1721439362,        0.6123046875,        0.0561523438,       -0.1269531250,        1.0375976562,       -2.6245117188,       -3.0670166016
1488507526.1724259853,1488507526.1748449802,        0.6123046875,        0.0561523438,       -0.1269531250,        1.0375976562,       -2.6245117188,       -3.0670166016
1488507526.1751260757,1488507526.1775479317,        0.6123046875,        0.0561523438,       -0.1269531250,        0.3356933594,       -2.1209716797,       -3.5400390625
1488507526.1778290272,1488507526.1802430153,        0.6210937500,        0.0688476562,       -0.1240234375,        0.3356933594,       -2.1209716797,       -3.5400390625
1488507526.1805241108,1488507526.1828930378,        0.6210937500,        0.0688476562,       -0.1240234375,        0.0457763672,       -1.8005371094,       -3.5247802734
1488507526.1831688881,1488507526.1854689121,        0.6210937500,        0.0688476562,       -0.1240234375,        0.0457763672,       -1.8005371094,       -3.5247802734
1488507526.1857430935,1488507526.1880350113,        0.6210937500,        0.0688476562,       -0.1313476562,       -0.9002685547,       -1.6632080078,       -3.0670166016
1488507526.1883089542,1488507526.1906061172,        0.6289062500,        0.0625000000,       -0.1313476562,       -0.9002685547,       -1.6632080078,       -3.0670166016
1488507526.1908800602,1488507526.1933310032,        0.6289062500,        0.0625000000,       -0.1313476562,       -0.8850097656,       -1.9531250000,       -2.8839111328
1488507526.1936070919,1488507526.1958990097,        0.6289062500,        0.0625000000,       -0.1313476562,       -0.8850097656,       -1.9531250000,       -2.8839111328
1488507526.1961739063,1488507526.1984748840,        0.6289062500,        0.0576171875,       -0.1406250000,       -0.7476806641,       -1.5563964844,       -2.7923583984
1488507526.1987469196,1488507526.2010378838,        0.6259765625,        0.0576171875,       -0.1406250000,       -0.7476806641,       -1.5563964844,       -2.7923583984
1488507526.2013499737,1488507526.2038440704,        0.6259765625,        0.0576171875,       -0.1406250000,       -0.7934570312,       -1.9226074219,       -2.8686523438
1488507526.2041270733,1488507526.2065560818,        0.6259765625,        0.0576171875,       -0.1406250000,       -0.7934570312,       -1.9226074219,       -2.8686523438
1488507526.2068369389,1488507526.2092521191,        0.6108398438,        0.0512695312,       -0.1567382812,       -0.7934570312,       -2.0141601562,       -2.6245117188
1488507526.2095329762,1488507526.2119550705,        0.6108398438,        0.0512695312,       -0.1567382812,       -0.2288818359,       -2.0141601562,       -2.6245117188
1488507526.2122299671,1488507526.2145199776,        0.6108398438,        0.0512695312,       -0.1567382812,        3.6773681641,       -2.0141601562,       -2.7160644531
1488507526.2149150372,1488507526.2172050476,        0.6108398438,        0.0512695312,       -0.1567382812,        0.4577636719,       -2.0141601562,       -2.7160644531
1488507526.2174799442,1488507526.2197730541,        0.6088867188,        0.0468750000,       -0.1596679688,        0.4577636719,       -1.6021728516,       -3.0212402344
1488507526.2200469971,1488507526.2223970890,        0.6088867188,        0.0468750000,       -0.1596679688,        0.7476806641,       -1.6021728516,       -3.0212402344
1488507526.2226788998,1488507526.2250950336,        0.6088867188,        0.0468750000,       -0.1596679688,        0.7476806641,       -1.6021728516,       -2.7923583984
1488507526.2253758907,1488507526.2277960777,        0.6088867188,        0.0468750000,       -0.1596679688,        0.9918212891,       -1.7242431641,       -2.7923583984
1488507526.2280769348,1488507526.2304890156,        0.6035156250,        0.0546875000,       -0.1557617188,        0.9918212891,       -1.7242431641,       -2.1972656250
1488507526.2307720184,1488507526.2332029343,        0.6035156250,        0.0546875000,       -0.1557617188,        0.6561279297,       -1.2054443359,       -2.1972656250
1488507526.2334830761,1488507526.2358961105,        0.6035156250,        0.0546875000,       -0.1557617188,        0.6561279297,       -1.2054443359,       -1.9683837891
1488507526.2361769676,1488507526.2385950089,        0.6035156250,        0.0546875000,       -0.1665039062,        0.8850097656,       -1.1138916016,       -1.9683837891
1488507526.2388761044,1488507526.2412960529,        0.6108398438,        0.0571289062,       -0.1665039062,        0.8850097656,       -1.1138916016,       -1.9683837891
1488507526.2415781021,1488507526.2440209389,        0.6108398438,        0.0571289062,       -0.1665039062,        0.5645751953,       -1.1596679688,       -1.9683837891
1488507526.2442979813,1488507526.2465889454,        0.6108398438,        0.0571289062,       -0.1665039062,        0.5645751953,       -1.1596679688,       -1.5869140625
1488507526.2468640804,1488507526.2491600513,        0.6108398438,        0.0605468750,       -0.1606445312,       -0.1068115234,       -0.6256103516,       -1.5869140625
1488507526.2494370937,1488507526.2518970966,        0.6005859375,        0.0605468750,       -0.1606445312,       -0.1068115234,       -0.6256103516,       -1.5869140625
1488507526.2521820068,1488507526.2545580864,        0.6005859375,        0.0605468750,       -0.1606445312,       -0.4425048828,       -0.6256103516,       -1.4953613281
1488507526.2548370361,1488507526.2572169304,        0.6005859375,        0.0605468750,       -0.1606445312,       -0.4425048828,       -0.6256103516,       -1.4953613281
1488507526.2575559616,1488507526.2599480152,        0.6059570312,        0.0571289062,       -0.1640625000,       -0.9307861328,       -0.0610351562,       -1.0070800781
1488507526.2602291107,1488507526.2629740238,        0.6059570312,        0.0571289062,       -0.1640625000,       -0.9307861328,       -0.0610351562,       -0.6866455078
1488507526.2632539272,1488507526.2655429840,        0.6059570312,        0.0571289062,       -0.1640625000,       -1.2969970703,        0.2288818359,       -0.6866455078
1488507526.2658169270,1488507526.2681078911,        0.6059570312,        0.0571289062,       -0.1640625000,       -1.2969970703,        0.2288818359,       -0.6866455078
1488507526.2683830261,1488507526.2706749439,        0.6103515625,        0.0488281250,       -0.1518554688,       -0.8850097656,       -0.0457763672,       -0.3967285156
1488507526.2709479332,1488507526.2733559608,        0.6103515625,        0.0488281250,       -0.1518554688,       -0.8850097656,       -0.0457763672,       -0.3967285156
1488507526.2736370564,1488507526.2760560513,        0.6103515625,        0.0488281250,       -0.1518554688,       -0.4577636719,       -0.5187988281,       -0.8544921875
1488507526.2763369083,1488507526.2787489891,        0.6103515625,        0.0488281250,       -0.1518554688,       -0.4577636719,       -0.5187988281,       -0.8544921875
1488507526.2791399956,1488507526.2815570831,        0.6088867188,        0.0478515625,       -0.1386718750,       -0.4577636719,       -0.2441406250,       -1.4038085938
1488507526.2818388939,1488507526.2842600346,        0.6088867188,        0.0478515625,       -0.1386718750,       -0.4577636719,       -0.2441406250,       -1.4038085938
1488507526.2845408916,1488507526.2869610786,        0.6088867188,        0.0478515625,       -0.1386718750,       -0.0762939453,       -0.2593994141,       -1.5563964844
1488507526.2872419357,1488507526.2896618843,        0.6088867188,        0.0405273438,       -0.1459960938,       -0.0762939453,       -0.2593994141,       -1.5563964844
1488507526.2899439335,1488507526.2923479080,        0.6127929688,        0.0405273438,       -0.1459960938,       -0.0457763672,       -0.3356933594,       -1.9836425781
1488507526.2926249504,1488507526.2949159145,        0.6127929688,        0.0405273438,       -0.1459960938,       -0.0457763672,       -0.3356933594,       -1.9836425781
1488507526.2951920033,1488507526.2974839211,        0.6127929688,        0.0405273438,       -0.1459960938,        0.7019042969,       -0.7324218750,       -2.4261474609
1488507526.2977590561,1488507526.3000469208,        0.6166992188,        0.0395507812,       -0.1352539062,        0.7019042969,       -0.7324218750,       -2.4261474609
1488507526.3003220558,1488507526.3026680946,        0.6166992188,        0.0395507812,       -0.1352539062,        1.4648437500,       -0.7019042969,       -2.5634765625
1488507526.3029439449,1488507526.3052361012,        0.6166992188,        0.0395507812,       -0.1352539062,        1.4648437500,       -0.7019042969,       -2.5634765625
1488507526.3055100441,1488507526.3078050613,        0.6166992188,        0.0395507812,       -0.1352539062,        1.2359619141,       -0.8697509766,       -2.7465820312
1488507526.3080780506,1488507526.3103721142,        0.6118164062,        0.0541992188,       -0.1420898438,        1.2359619141,       -0.8697509766,       -2.7465820312
1488507526.3106460571,1488507526.3130350113,        0.6118164062,        0.0541992188,       -0.1420898438,        1.2359619141,       -0.9307861328,       -2.5939941406
1488507526.3133111000,1488507526.3156011105,        0.6118164062,        0.0541992188,       -0.1420898438,        1.2359619141,       -0.9307861328,       -2.5939941406
1488507526.3158760071,1488507526.3181700706,        0.6118164062,        0.0541992188,       -0.1420898438,        1.6632080078,       -0.6103515625,       -2.3803710938
1488507526.3184440136,1488507526.3207368851,        0.6103515625,        0.0468750000,       -0.1562500000,        1.6632080078,       -0.6103515625,       -2.3803710938
1488507526.3210120201,1488507526.3235020638,        0.6103515625,        0.0468750000,       -0.1562500000,        1.6632080078,       -0.9307861328,       -2.4871826172
1488507526.3237841129,1488507526.3261940479,        0.6103515625,        0.0468750000,       -0.1562500000,        2.1972656250,       -0.9307861328,       -2.4871826172
1488507526.3264770508,1488507526.3288910389,        0.6103515625,        0.0468750000,       -0.1562500000,        2.1972656250,       -0.9918212891,       -2.4871826172
1488507526.3291730881,1488507526.3315830231,        0.6064453125,        0.0478515625,       -0.1533203125,        2.8076171875,       -0.9918212891,       -2.4871826172
1488507526.3319079876,1488507526.3343250751,        0.6064453125,        0.0478515625,       -0.1533203125,        2.8076171875,       -0.9002685547,       -2.5939941406
1488507526.3346080780,1488507526.3370249271,        0.6064453125,        0.0478515625,       -0.1533203125,        2.7313232422,       -0.9002685547,       -2.5939941406
1488507526.3373050690,1488507526.3397209644,        0.6064453125,        0.0478515625,       -0.1577148438,        2.7313232422,       -1.1749267578,       -2.9296875000
1488507526.3400011063,1488507526.3424229622,        0.6015625000,        0.0522460938,       -0.1577148438,        2.7770996094,       -1.1749267578,       -2.9296875000
1488507526.3428099155,1488507526.3452239037,        0.6015625000,        0.0522460938,       -0.1577148438,        2.7770996094,       -1.2054443359,       -3.1280517578
1488507526.3455049992,1488507526.3479230404,        0.6015625000,        0.0522460938,       -0.1577148438,        3.0059814453,       -1.2054443359,       -3.1280517578
1488507526.3482050896,1488507526.3506200314,        0.6079101562,        0.0541992188,       -0.1547851562,        3.0059814453,       -1.0223388672,       -2.8533935547
1488507526.3509008884,1488507526.3532450199,        0.6079101562,        0.0541992188,       -0.1547851562,        3.1433105469,       -1.0223388672,       -2.8533935547
1488507526.3535189629,1488507526.3558089733,        0.6079101562,        0.0541992188,       -0.1547851562,        3.1433105469,       -1.0223388672,       -2.6092529297
1488507526.3560810089,1488507526.3583700657,        0.6079101562,        0.0541992188,       -0.1547851562,        2.8839111328,       -0.7476806641,       -2.6092529297
1488507526.3586440086,1488507526.3609359264,        0.6035156250,        0.0507812500,       -0.1464843750,        2.8839111328,       -0.7476806641,       -2.1667480469
1488507526.3612110615,1488507526.3635950089,        0.6035156250,        0.0507812500,       -0.1464843750,        3.0364990234,       -0.8544921875,       -2.1667480469
1488507526.3638699055,1488507526.3661620617,        0.6035156250,        0.0507812500,       -0.1464843750,        3.0364990234,       -0.8544921875,       -2.1667480469
1488507526.3664350510,1488507526.3687229156,        0.6035156250,        0.0507812500,       -0.1464843750,        2.3345947266,       -0.7324218750,       -2.4719238281
1488507526.3689980507,1488507526.3712899685,        0.6176757812,        0.0615234375,       -0.1503906250,        2.3345947266,       -0.7324218750,       -2.4719238281
1488507526.3715639114,1488507526.3741140366,        0.6176757812,        0.0615234375,       -0.1503906250,        2.3651123047,       -0.7476806641,       -2.3956298828
1488507526.3743948936,1488507526.3767731190,        0.6176757812,        0.0615234375,       -0.1503906250,        2.3651123047,       -0.7476806641,       -2.3956298828
1488507526.3770649433,1488507526.3797059059,        0.6176757812,        0.0615234375,       -0.1503906250,        1.6021728516,       -0.4882812500,       -1.9226074219
1488507526.3799910545,1488507526.3827290535,        0.6201171875,        0.0747070312,       -0.1518554688,        1.6021728516,       -0.4882812500,       -1.4495849609
1488507526.3830120564,1488507526.3854289055,        0.6201171875,        0.0747070312,       -0.1518554688,        1.1291503906,       -0.3356933594,       -1.4495849609
1488507526.3857100010,1488507526.3881239891,        0.6201171875,        0.0747070312,       -0.1518554688,        1.1291503906,       -0.3356933594,       -1.1138916016
1488507526.3884060383,1488507526.3908240795,        0.6166992188,        0.0659179688,       -0.1435546875,        0.8850097656,       -0.3204345703,       -1.1138916016
1488507526.3911070824,1488507526.3935339451,        0.6166992188,        0.0659179688,       -0.1435546875,        0.8850097656,       -0.3204345703,       -1.0833740234
1488507526.3938179016,1488507526.3962340355,        0.6166992188,        0.0659179688,       -0.1435546875,        0.4272460938,       -0.2899169922,       -1.0833740234
1488507526.3965139389,1488507526.3989310265,        0.6166992188,        0.0659179688,       -0.1435546875,        0.4272460938,       -0.2899169922,       -0.9613037109
1488507526.3992130756,1488507526.4016270638,        0.6176757812,        0.0644531250,       -0.1538085938,        0.1373291016,        0.0915527344,       -0.9613037109
1488507526.4019610882,1488507526.4043810368,        0.6176757812,        0.0644531250,       -0.1538085938,        0.1373291016,        0.0915527344,       -0.7324218750
1488507526.4046640396,1488507526.4070789814,        0.6176757812,        0.0644531250,       -0.1538085938,        0.2746582031,        0.1831054688,       -0.7324218750
1488507526.4074609280,1488507526.4098789692,        0.6176757812,        0.0644531250,       -0.1538085938,        0.2746582031,        0.1831054688,       -0.7629394531
1488507526.4101610184,1488507526.4125530720,        0.6147460938,        0.0615234375,       -0.1484375000,        0.2746582031,        0.1220703125,       -0.7629394531
1488507526.4128289223,1488507526.4151220322,        0.6147460938,        0.0615234375,       -0.1484375000,        0.2746582031,        0.1220703125,       -0.7629394531
1488507526.4153959751,1488507526.4176919460,        0.6147460938,        0.0615234375,       -0.1484375000,        0.0305175781,        0.4119873047,       -0.5035400391
1488507526.4179649353,1488507526.4202589989,        0.6147460938,        0.0615234375,       -0.1625976562,        0.0305175781,        0.4119873047,       -0.5035400391
1488507526.4205338955,1488507526.4228780270,        0.6088867188,        0.0634765625,       -0.1625976562,        0.0762939453,        0.1983642578,       -0.4425048828
1488507526.4231541157,1488507526.4254469872,        0.6088867188,        0.0634765625,       -0.1625976562,        0.0762939453,        0.1983642578,       -0.4425048828
1488507526.4257230759,1488507526.4280090332,        0.6088867188,        0.0634765625,       -0.1625976562,        0.3204345703,        0.1373291016,       -0.4577636719
1488507526.4282848835,1488507526.4305799007,        0.6088867188,        0.0634765625,       -0.1503906250,        0.3204345703,        0.1373291016,       -0.4577636719
1488507526.4308550358,1488507526.4332621098,        0.6079101562,        0.0561523438,       -0.1503906250,       -0.2899169922,        0.1831054688,       -0.3967285156
1488507526.4335370064,1488507526.4358289242,        0.6079101562,        0.0561523438,       -0.1503906250,       -0.2899169922,        0.1831054688,       -0.3967285156
1488507526.4361031055,1488507526.4384000301,        0.6079101562,        0.0561523438,       -0.1503906250,       -0.4730224609,        0.3662109375,       -0.2136230469
1488507526.4386739731,1488507526.4409689903,        0.6079101562,        0.0605468750,       -0.1542968750,       -0.4730224609,        0.3662109375,       -0.2136230469
1488507526.4412429333,1488507526.4436559677,        0.6127929688,        0.0605468750,       -0.1542968750,       -0.7171630859,        0.4730224609,        0.0457763672
1488507526.4439370632,1488507526.4463570118,        0.6127929688,        0.0605468750,       -0.1542968750,       -0.7171630859,        0.4730224609,        0.0457763672
1488507526.4466390610,1488507526.4490520954,        0.6127929688,        0.0605468750,       -0.1542968750,       -0.9460449219,        0.7171630859,       -0.0762939453
1488507526.4493339062,1488507526.4517591000,        0.6088867188,        0.0605468750,       -0.1450195312,       -0.9460449219,        0.7171630859,       -0.0762939453
1488507526.4520421028,1488507526.4544529915,        0.6088867188,        0.0605468750,       -0.1450195312,       -1.3122558594,        0.5035400391,        0.1220703125
1488507526.4547350407,1488507526.4571499825,        0.6088867188,        0.0605468750,       -0.1450195312,       -1.3122558594,        0.5035400391,        0.1220703125
1488507526.4574339390,1488507526.4598460197,        0.6088867188,        0.0605468750,       -0.1450195312,       -1.8768310547,        0.7476806641,        0.1068115234
1488507526.4601309299,1488507526.4625110626,        0.6093750000,        0.0585937500,       -0.1523437500,       -1.8768310547,        0.7476806641,        0.1068115234
1488507526.4627881050,1488507526.4650828838,        0.6093750000,        0.0585937500,       -0.1523437500,       -1.5258789062,        1.1901855469,        0.2593994141
1488507526.4653561115,1488507526.4676508904,        0.6093750000,        0.0585937500,       -0.1523437500,       -1.5258789062,        1.1901855469,        0.2593994141
1488507526.4679260254,1488507526.4702119827,        0.6093750000,        0.0585937500,       -0.1523437500,       -1.5258789062,        1.4648437500,        0.2441406250
1488507526.4704859257,1488507526.4727859497,        0.6044921875,        0.0576171875,       -0.1450195312,       -1.3275146484,        1.4648437500,        0.2441406250
1488507526.4731669426,1488507526.4754619598,        0.6044921875,        0.0576171875,       -0.1450195312,       -1.3275146484,        1.4648437500,        0.0152587891
1488507526.4757349491,1488507526.4780259132,        0.6044921875,        0.0576171875,       -0.1450195312,       -1.4495849609,        1.4343261719,        0.0152587891
1488507526.4782979488,1488507526.4805929661,        0.6044921875,        0.0576171875,       -0.1450195312,       -1.4495849609,        1.4343261719,        0.0762939453
1488507526.4808650017,1488507526.4832420349,        0.6132812500,        0.0546875000,       -0.1479492188,       -1.7852783203,        1.0986328125,        0.0762939453
1488507526.4835250378,1488507526.4859418869,        0.6132812500,        0.0546875000,       -0.1479492188,       -1.7852783203,        1.0986328125,       -3.8299560547
1488507526.4862229824,1488507526.4886391163,        0.6132812500,        0.0546875000,       -0.1479492188,       -1.3580322266,        0.8544921875,       -0.1831054688
1488507526.4889209270,1488507526.4913339615,        0.6132812500,        0.0541992188,       -0.1445312500,       -1.3580322266,        0.8544921875,       -0.1831054688
1488507526.4916169643,1488507526.4940369129,        0.6088867188,        0.0541992188,       -0.1445312500,       -1.1291503906,        0.8697509766,       -0.2288818359
1488507526.4943199158,1488507526.4967379570,        0.6088867188,        0.0541992188,       -0.1445312500,       -1.1291503906,        0.8697509766,       -0.2288818359
1488507526.4970180988,1488507526.4995698929,        0.6088867188,        0.0541992188,       -0.1445312500,       -1.3275146484,        0.8239746094,       -0.2746582031
1488507526.4998528957,1488507526.5027019978,        0.6015625000,        0.0576171875,       -0.1464843750,       -1.3275146484,        0.8239746094,       -0.3051757812
1488507526.5029869080,1488507526.5054049492,        0.6015625000,        0.0576171875,       -0.1464843750,       -1.6784667969,        0.9460449219,       -0.3051757812
1488507526.5056879520,1488507526.5081019402,        0.6015625000,        0.0576171875,       -0.1464843750,       -1.6784667969,        0.9460449219,       -0.0457763672
1488507526.5083839893,1488507526.5107979774,        0.6015625000,        0.0576171875,       -0.1464843750,       -1.4343261719,        0.7476806641,       -0.0457763672
1488507526.5110800266,1488507526.5134100914,        0.6040039062,        0.0590820312,       -0.1547851562,       -1.4343261719,        0.7476806641,        0.2136230469
1488507526.5136849880,1488507526.5159749985,        0.6040039062,        0.0590820312,       -0.1547851562,       -1.3122558594,        0.5340576172,        0.2136230469
1488507526.5162498951,1488507526.5185389519,        0.6040039062,        0.0590820312,       -0.1547851562,       -1.3122558594,        0.5340576172,        0.2136230469
1488507526.5188128948,1488507526.5211009979,        0.6040039062,        0.0590820312,       -0.1430664062,       -1.3427734375,        0.7324218750,        0.1983642578
1488507526.5213749409,1488507526.5237920284,        0.6074218750,        0.0571289062,       -0.1430664062,       -1.3427734375,        0.7324218750,        0.1983642578
1488507526.5240750313,1488507526.5264921188,        0.6074218750,        0.0571289062,       -0.1430664062,       -1.7852783203,        0.8850097656,        0.1373291016
1488507526.5267748833,1488507526.5291929245,        0.6074218750,        0.0571289062,       -0.1430664062,       -1.7852783203,        0.8850097656,        0.1373291016
1488507526.5294740200,1488507526.5318899155,        0.6074218750,        0.0463867188,       -0.1596679688,       -1.4190673828,        0.9155273438,       -0.1220703125
1488507526.5321650505,1488507526.5344560146,        0.6142578125,        0.0463867188,       -0.1596679688,       -1.4190673828,        0.9155273438,       -0.1220703125
1488507526.5347309113,1488507526.5370209217,        0.6142578125,        0.0463867188,       -0.1596679688,       -1.8463134766,        0.9155273438,        0.0610351562
1488507526.5373990536,1488507526.5396950245,        0.6142578125,        0.0463867188,       -0.1596679688,       -1.8463134766,        0.9155273438,        0.0610351562
1488507526.5399689674,1488507526.5423059464,        0.6162109375,        0.0473632812,       -0.1484375000,       -1.7089843750,        0.9155273438,        0.0762939453
1488507526.5425798893,1488507526.5448679924,        0.6162109375,        0.0473632812,       -0.1484375000,       -1.7089843750,        0.9155273438,        0.0762939453
1488507526.5451428890,1488507526.5474340916,        0.6162109375,        0.0473632812,       -0.1484375000,       -1.1901855469,        0.9918212891,       -0.1678466797
1488507526.5477099419,1488507526.5499949455,        0.6162109375,        0.0473632812,       -0.1484375000,       -1.1901855469,        0.9918212891,       -0.1678466797
1488507526.5502700806,1488507526.5526499748,        0.6162109375,        0.0483398438,       -0.1508789062,       -1.0528564453,        1.0681152344,       -0.4425048828
1488507526.5529251099,1488507526.5552179813,        0.6162109375,        0.0483398438,       -0.1508789062,       -1.0528564453,        1.0681152344,       -0.4425048828
1488507526.5554931164,1488507526.5577890873,        0.6162109375,        0.0483398438,       -0.1508789062,       -0.9765625000,        0.9918212891,       -0.3356933594
1488507526.5580639839,1488507526.5603570938,        0.6162109375,        0.0483398438,       -0.1508789062,       -0.9765625000,        0.9918212891,       -0.3356933594
1488507526.5606310368,1488507526.5630369186,        0.6157226562,        0.0439453125,       -0.1518554688,       -0.9002685547,        1.0223388672,       -0.3204345703
1488507526.5633139610,1488507526.5656089783,        0.6157226562,        0.0439453125,       -0.1518554688,       -0.9002685547,        1.0223388672,       -0.3204345703
1488507526.5658829212,1488507526.5681760311,        0.6157226562,        0.0439453125,       -0.1518554688,       -0.9002685547,        0.7934570312,       -0.4119873047
1488507526.5684499741,1488507526.5707418919,        0.6157226562,        0.0439453125,       -0.1518554688,       -0.5950927734,        0.7934570312,       -0.4119873047
1488507526.5710160732,1488507526.5734119415,        0.6166992188,        0.0541992188,       -0.1494140625,       -0.5950927734,        0.7934570312,       -0.5950927734
1488507526.5736980438,1488507526.5761129856,        0.6166992188,        0.0541992188,       -0.1494140625,       -0.7476806641,        1.0070800781,       -0.5950927734
1488507526.5763950348,1488507526.5788099766,        0.6166992188,        0.0541992188,       -0.1494140625,       -0.7476806641,        1.0070800781,       -0.7934570312
1488507526.5790920258,1488507526.5815029144,        0.6166992188,        0.0541992188,       -0.1494140625,       -1.3122558594,        1.1596679688,       -0.7934570312
1488507526.5817930698,1488507526.5842080116,        0.6069335938,        0.0502929688,       -0.1518554688,       -1.3122558594,        1.1596679688,       -1.0223388672
1488507526.5844860077,1488507526.5869019032,        0.6069335938,        0.0502929688,       -0.1518554688,       -1.5716552734,        1.3580322266,       -1.0223388672
1488507526.5871839523,1488507526.5895960331,        0.6069335938,        0.0502929688,       -0.1518554688,       -1.5716552734,        1.3580322266,       -1.3275146484
1488507526.5898740292,1488507526.5922720432,        0.6069335938,        0.0507812500,       -0.1420898438,       -1.2359619141,        1.5411376953,       -1.3275146484
1488507526.5925459862,1488507526.5948369503,        0.6108398438,        0.0507812500,       -0.1420898438,       -1.2359619141,        1.5411376953,       -1.3275146484
1488507526.5951089859,1488507526.5974020958,        0.6108398438,        0.0507812500,       -0.1420898438,       -1.3580322266,        1.7242431641,       -1.2969970703
1488507526.5976760387,1488507526.5999710560,        0.6108398438,        0.0507812500,       -0.1420898438,       -1.3580322266,        1.7242431641,       -1.2969970703
1488507526.6003499031,1488507526.6027519703,        0.6108398438,        0.0546875000,       -0.1318359375,       -1.3732910156,        1.1749267578,       -1.2207031250
1488507526.6030321121,1488507526.6054449081,        0.6113281250,        0.0546875000,       -0.1318359375,       -1.3732910156,        1.1749267578,       -1.2207031250
1488507526.6057250500,1488507526.6081349850,        0.6113281250,        0.0546875000,       -0.1318359375,       -1.4953613281,        1.5106201172,       -1.4190673828
1488507526.6084148884,1488507526.6108260155,        0.6113281250,        0.0546875000,       -0.1318359375,       -1.4953613281,        1.5106201172,       -1.4190673828
1488507526.6111059189,1488507526.6134428978,        0.6162109375,        0.0498046875,       -0.1459960938,       -1.7089843750,        1.4190673828,       -1.1444091797
1488507526.6137170792,1488507526.6160080433,        0.6162109375,        0.0498046875,       -0.1459960938,       -1.7089843750,        1.4190673828,       -1.1444091797
1488507526.6162810326,1488507526.6187410355,        0.6162109375,        0.0498046875,       -0.1459960938,       -1.9836425781,        0.9918212891,       -0.7629394531
1488507526.6190168858,1488507526.6213181019,        0.6162109375,        0.0498046875,       -0.1459960938,       -1.9836425781,        0.9918212891,       -0.7629394531
1488507526.6215929985,1488507526.6243469715,        0.6171875000,        0.0585937500,       -0.1455078125,       -1.8920898438,        1.2207031250,       -0.9918212891
1488507526.6246330738,1488507526.6270520687,        0.6171875000,        0.0585937500,       -0.1455078125,       -1.8920898438,        1.2207031250,       -0.9918212891
1488507526.6273341179,1488507526.6297550201,        0.6171875000,        0.0585937500,       -0.1455078125,       -2.1057128906,        0.7171630859,       -0.8544921875
1488507526.6300361156,1488507526.6325008869,        0.6171875000,        0.0585937500,       -0.1455078125,       -2.1057128906,        0.7171630859,       -0.8544921875
1488507526.6327829361,1488507526.6352000237,        0.6250000000,        0.0678710938,       -0.1455078125,       -1.4190673828,        1.0070800781,       -0.8087158203
1488507526.6354799271,1488507526.6378939152,        0.6250000000,        0.0678710938,       -0.1455078125,       -1.4190673828,        1.0070800781,       -0.8087158203
1488507526.6381759644,1488507526.6405920982,        0.6250000000,        0.0678710938,       -0.1455078125,       -1.7547607422,        1.0223388672,       -0.5798339844
1488507526.6408751011,1488507526.6433029175,        0.6152343750,        0.0527343750,       -0.1440429688,       -1.7547607422,        1.0223388672,       -0.5798339844
1488507526.6435840130,1488507526.6459970474,        0.6152343750,        0.0527343750,       -0.1440429688,       -1.5869140625,        0.9765625000,       -0.3662109375
1488507526.6462800503,1488507526.6491210461,        0.6152343750,        0.0527343750,       -0.1440429688,       -1.5869140625,        0.9765625000,       -0.3662109375
1488507526.6493980885,1488507526.6517589092,        0.6152343750,        0.0527343750,       -0.1440429688,       -1.6784667969,        1.1444091797,       -0.3356933594
1488507526.6520330906,1488507526.6543240547,        0.6059570312,        0.0546875000,       -0.1523437500,       -1.6784667969,        1.1444091797,       -0.3356933594
1488507526.6545979977,1488507526.6568889618,        0.6059570312,        0.0546875000,       -0.1523437500,       -2.1972656250,        1.6174316406,       -0.4425048828
1488507526.6571629047,1488507526.6594519615,        0.6059570312,        0.0546875000,       -0.1523437500,       -2.1972656250,        1.6174316406,       -0.4425048828
1488507526.6597259045,1488507526.6620209217,        0.6059570312,        0.0546875000,       -0.1523437500,       -1.8920898438,        1.1901855469,       -0.4272460938
1488507526.6622960567,1488507526.6645820141,        0.5976562500,        0.0615234375,       -0.1347656250,       -1.8920898438,        1.1901855469,       -0.4272460938
1488507526.6649789810,1488507526.6672670841,        0.5976562500,        0.0615234375,       -0.1347656250,       -1.5106201172,        0.9765625000,       -0.8087158203
1488507526.6675429344,1488507526.6698379517,        0.5976562500,        0.0615234375,       -0.1347656250,       -1.5106201172,        0.9765625000,       -0.8087158203
1488507526.6701109409,1488507526.6724109650,        0.5976562500,        0.0615234375,       -0.1347656250,       -2.0599365234,        0.3356933594,       -0.3967285156
1488507526.6726849079,1488507526.6749789715,        0.5971679688,        0.0698242188,       -0.1401367188,       -2.0599365234,        0.3356933594,       -0.3967285156
1488507526.6752529144,1488507526.6775379181,        0.5971679688,        0.0698242188,       -0.1401367188,       -2.0294189453,        0.3509521484,       -0.2593994141
1488507526.6778120995,1488507526.6801030636,        0.5971679688,        0.0698242188,       -0.1401367188,       -2.0294189453,        0.3509521484,       -0.2593994141
1488507526.6803779602,1488507526.6826970577,        0.5971679688,        0.0698242188,       -0.1279296875,       -2.0294189453,        0.2288818359,       -0.2136230469
1488507526.6829700470,1488507526.6852591038,        0.6142578125,        0.0698242188,       -0.1279296875,       -2.0446777344,        0.2288818359,       -0.2136230469
1488507526.6855320930,1488507526.6878230572,        0.6142578125,        0.0698242188,       -0.1279296875,       -2.0446777344,        0.2288818359,       -0.1373291016
1488507526.6880970001,1488507526.6903889179,        0.6142578125,        0.0698242188,       -0.1279296875,       -1.9073486328,        0.5035400391,       -0.1373291016
1488507526.6906650066,1488507526.6930730343,        0.6142578125,        0.0698242188,       -0.1367187500,       -1.9073486328,        0.5035400391,       -0.1983642578
1488507526.6933488846,1488507526.6956479549,        0.6088867188,        0.0605468750,       -0.1367187500,       -0.8850097656,        0.3814697266,       -0.1983642578
1488507526.6959249973,1488507526.6982150078,        0.6088867188,        0.0605468750,       -0.1367187500,       -0.8850097656,        0.3814697266,       -0.1983642578
1488507526.6984899044,1488507526.7007820606,        0.6088867188,        0.0605468750,       -0.1367187500,       -0.4730224609,        0.4730224609,       -0.0610351562
1488507526.7010569572,1488507526.7034609318,        0.6088867188,        0.0415039062,       -0.1469726562,       -0.4730224609,        0.4730224609,       -0.0610351562
1488507526.7037439346,1488507526.7061591148,        0.6186523438,        0.0415039062,       -0.1469726562,       -0.5493164062,        0.4272460938,       -0.1831054688
1488507526.7064399719,1488507526.7088561058,        0.6186523438,        0.0415039062,       -0.1469726562,       -0.5493164062,        0.4272460938,       -0.1831054688
1488507526.7091369629,1488507526.7115540504,        0.6186523438,        0.0415039062,       -0.1469726562,       -0.0610351562,        0.7781982422,       -0.2441406250
1488507526.7118399143,1488507526.7141270638,        0.6289062500,        0.0371093750,       -0.1450195312,       -0.0610351562,        0.7781982422,       -0.2441406250
1488507526.7144041061,1488507526.7166950703,        0.6289062500,        0.0371093750,       -0.1450195312,        1.2664794922,        0.3509521484,       -0.3356933594
1488507526.7169709206,1488507526.7192609310,        0.6289062500,        0.0371093750,       -0.1450195312,        1.2664794922,        0.3509521484,       -0.3356933594
1488507526.7195339203,1488507526.7218430042,        0.6289062500,        0.0371093750,       -0.1450195312,        2.0751953125,        0.7934570312,       -0.4730224609
1488507526.7221250534,1488507526.7245500088,        0.6215820312,        0.0375976562,       -0.1596679688,        2.0751953125,        0.7934570312,       -0.4730224609
1488507526.7248311043,1488507526.7272479534,        0.6215820312,        0.0375976562,       -0.1596679688,        1.6632080078,        0.7629394531,       -0.7629394531
1488507526.7276370525,1488507526.7300479412,        0.6215820312,        0.0375976562,       -0.1596679688,        1.6632080078,        0.7629394531,       -0.7629394531
1488507526.7303318977,1488507526.7327098846,        0.6215820312,        0.0375976562,       -0.1596679688,        1.3427734375,        1.0375976562,       -0.7781982422
1488507526.7329840660,1488507526.7352790833,        0.6196289062,        0.0429687500,       -0.1518554688,        1.3427734375,        1.0375976562,       -0.7781982422
1488507526.7355530262,1488507526.7378480434,        0.6196289062,        0.0429687500,       -0.1518554688,        1.6479492188,        1.0833740234,       -0.9613037109
1488507526.7381210327,1488507526.7404139042,        0.6196289062,        0.0429687500,       -0.1518554688,        1.6479492188,        1.0833740234,       -0.9613037109
1488507526.7406868935,1488507526.7431569099,        0.6196289062,        0.0429687500,       -0.1518554688,        2.4566650391,        1.2054443359,       -1.1138916016
1488507526.7434289455,1488507526.7457289696,        0.6191406250,        0.0224609375,       -0.1479492188,        2.4566650391,        1.2054443359,       -1.1138916016
1488507526.7460019588,1488507526.7482941151,        0.6191406250,        0.0224609375,       -0.1479492188,        1.8615722656,        1.2664794922,       -1.0833740234
1488507526.7485671043,1488507526.7508640289,        0.6191406250,        0.0224609375,       -0.1479492188,        1.8615722656,        1.2664794922,       -1.0833740234
1488507526.7511379719,1488507526.7536129951,        0.6191406250,        0.0224609375,       -0.1503906250,        1.3580322266,        1.6784667969,       -1.2359619141
1488507526.7538969517,1488507526.7562971115,        0.6137695312,        0.0332031250,       -0.1503906250,        1.3580322266,        1.6784667969,       -1.2359619141
1488507526.7565760612,1488507526.7590560913,        0.6137695312,        0.0332031250,       -0.1503906250,        1.3580322266,        1.9073486328,       -1.4038085938
1488507526.7593359947,1488507526.7617490292,        0.6137695312,        0.0332031250,       -0.1503906250,        1.2969970703,        1.9073486328,       -1.4038085938
1488507526.7624239922,1488507526.7647190094,        0.6147460938,        0.0644531250,       -0.1464843750,        0.7781982422,        2.0141601562,       -1.4801025391
1488507526.7649960518,1488507526.7672889233,        0.6147460938,        0.0644531250,       -0.1464843750,        0.7781982422,        2.0141601562,       -1.4801025391
1488507526.7675650120,1488507526.7698550224,        0.6147460938,        0.0644531250,       -0.1464843750,        0.7781982422,        2.0141601562,       -1.7089843750
1488507526.7701289654,1488507526.7725191116,        0.6147460938,        0.0644531250,       -0.1464843750,        0.7934570312,        2.0141601562,       -1.7089843750
1488507526.7728021145,1488507526.7752220631,        0.6171875000,        0.0659179688,       -0.1425781250,        0.7934570312,        2.2125244141,       -1.4190673828
1488507526.7755029202,1488507526.7779150009,        0.6171875000,        0.0659179688,       -0.1425781250,        0.3051757812,        2.2125244141,       -1.4190673828
1488507526.7781949043,1488507526.7806179523,        0.6171875000,        0.0659179688,       -0.1425781250,        0.3051757812,        2.5939941406,       -1.1901855469
1488507526.7808980942,1488507526.7833240032,        0.6171875000,        0.0659179688,       -0.1425781250,       -0.2441406250,        2.5939941406,       -1.1901855469
1488507526.7836050987,1488507526.7860190868,        0.6093750000,        0.0683593750,       -0.1425781250,       -0.2441406250,        2.7465820312,       -1.0070800781
1488507526.7862999439,1488507526.7887189388,        0.6093750000,        0.0683593750,       -0.1425781250,       -0.8087158203,        2.7465820312,       -1.0070800781
1488507526.7889990807,1488507526.7914090157,        0.6093750000,        0.0683593750,       -0.1425781250,       -0.8087158203,        3.1280517578,       -0.9765625000
1488507526.7918069363,1488507526.7941050529,        0.6093750000,        0.0786132812,       -0.1372070312,       -1.4953613281,        3.1280517578,       -0.9765625000
1488507526.7943799496,1488507526.7966721058,        0.6069335938,        0.0786132812,       -0.1372070312,       -1.4953613281,        3.1280517578,       -0.6713867188
1488507526.7969470024,1488507526.7992379665,        0.6069335938,        0.0786132812,       -0.1372070312,       -2.3956298828,        2.8533935547,       -0.6713867188
1488507526.7995119095,1488507526.8018140793,        0.6069335938,        0.0786132812,       -0.1372070312,       -2.3956298828,        2.8533935547,       -0.5950927734
1488507526.8020880222,1488507526.8043839931,        0.6069335938,        0.0712890625,       -0.1352539062,       -2.8076171875,        3.2043457031,       -0.5950927734
1488507526.8046579361,1488507526.8069529533,        0.6093750000,        0.0712890625,       -0.1352539062,       -2.8076171875,        3.2043457031,       -0.5950927734
1488507526.8072259426,1488507526.8095219135,        0.6093750000,        0.0712890625,       -0.1352539062,       -3.3111572266,        3.3874511719,       -0.4119873047
1488507526.8097949028,1488507526.8122360706,        0.6093750000,        0.0712890625,       -0.1352539062,       -3.3111572266,        3.3874511719,       -0.4119873047
1488507526.8125109673,1488507526.8148119450,        0.6113281250,        0.0556640625,       -0.1381835938,       -3.6468505859,        2.8076171875,       -0.4119873047
1488507526.8150858879,1488507526.8173789978,        0.6113281250,        0.0556640625,       -0.1381835938,       -3.6468505859,        2.8076171875,       -0.4119873047
1488507526.8176519871,1488507526.8199460506,        0.6113281250,        0.0556640625,       -0.1381835938,       -3.5247802734,        2.5634765625,       -0.4882812500
1488507526.8202190399,1488507526.8227629662,        0.6113281250,        0.0556640625,       -0.1381835938,       -3.5247802734,        2.5634765625,       -0.4882812500
1488507526.8230440617,1488507526.8254430294,        0.6088867188,        0.0600585938,       -0.1342773438,       -3.8909912109,        2.9144287109,       -0.3051757812
1488507526.8257219791,1488507526.8281190395,        0.6088867188,        0.0600585938,       -0.1342773438,       -3.8909912109,        2.9144287109,       -0.3051757812
1488507526.8283970356,1488507526.8308019638,        0.6088867188,        0.0600585938,       -0.1342773438,       -3.8299560547,        2.9144287109,       -0.4882812500
1488507526.8310830593,1488507526.8334920406,        0.6088867188,        0.0600585938,       -0.1342773438,       -3.8299560547,        2.9144287109,       -0.4882812500
1488507526.8337709904,1488507526.8361740112,        0.6127929688,        0.0556640625,       -0.1445312500,       -3.4484863281,        3.0670166016,       -0.0152587891
1488507526.8364560604,1488507526.8388509750,        0.6127929688,        0.0556640625,       -0.1445312500,       -3.4484863281,        3.0670166016,       -0.0152587891
1488507526.8391289711,1488507526.8415229321,        0.6127929688,        0.0556640625,       -0.1445312500,       -3.0517578125,        3.2348632812,       -0.1220703125
1488507526.8418130875,1488507526.8442170620,        0.6127929688,        0.0556640625,       -0.1499023438,       -3.0517578125,        3.2348632812,       -0.1220703125
1488507526.8444979191,1488507526.8468890190,        0.6152343750,        0.0502929688,       -0.1499023438,       -2.9296875000,        3.4942626953,       -0.1068115234
1488507526.8471710682,1488507526.8495678902,        0.6152343750,        0.0502929688,       -0.1499023438,       -2.9296875000,        3.4942626953,       -0.1068115234
1488507526.8498489857,1488507526.8522689342,        0.6152343750,        0.0502929688,       -0.1499023438,       -2.6245117188,        3.9215087891,       -0.2136230469
1488507526.8525431156,1488507526.8548328876,        0.6152343750,        0.0556640625,       -0.1420898438,       -2.6245117188,        3.9215087891,       -0.2136230469
1488507526.8552141190,1488507526.8575088978,        0.6196289062,        0.0556640625,       -0.1420898438,       -2.3651123047,        4.1809082031,       -0.4577636719
1488507526.8577830791,1488507526.8600659370,        0.6196289062,        0.0556640625,       -0.1420898438,       -2.3651123047,        4.1809082031,       -0.4577636719
1488507526.8603401184,1488507526.8627738953,        0.6196289062,        0.0556640625,       -0.1420898438,       -2.3345947266,        4.5776367188,       -0.4730224609
1488507526.8630499840,1488507526.8653509617,        0.6152343750,        0.0546875000,       -0.1435546875,       -2.3345947266,        4.5776367188,       -0.4730224609
1488507526.8656249046,1488507526.8679139614,        0.6152343750,        0.0546875000,       -0.1435546875,       -2.9144287109,        4.1198730469,       -0.5950927734
1488507526.8681890965,1488507526.8704769611,        0.6152343750,        0.0546875000,       -0.1435546875,       -2.9144287109,        4.1198730469,       -0.5950927734
1488507526.8707530499,1488507526.8731820583,        0.6152343750,        0.0546875000,       -0.1435546875,       -2.9144287109,        4.7149658203,       -0.8544921875
1488507526.8734641075,1488507526.8758780956,        0.6152343750,        0.0371093750,       -0.1386718750,       -2.5024414062,        4.7149658203,       -0.8544921875
1488507526.8761579990,1488507526.8788070679,        0.6152343750,        0.0371093750,       -0.1386718750,       -2.5024414062,        5.1574707031,       -0.9460449219
1488507526.8790891171,1488507526.8814940453,        0.6152343750,        0.0371093750,       -0.1386718750,       -1.8157958984,        5.1574707031,       -0.9460449219
1488507526.8821759224,1488507526.8846011162,        0.6152343750,        0.0371093750,       -0.1386718750,       -1.4801025391,        4.7760009766,       -1.3122558594
1488507526.8848841190,1488507526.8873009682,        0.6176757812,        0.0234375000,       -0.1386718750,       -1.4801025391,        4.7760009766,       -1.3122558594
1488507526.8875820637,1488507526.8900010586,        0.6176757812,        0.0234375000,       -0.1386718750,       -0.8544921875,        4.7912597656,       -1.8615722656
1488507526.8902809620,1488507526.8926639557,        0.6176757812,        0.0234375000,       -0.1386718750,       -0.8544921875,        4.7912597656,       -1.8615722656
1488507526.8929369450,1488507526.8952250481,        0.6176757812,        0.0322265625,       -0.1323242188,       -0.6408691406,        4.3334960938,       -2.2888183594
1488507526.8954999447,1488507526.8977890015,        0.6079101562,        0.0322265625,       -0.1323242188,       -0.6408691406,        4.3334960938,       -2.2888183594
1488507526.8980638981,1488507526.9003589153,        0.6079101562,        0.0322265625,       -0.1323242188,        3.2653808594,        3.6468505859,       -2.9144287109
1488507526.9006319046,1488507526.9031040668,        0.6079101562,        0.0322265625,       -0.1323242188,        0.3356933594,        3.6468505859,       -2.9144287109
1488507526.9033789635,1488507526.9056720734,        0.6225585938,        0.0224609375,       -0.1293945312,        0.3356933594,        3.6773681641,       -3.6315917969
1488507526.9059460163,1488507526.9082500935,        0.6225585938,        0.0224609375,       -0.1293945312,        1.0528564453,        3.6773681641,       -3.6315917969
1488507526.9085230827,1488507526.9108159542,        0.6225585938,        0.0224609375,       -0.1293945312,        1.0528564453,        3.6773681641,       -3.8452148438
1488507526.9110879898,1488507526.9134569168,        0.6225585938,        0.0224609375,       -0.1293945312,        1.8463134766,        3.8452148438,       -3.8452148438
1488507526.9137289524,1488507526.9160199165,        0.6210937500,        0.0302734375,       -0.1279296875,        1.8463134766,        3.8452148438,       -7.7514648438
1488507526.9162919521,1488507526.9186010361,        0.6210937500,        0.0302734375,       -0.1279296875,        2.9144287109,        4.0588378906,       -4.3640136719
1488507526.9190011024,1488507526.9213039875,        0.6210937500,        0.0302734375,       -0.1279296875,        2.9144287109,        4.0588378906,       -4.3640136719
1488507526.9215788841,1488507526.9238700867,        0.6210937500,        0.0302734375,       -0.1279296875,        3.2501220703,        3.8146972656,       -4.6539306641
1488507526.9241440296,1488507526.9264369011,        0.6201171875,        0.0385742188,       -0.1362304688,        3.2501220703,        3.8146972656,       -4.6539306641
1488507526.9267098904,1488507526.9290099144,        0.6201171875,        0.0385742188,       -0.1362304688,        3.4484863281,        4.2114257812,       -5.6304931641
1488507526.9292840958,1488507526.9315760136,        0.6201171875,        0.0385742188,       -0.1362304688,        3.4484863281,        4.2114257812,       -5.6304931641
1488507526.9318439960,1488507526.9341399670,        0.6201171875,        0.0385742188,       -0.1362304688,        3.7536621094,        4.1198730469,       -6.1645507812
1488507526.9344120026,1488507526.9367029667,        0.6215820312,        0.0366210938,       -0.1416015625,        3.7536621094,        4.1198730469,       -6.1645507812
1488507526.9369769096,1488507526.9393770695,        0.6215820312,        0.0366210938,       -0.1416015625,        3.3569335938,        4.3640136719,       -6.3781738281
1488507526.9396510124,1488507526.9420490265,        0.6215820312,        0.0366210938,       -0.1416015625,        3.3569335938,        4.3640136719,       -6.3781738281
1488507526.9423220158,1488507526.9446129799,        0.6215820312,        0.0366210938,       -0.1416015625,        2.7160644531,        4.2266845703,       -6.8206787109
1488507526.9448850155,1488507526.9471750259,        0.6201171875,        0.0507812500,       -0.1357421875,        2.7160644531,        4.2266845703,       -6.8206787109
1488507526.9475800991,1488507526.9500150681,        0.6201171875,        0.0507812500,       -0.1357421875,        2.6092529297,        4.6539306641,       -7.2326660156
1488507526.9502899647,1488507526.9526839256,        0.6201171875,        0.0507812500,       -0.1357421875,        2.6092529297,        4.6539306641,       -7.2326660156
1488507526.9529569149,1488507526.9552550316,        0.6201171875,        0.0507812500,       -0.1396484375,        2.5024414062,        4.3487548828,       -7.4310302734
1488507526.9556200504,1488507526.9580149651,        0.6240234375,        0.0463867188,       -0.1396484375,        2.5024414062,        4.3487548828,       -7.4310302734
1488507526.9583690166,1488507526.9606730938,        0.6240234375,        0.0463867188,       -0.1396484375,        2.3498535156,        4.2419433594,       -7.3242187500
1488507526.9609479904,1488507526.9634280205,        0.6240234375,        0.0463867188,       -0.1396484375,        2.3498535156,        4.2419433594,       -7.3242187500
1488507526.9637019634,1488507526.9659891129,        0.6240234375,        0.0483398438,       -0.1293945312,        1.7242431641,        4.4403076172,       -7.2326660156
1488507526.9662630558,1488507526.9693710804,        0.6245117188,        0.0483398438,       -0.1293945312,        1.7242431641,        4.4403076172,       -7.2326660156
1488507526.9696478844,1488507526.9719429016,        0.6245117188,        0.0483398438,       -0.1293945312,        1.4953613281,        4.1656494141,       -7.5225830078
1488507526.9722170830,1488507526.9745099545,        0.6245117188,        0.0483398438,       -0.1293945312,        1.4953613281,        4.1656494141,       -7.5225830078
1488507526.9747819901,1488507526.9770720005,        0.6215820312,        0.0493164062,       -0.1328125000,        0.9155273438,        4.0740966797,       -7.7819824219
1488507526.9773468971,1488507526.9796309471,        0.6215820312,        0.0493164062,       -0.1328125000,        0.9155273438,        4.0740966797,       -7.7819824219
1488507526.9799039364,1488507526.9821989536,        0.6215820312,        0.0493164062,       -0.1328125000,        0.4882812500,        3.8909912109,       -8.1176757812
1488507526.9825859070,1488507526.9848759174,        0.6215820312,        0.0493164062,       -0.1328125000,        0.4882812500,        3.8909912109,       -8.1176757812
1488507526.9851500988,1488507526.9874401093,        0.6186523438,        0.0600585938,       -0.1259765625,        0.4882812500,        4.0740966797,       -8.2397460938
1488507526.9877150059,1488507526.9900109768,        0.6186523438,        0.0600585938,       -0.1259765625,        0.0152587891,        4.0740966797,       -8.2397460938
1488507526.9902861118,1488507526.9925870895,        0.6186523438,        0.0600585938,       -0.1259765625,        0.0152587891,        4.0740966797,       -8.7280273438
1488507526.9928610325,1488507526.9951560497,        0.6186523438,        0.0600585938,       -0.1259765625,       -0.1678466797,        4.4860839844,       -8.7280273438
1488507526.9954309464,1488507526.9977240562,        0.6181640625,        0.0488281250,       -0.1279296875,       -0.1678466797,        4.4860839844,       -9.1400146484
1488507526.9979989529,1488507527.0002861023,        0.6181640625,        0.0488281250,       -0.1279296875,       -0.2746582031,        4.6234130859,       -9.1400146484
1488507527.0005600452,1488507527.0029919147,        0.6181640625,        0.0488281250,       -0.1279296875,       -0.2746582031,        4.6234130859,       -9.1400146484
1488507527.0032680035,1488507527.0055530071,        0.6181640625,        0.0488281250,       -0.0029296875,       -0.3662109375,        4.7760009766,       -9.1857910156
1488507527.0058279037,1488507527.0081179142,        0.6186523438,        0.0527343750,       -0.1108398438,       -0.3662109375,        4.7760009766,       -9.1857910156
1488507527.0083930492,1488507527.0106840134,        0.6186523438,        0.0527343750,       -0.1108398438,        0.0152587891,        4.1503906250,       -9.4146728516
1488507527.0109610558,1488507527.0134909153,        0.6186523438,        0.0527343750,       -0.1108398438,        0.0152587891,        4.1503906250,       -9.4146728516
1488507527.0137670040,1488507527.0160551071,        0.6186523438,        0.0527343750,       -0.1083984375,        0.0915527344,        4.1046142578,       -9.2926025391
1488507527.0163290501,1488507527.0186209679,        0.6127929688,        0.0605468750,       -0.1083984375,        0.0915527344,        4.1046142578,       -9.2926025391
1488507527.0188970566,1488507527.0211889744,        0.6127929688,        0.0605468750,       -0.1083984375,       -0.4272460938,        4.1656494141,       -9.6130371094
1488507527.0214629173,1488507527.0239510536,        0.6127929688,        0.0605468750,       -0.1083984375,       -0.4272460938,        4.1656494141,       -9.6130371094
1488507527.0242269039,1488507527.0265140533,        0.6127929688,        0.0664062500,       -0.1215820312,        0.0457763672,        3.9062500000,       -9.8571777344
1488507527.0267889500,1488507527.0290760994,        0.6230468750,        0.0664062500,       -0.1215820312,        0.0457763672,        3.9062500000,       -9.8571777344
1488507527.0293529034,1488507527.0316441059,        0.6230468750,        0.0664062500,       -0.1215820312,        0.0305175781,        4.1198730469,       -9.5672607422
1488507527.0319740772,1488507527.0342609882,        0.6230468750,        0.0664062500,       -0.1215820312,        0.0305175781,        4.1198730469,       -9.5672607422
1488507527.0345370770,1488507527.0368230343,        0.7480468750,        0.0834960938,       -0.1225585938,        0.0305175781,        4.4708251953,       -9.4757080078
1488507527.0370969772,1488507527.0393910408,        0.6279296875,        0.0834960938,       -0.1225585938,        0.0305175781,        4.4708251953,       -9.4757080078
1488507527.0396649837,1488507527.0419600010,        0.6279296875,        0.0834960938,       -0.1225585938,        0.0305175781,        4.0130615234,       -9.2163085938
1488507527.0422339439,1488507527.0445239544,        0.6279296875,        0.0834960938,       -0.1225585938,        0.0000000000,        4.0130615234,       -9.2163085938
1488507527.0449059010,1488507527.0471920967,        0.6298828125,        0.0815429688,       -0.1215820312,        0.0000000000,        4.0893554688,       -8.9416503906
1488507527.0474669933,1488507527.0497519970,        0.6298828125,        0.0815429688,       -0.1215820312,       -0.0915527344,        4.0893554688,       -8.9416503906
1488507527.0500259399,1488507527.0523300171,        0.6298828125,        0.0815429688,       -0.1215820312,       -0.0915527344,        4.0893554688,       -8.6212158203
1488507527.0526049137,1488507527.0548939705,        0.6298828125,        0.0815429688,       -0.1215820312,       -0.4882812500,        4.2724609375,       -8.6212158203
1488507527.0551691055,1488507527.0574541092,        0.6196289062,        0.0932617188,       -0.1215820312,       -0.4882812500,        4.2724609375,       -8.6212158203
1488507527.0577299595,1488507527.0600209236,        0.6196289062,        0.0932617188,       -0.1215820312,       -0.9765625000,        4.6997070312,       -8.4533691406
1488507527.0602970123,1488507527.0626471043,        0.6196289062,        0.0932617188,       -0.1215820312,       -0.9765625000,        4.6997070312,       -8.4533691406
1488507527.0629320145,1488507527.0653550625,        0.6196289062,        0.0932617188,       -0.1215820312,       -1.5258789062,        5.2185058594,       -8.2092285156
1488507527.0656359196,1488507527.0680489540,        0.6035156250,        0.0830078125,       -0.1328125000,       -1.5258789062,        5.2185058594,       -8.2092285156
1488507527.0683300495,1488507527.0707459450,        0.6035156250,        0.0830078125,       -0.1328125000,       -1.4190673828,        5.6304931641,       -8.0871582031
1488507527.0710270405,1488507527.0734679699,        0.6035156250,        0.0830078125,       -0.1328125000,       -1.4190673828,        5.6304931641,       -8.0871582031
1488507527.0737500191,1488507527.0761659145,        0.6035156250,        0.0830078125,       -0.1328125000,       -1.0375976562,        5.1269531250,       -7.7362060547
1488507527.0764489174,1488507527.0789840221,        0.6083984375,        0.0932617188,       -0.1220703125,       -1.0375976562,        5.1269531250,       -7.7362060547
1488507527.0792679787,1488507527.0820949078,        0.6083984375,        0.0932617188,       -0.1220703125,       -1.4801025391,        5.1116943359,       -7.8125000000
1488507527.0823791027,1488507527.0847959518,        0.6083984375,        0.0932617188,       -0.1220703125,       -1.4801025391,        5.1116943359,       -7.8125000000
1488507527.0850770473,1488507527.0874900818,        0.6259765625,        0.0864257812,       -0.1303710938,       -1.2207031250,        5.0201416016,       -7.3394775391
1488507527.0877699852,1488507527.0901811123,        0.6259765625,        0.0864257812,       -0.1303710938,       -1.2207031250,        5.0201416016,       -7.3394775391
1488507527.0904629230,1488507527.0928599834,        0.6259765625,        0.0864257812,       -0.1303710938,       -1.4190673828,        4.5623779297,       -7.3547363281
1488507527.0931329727,1488507527.0954320431,        0.6259765625,        0.0864257812,       -0.1303710938,       -1.4190673828,        4.5623779297,       -7.3547363281
1488507527.0957050323,1488507527.0980000496,        0.6191406250,        0.0791015625,       -0.1127929688,       -1.5106201172,        4.5166015625,       -7.5836181641
1488507527.0982730389,1488507527.1005709171,        0.6191406250,        0.0791015625,       -0.1127929688,       -1.5106201172,        4.5166015625,       -7.5836181641
1488507527.1008439064,1488507527.1031439304,        0.6191406250,        0.0791015625,       -0.1127929688,       -1.5411376953,        4.7607421875,       -7.9193115234
1488507527.1034181118,1488507527.1057078838,        0.6191406250,        0.0791015625,       -0.1127929688,       -1.5411376953,        4.7607421875,       -7.9193115234
1488507527.1059811115,1488507527.1082739830,        0.6440429688,        0.0830078125,       -0.1357421875,       -1.1138916016,        4.5318603516,       -8.1481933594
1488507527.1086590290,1488507527.1109468937,        0.6440429688,        0.0830078125,       -0.1357421875,       -1.1138916016,        4.5318603516,       -8.1481933594
1488507527.1112220287,1488507527.1136720181,        0.6440429688,        0.0830078125,       -0.1357421875,        0.0457763672,        2.5787353516,       -8.5449218750
1488507527.1139481068,1488507527.1162409782,        0.6440429688,        0.0830078125,       -0.1357421875,        0.0457763672,        2.5787353516,       -8.5449218750
1488507527.1165170670,1488507527.1188020706,        0.6660156250,        0.0512695312,       -0.1005859375,       -0.3509521484,        0.8392333984,       -8.9569091797
1488507527.1190779209,1488507527.1213738918,        0.6660156250,        0.0512695312,       -0.1005859375,       -0.3509521484,        0.8392333984,       -8.9569091797
1488507527.1216490269,1488507527.1240329742,        0.6660156250,        0.0512695312,       -0.1005859375,       -1.4190673828,       -0.1678466797,       -9.5367431641
1488507527.1243081093,1488507527.1265950203,        0.6660156250,        0.0512695312,       -0.1005859375,       -1.4190673828,       -0.1678466797,       -9.5367431641
1488507527.1268699169,1488507527.1291608810,        0.6782226562,        0.0375976562,       -0.0893554688,       -0.5187988281,       -1.0223388672,      -11.3983154297
1488507527.1294410229,1488507527.1318519115,        0.6782226562,        0.0375976562,       -0.0893554688,       -0.5187988281,       -1.0223388672,      -11.3983154297
1488507527.1321339607,1488507527.1344180107,        0.6782226562,        0.0375976562,       -0.0893554688,        3.3874511719,       -3.8299560547,      -13.9007568359
1488507527.1346960068,1488507527.1369919777,        0.6782226562,        0.0375976562,       -0.0932617188,        0.3051757812,       -3.8299560547,      -13.9007568359
1488507527.1372699738,1488507527.1395590305,        0.7148437500,        0.0273437500,       -0.0932617188,        0.3051757812,       -7.7362060547,      -15.7775878906
1488507527.1398379803,1488507527.1423289776,        0.7148437500,        0.0273437500,       -0.0932617188,       -2.1362304688,       -6.1340332031,      -15.7775878906
1488507527.1426088810,1488507527.1448979378,        0.7148437500,        0.0273437500,       -0.0932617188,       -2.1362304688,       -6.1340332031,      -20.7824707031
1488507527.1451768875,1488507527.1474609375,        0.7148437500,        0.0273437500,       -0.0185546875,       -5.0964355469,       -6.1950683594,      -20.7824707031
1488507527.1477398872,1488507527.1500320435,        0.6992187500,        0.0380859375,       -0.0185546875,       -5.0964355469,       -6.1950683594,      -28.5949707031
1488507527.1503100395,1488507527.1527030468,        0.6992187500,        0.0380859375,       -0.0185546875,       -5.1269531250,       -5.2185058594,      -28.9459228516
1488507527.1529889107,1488507527.1553950310,        0.6992187500,        0.0380859375,       -0.0185546875,       -5.1269531250,       -5.2185058594,      -36.7584228516
1488507527.1556789875,1488507527.1580920219,        0.6992187500,        0.0083007812,       -0.0351562500,       -5.2947998047,       -6.4544677734,      -37.1704101562
1488507527.1583778858,1488507527.1607930660,        0.6552734375,        0.0083007812,       -0.0351562500,       -5.2947998047,       -6.4544677734,      -37.1704101562
1488507527.1610789299,1488507527.1635160446,        0.6552734375,        0.0083007812,       -0.0351562500,       -7.3242187500,       -9.1400146484,      -43.5638427734
1488507527.1638019085,1488507527.1662108898,        0.6552734375,        0.0083007812,       -0.0351562500,       -7.3242187500,       -9.1400146484,      -43.5638427734
1488507527.1664988995,1488507527.1689140797,        0.7309570312,       -0.0791015625,       -0.0375976562,      -11.2152099609,      -10.5743408203,      -49.4384765625
1488507527.1692059040,1488507527.1716279984,        0.7309570312,       -0.0791015625,       -0.0375976562,      -11.2152099609,      -10.5743408203,      -49.4384765625
1488507527.1719710827,1488507527.1743829250,        0.7309570312,       -0.0791015625,       -0.0375976562,      -15.5792236328,      -11.8255615234,      -55.9234619141
1488507527.1747810841,1488507527.1772010326,        0.7309570312,       -0.0791015625,       -0.0375976562,      -15.5792236328,      -11.8255615234,      -63.7359619141
1488507527.1774940491,1488507527.1799149513,        0.7978515625,       -0.1596679688,       -0.0688476562,      -19.1497802734,      -13.1072998047,      -62.9425048828
1488507527.1802060604,1488507527.1826210022,        0.7978515625,       -0.1596679688,       -0.0688476562,      -19.1497802734,      -13.1072998047,      -66.8487548828
1488507527.1829130650,1488507527.1853320599,        0.7978515625,       -0.1596679688,       -0.0688476562,      -21.2249755859,      -15.4876708984,      -68.6950683594
1488507527.1856219769,1488507527.1880390644,        0.7978515625,       -0.1557617188,       -0.1323242188,      -21.2249755859,      -15.4876708984,      -76.5075683594
1488507527.1883289814,1488507527.1907460690,        0.8413085938,       -0.1557617188,       -0.1323242188,      -22.5219726562,      -17.9595947266,      -74.5086669922
1488507527.1910400391,1488507527.1935040951,        0.8413085938,       -0.1557617188,       -0.1323242188,      -22.5219726562,      -17.9595947266,      -78.4149169922
1488507527.1937940121,1488507527.1962120533,        0.8413085938,       -0.1557617188,       -0.1323242188,      -26.0162353516,      -20.5688476562,      -80.9478759766
1488507527.1965029240,1488507527.1991078854,        0.8828125000,       -0.1079101562,       -0.2451171875,      -26.0162353516,      -20.5688476562,      -84.8541259766
1488507527.1994040012,1488507527.2019081116,        0.8828125000,       -0.1079101562,       -0.2451171875,      -30.4107666016,      -24.5666503906,      -85.5865478516
1488507527.2022130489,1488507527.2045168877,        0.8828125000,       -0.1079101562,       -0.2451171875,      -30.4107666016,      -24.5666503906,      -89.4927978516
1488507527.2048070431,1488507527.2071080208,        0.8828125000,       -0.1079101562,       -0.2451171875,      -36.3159179688,      -29.8461914062,      -88.0889892578
1488507527.2073960304,1488507527.2096860409,        1.0239257812,       -0.0737304688,       -0.2910156250,      -36.3159179688,      -29.8461914062,      -88.0889892578
1488507527.2099719048,1488507527.2123379707,        1.0239257812,       -0.0737304688,       -0.2910156250,      -43.8690185547,      -32.9284667969,      -92.0867919922
1488507527.2126300335,1488507527.2150499821,        1.0239257812,       -0.0737304688,       -0.2910156250,      -43.8690185547,      -32.9284667969,      -92.0867919922
1488507527.2153410912,1488507527.2177560329,        1.0239257812,       -0.0737304688,       -0.2910156250,      -49.2095947266,      -34.1644287109,      -97.7325439453
1488507527.2180469036,1488507527.2204658985,        1.1381835938,        0.1289062500,       -0.2954101562,      -49.2095947266,      -34.1644287109,      -97.7325439453
1488507527.2207570076,1488507527.2231800556,        1.1381835938,        0.1289062500,       -0.2954101562,      -53.4057617188,      -36.6668701172,     -102.8594970703
1488507527.2234730721,1488507527.2258849144,        1.1381835938,        0.1289062500,       -0.2954101562,      -53.4057617188,      -36.6668701172,     -102.8594970703
1488507527.2261769772,1488507527.2286000252,        1.1381835938,        0.2055664062,       -0.3852539062,      -57.8002929688,      -40.8325195312,     -107.5744628906
1488507527.2288930416,1488507527.2313079834,        1.1704101562,        0.2055664062,       -0.3852539062,      -57.8002929688,      -40.8325195312,     -107.5744628906
1488507527.2315990925,1488507527.2339029312,        1.1704101562,        0.2055664062,       -0.3852539062,      -60.5010986328,      -44.8150634766,     -111.9995117188
1488507527.2341868877,1488507527.2364840508,        1.1704101562,        0.2055664062,       -0.3852539062,      -60.5010986328,      -44.8150634766,     -111.9995117188
1488507527.2367711067,1488507527.2390580177,        1.2768554688,        0.1303710938,       -0.3901367188,      -62.4389648438,      -46.8292236328,     -114.4256591797
1488507527.2394490242,1488507527.2417509556,        1.2768554688,        0.1303710938,       -0.3901367188,      -62.4389648438,      -46.8292236328,     -114.4256591797
1488507527.2420349121,1488507527.2443270683,        1.2768554688,        0.1303710938,       -0.3901367188,      -64.3157958984,      -46.9512939453,     -114.5782470703
1488507527.2446100712,1488507527.2469019890,        1.2768554688,        0.1303710938,       -0.3901367188,      -64.3157958984,      -46.9512939453,     -114.5782470703
1488507527.2471849918,1488507527.2494831085,        1.2890625000,        0.0048828125,       -0.3305664062,      -67.0166015625,      -46.9970703125,     -113.6016845703
1488507527.2497689724,1488507527.2522199154,        1.2890625000,        0.0048828125,       -0.3305664062,      -67.0166015625,      -46.9970703125,     -113.6016845703
1488507527.2525069714,1488507527.2548000813,        1.2890625000,        0.0048828125,       -0.3305664062,      -68.6340332031,      -46.5545654297,     -113.8458251953
1488507527.2550849915,1488507527.2573850155,        1.2890625000,        0.0048828125,       -0.3305664062,      -68.6340332031,      -46.5545654297,     -113.8458251953
1488507527.2576711178,1488507527.2599639893,        1.2163085938,        0.0024414062,       -0.3134765625,      -67.6422119141,      -46.8139648438,     -116.6839599609
1488507527.2602500916,1488507527.2626841068,        1.2163085938,        0.0024414062,       -0.3134765625,      -67.6422119141,      -46.8139648438,     -116.6839599609
1488507527.2629780769,1488507527.2653920650,        1.2163085938,        0.0024414062,       -0.3134765625,      -65.5975341797,      -47.5769042969,     -119.6441650391
1488507527.2656860352,1488507527.2681000233,        1.2163085938,        0.0024414062,       -0.3134765625,      -65.5975341797,      -47.5769042969,     -119.6441650391
1488507527.2683920860,1488507527.2708110809,        1.1743164062,        0.0864257812,       -0.3198242188,      -64.3463134766,      -48.2940673828,     -122.8027343750
1488507527.2711040974,1488507527.2735300064,        1.1743164062,        0.0864257812,       -0.3198242188,      -64.3463134766,      -48.2940673828,     -122.8027343750
1488507527.2738220692,1488507527.2762339115,        1.1743164062,        0.0864257812,       -0.3198242188,      -64.5141601562,      -48.8586425781,     -124.3896484375
1488507527.2765259743,1488507527.2789499760,        1.1743164062,        0.0917968750,       -0.3149414062,      -64.5141601562,      -48.8586425781,     -124.3896484375
1488507527.2792439461,1488507527.2817010880,        1.1689453125,        0.0917968750,       -0.3149414062,      -63.7512207031,      -50.1098632812,     -124.2065429688
1488507527.2819950581,1488507527.2844169140,        1.1689453125,        0.0917968750,       -0.3149414062,      -63.7512207031,      -50.1098632812,     -124.2065429688
1488507527.2847120762,1488507527.2871270180,        1.1689453125,        0.0917968750,       -0.3149414062,      -61.6607666016,      -50.9185791016,     -122.8027343750
1488507527.2874178886,1488507527.2898259163,        1.1923828125,        0.0688476562,       -0.2924804688,      -61.6607666016,      -50.9185791016,     -122.8027343750
1488507527.2901179790,1488507527.2925519943,        1.1923828125,        0.0688476562,       -0.2924804688,      -60.8978271484,      -50.0488281250,     -120.5291748047
1488507527.2928431034,1488507527.2952558994,        1.1923828125,        0.0688476562,       -0.2924804688,      -60.8978271484,      -50.0488281250,     -120.5291748047
1488507527.2955470085,1488507527.2979640961,        1.1923828125,        0.0688476562,       -0.2924804688,      -59.6466064453,      -48.8433837891,     -117.9351806641
1488507527.2982559204,1488507527.3006770611,        1.1435546875,        0.0732421875,       -0.2607421875,      -59.6466064453,      -48.8433837891,     -117.9351806641
1488507527.3009688854,1488507527.3033928871,        1.1435546875,        0.0732421875,       -0.2607421875,      -55.7403564453,      -48.6907958984,     -115.2954101562
1488507527.3037900925,1488507527.3062109947,        1.1435546875,        0.0732421875,       -0.2607421875,      -56.9763183594,      -48.6907958984,     -115.2954101562
1488507527.3065030575,1488507527.3089160919,        1.1435546875,        0.0732421875,       -0.2426757812,      -53.6651611328,      -48.5229492188,     -112.3962402344
1488507527.3092079163,1488507527.3116219044,        1.0693359375,        0.0668945312,       -0.2426757812,      -53.6651611328,      -48.5229492188,     -112.3962402344
1488507527.3119618893,1488507527.3143820763,        1.0693359375,        0.0668945312,       -0.2426757812,      -49.8657226562,      -48.3856201172,     -109.1156005859
1488507527.3146750927,1488507527.3170869350,        1.0693359375,        0.0668945312,       -0.2426757812,      -49.8657226562,      -48.3856201172,     -109.1156005859
1488507527.3173789978,1488507527.3198900223,        0.9853515625,        0.0483398438,       -0.2138671875,      -45.3491210938,      -48.1872558594,     -105.5297851562
1488507527.3201858997,1488507527.3229129314,        0.9853515625,        0.0483398438,       -0.2138671875,      -45.3491210938,      -48.1872558594,     -105.5297851562
1488507527.3232080936,1488507527.3256239891,        0.9853515625,        0.0483398438,       -0.2138671875,      -40.0390625000,      -48.2940673828,     -101.4251708984
1488507527.3259170055,1488507527.3283369541,        0.9853515625,        0.0483398438,       -0.2138671875,      -40.0390625000,      -48.2940673828,     -101.4251708984
1488507527.3286290169,1488507527.3310439587,        0.9130859375,        0.0302734375,       -0.1923828125,      -34.3170166016,      -47.4395751953,      -97.1527099609
1488507527.3313379288,1488507527.3337619305,        0.9130859375,        0.0302734375,       -0.1923828125,      -34.3170166016,      -47.4395751953,      -97.1527099609
1488507527.3340549469,1488507527.3364760876,        0.9130859375,        0.0302734375,       -0.1923828125,      -28.8848876953,      -45.7916259766,      -92.0257568359
1488507527.3367669582,1488507527.3391859531,        0.9130859375,        0.0302734375,       -0.1411132812,      -28.8848876953,      -45.7916259766,      -92.0257568359
1488507527.3394770622,1488507527.3419079781,        0.8198242188,       -0.0068359375,       -0.1411132812,      -22.2625732422,      -44.6166992188,      -86.5783691406
1488507527.3422009945,1488507527.3446159363,        0.8198242188,       -0.0068359375,       -0.1411132812,      -22.2625732422,      -44.6166992188,      -86.5783691406
1488507527.3449089527,1488507527.3473269939,        0.8198242188,       -0.0068359375,       -0.1411132812,      -15.4266357422,      -43.4570312500,      -81.1462402344
1488507527.3476200104,1488507527.3500409126,        0.7221679688,       -0.0092773438,       -0.0883789062,      -15.4266357422,      -43.4570312500,      -81.1462402344
1488507527.3503339291,1488507527.3527150154,        0.7221679688,       -0.0092773438,       -0.0883789062,       -8.5144042969,      -41.7785644531,      -75.8209228516
1488507527.3529989719,1488507527.3552858829,        0.7221679688,       -0.0092773438,       -0.0883789062,       -8.5144042969,      -41.7785644531,      -75.8209228516
1488507527.3555679321,1488507527.3578610420,        0.7221679688,       -0.0092773438,       -0.0883789062,       -2.1820068359,      -39.7644042969,      -69.7326660156
1488507527.3581430912,1488507527.3604300022,        0.6396484375,       -0.0170898438,       -0.0673828125,       -2.1820068359,      -39.7644042969,      -69.7326660156
1488507527.3607110977,1488507527.3630769253,        0.6396484375,       -0.0170898438,       -0.0673828125,        1.7242431641,      -37.9180908203,      -62.7441406250
1488507527.3633589745,1488507527.3656470776,        0.6396484375,       -0.0170898438,       -0.0673828125,        3.4942626953,      -37.9180908203,      -62.7441406250
1488507527.3659300804,1488507527.3682188988,        0.6396484375,       -0.0170898438,       -0.0673828125,        3.4942626953,      -37.9180908203,      -55.7403564453
1488507527.3686099052,1488507527.3709080219,        0.5581054688,       -0.0356445312,       -0.0249023438,        8.2244873047,      -36.1785888672,      -55.7403564453
1488507527.3711879253,1488507527.3735671043,        0.5581054688,       -0.0356445312,       -0.0249023438,        8.2244873047,      -36.1785888672,      -48.3398437500
1488507527.3738501072,1488507527.3761420250,        0.5581054688,       -0.0356445312,       -0.0249023438,       14.0686035156,      -33.4777832031,      -48.3398437500
1488507527.3764250278,1488507527.3787190914,        0.5581054688,       -0.0356445312,       -0.0249023438,       14.0686035156,      -33.4777832031,      -40.5273437500
1488507527.3790030479,1488507527.3812949657,        0.4594726562,       -0.0874023438,        0.0039062500,       19.6838378906,      -30.1666259766,      -40.4052734375
1488507527.3815801144,1488507527.3840930462,        0.4594726562,       -0.0874023438,        0.0039062500,       19.6838378906,      -30.1666259766,      -32.5927734375
1488507527.3843870163,1488507527.3867969513,        0.4594726562,       -0.0874023438,        0.0039062500,       27.1453857422,      -27.5878906250,      -32.5927734375
1488507527.3870909214,1488507527.3895030022,        0.4594726562,       -0.0874023438,        0.0209960938,       27.1453857422,      -27.5878906250,      -24.7802734375
1488507527.3897941113,1488507527.3921940327,        0.3686523438,       -0.1113281250,        0.0209960938,       34.8358154297,      -24.5513916016,      -25.3906250000
1488507527.3924798965,1488507527.3947749138,        0.3686523438,       -0.1113281250,        0.0209960938,       34.8358154297,      -24.5513916016,      -25.3906250000
1488507527.3950591087,1488507527.3973488808,        0.3686523438,       -0.1113281250,        0.0209960938,       42.6940917969,      -21.2707519531,      -18.2952880859
1488507527.3976318836,1488507527.3999300003,        0.3686523438,       -0.1108398438,        0.0219726562,       42.6940917969,      -21.2707519531,      -18.2952880859
1488507527.4002139568,1488507527.4025690556,        0.2841796875,       -0.1108398438,        0.0219726562,       49.8504638672,      -18.0053710938,      -10.7421875000
1488507527.4028630257,1488507527.4052839279,        0.2841796875,       -0.1108398438,        0.0219726562,       49.8504638672,      -18.0053710938,      -10.7421875000
1488507527.4055759907,1488507527.4079871178,        0.2841796875,       -0.1108398438,        0.0219726562,       57.0678710938,      -15.1367187500,       -2.8991699219
1488507527.4082779884,1488507527.4106900692,        0.2143554688,       -0.0986328125,        0.0180664062,       57.0678710938,      -15.1367187500,       -2.8991699219
1488507527.4109780788,1488507527.4133310318,        0.2143554688,       -0.0986328125,        0.0180664062,       64.1021728516,      -12.0239257812,        4.3182373047
1488507527.4136130810,1488507527.4159030914,        0.2143554688,       -0.0986328125,        0.0180664062,       64.1021728516,      -12.0239257812,        4.3182373047
1488507527.4161849022,1488507527.4184749126,        0.2143554688,       -0.0986328125,        0.0180664062,       69.2443847656,       -8.5754394531,       12.4053955078
1488507527.4187579155,1488507527.4210538864,        0.1801757812,       -0.0556640625,       -0.0053710938,       69.2443847656,       -8.5754394531,       12.4053955078
1488507527.4213390350,1488507527.4236729145,        0.1801757812,       -0.0556640625,       -0.0053710938,       71.8994140625,       -5.0964355469,       20.9503173828
1488507527.4239559174,1488507527.4262499809,        0.1801757812,       -0.0556640625,       -0.0053710938,       71.8994140625,       -5.0964355469,       20.9503173828
1488507527.4265329838,1488507527.4288160801,        0.1801757812,       -0.0556640625,       -0.0053710938,       72.3571777344,       -1.7852783203,       29.2358398438
1488507527.4290978909,1488507527.4313828945,        0.1342773438,       -0.0317382812,       -0.0180664062,       72.3571777344,       -1.7852783203,       29.2358398438
1488507527.4317870140,1488507527.4340829849,        0.1342773438,       -0.0317382812,       -0.0180664062,       71.8231201172,        1.0223388672,       37.6892089844
1488507527.4343659878,1488507527.4366550446,        0.1342773438,       -0.0317382812,       -0.0180664062,       71.8231201172,        1.0223388672,       37.6892089844
1488507527.4369359016,1488507527.4394609928,        0.1342773438,       -0.0317382812,       -0.0180664062,       70.5718994141,        3.4637451172,       44.7387695312
1488507527.4397439957,1488507527.4424920082,        0.1044921875,       -0.0063476562,       -0.0390625000,       70.5718994141,        3.4637451172,       44.7387695312
1488507527.4427769184,1488507527.4450659752,        0.1044921875,       -0.0063476562,       -0.0390625000,       68.7255859375,        5.9661865234,       51.9866943359
1488507527.4453480244,1488507527.4476449490,        0.1044921875,       -0.0063476562,       -0.0390625000,       68.7255859375,        5.9661865234,       51.9866943359
1488507527.4479260445,1488507527.4502139091,        0.1044921875,        0.1186523438,       -0.0551757812,       68.7255859375,        8.5296630859,       59.4787597656
1488507527.4504959583,1488507527.4528400898,        0.0903320312,        0.0258789062,       -0.0551757812,       66.7724609375,        8.5296630859,       59.4787597656
1488507527.4531219006,1488507527.4554090500,        0.0903320312,        0.0258789062,       -0.0551757812,       66.7724609375,        8.5296630859,       67.1386718750
1488507527.4556910992,1488507527.4579789639,        0.0903320312,        0.0258789062,       -0.0551757812,       63.9343261719,       11.2152099609,       67.1386718750
1488507527.4582629204,1488507527.4605569839,        0.0903320312,        0.0751953125,       -0.0820312500,       63.9343261719,       11.2152099609,       74.1882324219
1488507527.4608399868,1488507527.4631481171,        0.0849609375,        0.0751953125,       -0.0820312500,       59.0057373047,       13.8854980469,       74.1882324219
1488507527.4634349346,1488507527.4657220840,        0.0849609375,        0.0751953125,       -0.0820312500,       59.0057373047,       13.8854980469,       82.0007324219
1488507527.4660069942,1488507527.4686748981,        0.0849609375,        0.0751953125,       -0.0820312500,       53.2531738281,       15.6402587891,       81.1309814453
1488507527.4689610004,1488507527.4712550640,        0.0727539062,        0.0991210938,       -0.0903320312,       53.2531738281,       15.6402587891,       88.9434814453
1488507527.4715380669,1488507527.4738659859,        0.0727539062,        0.0991210938,       -0.0903320312,       48.9501953125,       17.5781250000,       87.0971679688
1488507527.4741489887,1488507527.4764380455,        0.0727539062,        0.0991210938,       -0.0903320312,       48.9501953125,       17.5781250000,       87.0971679688
1488507527.4767210484,1488507527.4790089130,        0.0727539062,        0.0991210938,       -0.0903320312,       45.0744628906,       19.5770263672,       92.3614501953
1488507527.4792931080,1488507527.4815831184,        0.0834960938,        0.1157226562,       -0.1108398438,       45.0744628906,       19.5770263672,       92.3614501953
1488507527.4819350243,1488507527.4842228889,        0.0834960938,        0.1157226562,       -0.1108398438,       40.8172607422,       21.3470458984,       97.2442626953
1488507527.4845080376,1488507527.4867939949,        0.0834960938,        0.1157226562,       -0.1108398438,       40.8172607422,       21.3470458984,       97.2442626953
1488507527.4870800972,1488507527.4893610477,        0.0834960938,        0.1157226562,       -0.1108398438,       36.3159179688,       22.9644775391,      102.2491455078
1488507527.4896481037,1488507527.4919440746,        0.0883789062,        0.1533203125,       -0.0917968750,       36.3159179688,       22.9644775391,      102.2491455078
1488507527.4922289848,1488507527.4945189953,        0.0883789062,        0.1533203125,       -0.0917968750,       32.5469970703,       24.1241455078,      106.5368652344
1488507527.4949119091,1488507527.4972031116,        0.0883789062,        0.1533203125,       -0.0917968750,       32.5469970703,       24.1241455078,      106.5368652344
1488507527.4974880219,1488507527.4997730255,        0.0883789062,        0.1533203125,       -0.0917968750,       28.1219482422,       25.4821777344,      110.4431152344
1488507527.5000579357,1488507527.5023579597,        0.1040039062,        0.1787109375,       -0.1098632812,       28.1219482422,       25.4821777344,      110.4431152344
1488507527.5026431084,1488507527.5049319267,        0.1040039062,        0.1787109375,       -0.1098632812,       24.2156982422,       26.3061523438,      113.5711669922
1488507527.5052180290,1488507527.5075039864,        0.1040039062,        0.1787109375,       -0.1098632812,       24.2156982422,       26.3061523438,      113.5711669922
1488507527.5077879429,1488507527.5100779533,        0.1040039062,        0.1787109375,       -0.1098632812,       20.3094482422,       26.9927978516,      115.6463623047
1488507527.5103619099,1488507527.5128200054,        0.1318359375,        0.1806640625,       -0.0981445312,       21.0876464844,       26.9927978516,      115.6463623047
1488507527.5131080151,1488507527.5153999329,        0.1318359375,        0.1806640625,       -0.0981445312,       21.0876464844,       27.6184082031,      116.8365478516
1488507527.5156850815,1488507527.5179738998,        0.1318359375,        0.1806640625,       -0.0981445312,       20.1568603516,       27.6184082031,      116.8365478516
1488507527.5182600021,1488507527.5205509663,        0.1318359375,        0.1806640625,       -0.0981445312,       20.1568603516,       27.6184082031,      117.2790527344
1488507527.5208349228,1488507527.5233170986,        0.1684570312,        0.1850585938,       -0.0893554688,       21.0723876953,       28.3508300781,      117.2790527344
1488507527.5236101151,1488507527.5260250568,        0.1684570312,        0.1850585938,       -0.0893554688,       21.0723876953,       28.3508300781,      116.6229248047
1488507527.5263180733,1488507527.5287249088,        0.1684570312,        0.1850585938,       -0.0893554688,       24.6582031250,       28.7780761719,      116.6229248047
1488507527.5290191174,1488507527.5314369202,        0.1684570312,        0.2416992188,       -0.0825195312,       24.6582031250,       28.7780761719,      115.1885986328
1488507527.5317399502,1488507527.5341610909,        0.1787109375,        0.2416992188,       -0.0825195312,       31.0974121094,       29.2968750000,      115.1885986328
1488507527.5344541073,1488507527.5368669033,        0.1787109375,        0.2416992188,       -0.0825195312,       31.0974121094,       29.2968750000,      113.6016845703
1488507527.5371589661,1488507527.5395669937,        0.1787109375,        0.2416992188,       -0.0825195312,       37.1246337891,       29.3121337891,      113.6016845703
1488507527.5398600101,1488507527.5422840118,        0.2246093750,        0.3164062500,       -0.0849609375,       37.1246337891,       29.3121337891,      111.8621826172
1488507527.5425720215,1488507527.5448660851,        0.2246093750,        0.3164062500,       -0.0849609375,       41.8395996094,       29.7698974609,      111.8621826172
1488507527.5451509953,1488507527.5474419594,        0.2246093750,        0.3164062500,       -0.0849609375,       41.8395996094,       29.7698974609,      111.8621826172
1488507527.5477259159,1488507527.5500140190,        0.2246093750,        0.3164062500,       -0.0849609375,       43.9605712891,       31.0058593750,      110.1226806641
1488507527.5502989292,1488507527.5526499748,        0.2568359375,        0.3979492188,       -0.1323242188,       43.9605712891,       31.0058593750,      110.1226806641
1488507527.5529410839,1488507527.5553519726,        0.2568359375,        0.3979492188,       -0.1323242188,       44.3115234375,       32.1350097656,      107.5744628906
1488507527.5556440353,1488507527.5580639839,        0.2568359375,        0.3979492188,       -0.1323242188,       44.3115234375,       32.1350097656,      107.5744628906
1488507527.5584640503,1488507527.5608799458,        0.2568359375,        0.3979492188,       -0.1323242188,       44.5556640625,       32.5775146484,      105.2246093750
1488507527.5611689091,1488507527.5635969639,        0.2797851562,        0.4418945312,       -0.2001953125,       44.5556640625,       32.5775146484,      105.2246093750
1488507527.5638890266,1488507527.5663108826,        0.2797851562,        0.4418945312,       -0.2001953125,       45.4101562500,       32.3791503906,      102.2491455078
1488507527.5666019917,1488507527.5690178871,        0.2797851562,        0.4418945312,       -0.2001953125,       45.4101562500,       32.3791503906,      102.2491455078
1488507527.5693099499,1488507527.5717298985,        0.2797851562,        0.5517578125,       -0.2163085938,       45.7153320312,       32.5775146484,       97.4731445312
1488507527.5720250607,1488507527.5744390488,        0.3100585938,        0.5517578125,       -0.2163085938,       45.7153320312,       32.5775146484,       97.4731445312
1488507527.5747289658,1488507527.5771450996,        0.3100585938,        0.5517578125,       -0.2163085938,       46.2493896484,       32.1350097656,       92.1325683594
1488507527.5774369240,1488507527.5799291134,        0.3100585938,        0.5517578125,       -0.2163085938,       46.2493896484,       32.1350097656,       92.1325683594
1488507527.5802218914,1488507527.5832650661,        0.3369140625,        0.6074218750,       -0.2529296875,       46.4324951172,       30.5480957031,       85.9375000000
1488507527.5835509300,1488507527.5858430862,        0.3369140625,        0.6074218750,       -0.2529296875,       46.4324951172,       30.5480957031,       79.3609619141
1488507527.5861279964,1488507527.5884170532,        0.3369140625,        0.6074218750,       -0.2529296875,       45.6390380859,       28.5339355469,       79.3609619141
1488507527.5887000561,1488507527.5909869671,        0.3369140625,        0.6074218750,       -0.2529296875,       45.6390380859,       28.5339355469,       71.5484619141
1488507527.5912699699,1488507527.5936350822,        0.3701171875,        0.5878906250,       -0.2846679688,       43.9300537109,       27.4200439453,       73.0590820312
1488507527.5939209461,1488507527.5962100029,        0.3701171875,        0.5878906250,       -0.2846679688,       43.9300537109,       27.4200439453,       73.0590820312
1488507527.5964949131,1488507527.5987849236,        0.3701171875,        0.5878906250,       -0.2846679688,       42.1142578125,       26.6265869141,       66.6198730469
1488507527.5990691185,1488507527.6013660431,        0.3701171875,        0.5878906250,       -0.2846679688,       42.1142578125,       26.6265869141,       66.6198730469
1488507527.6016490459,1488507527.6039919853,        0.3935546875,        0.6069335938,       -0.2797851562,       40.8782958984,       26.0925292969,       59.4024658203
1488507527.6042749882,1488507527.6065618992,        0.3935546875,        0.6069335938,       -0.2797851562,       40.8782958984,       26.0925292969,       59.4024658203
1488507527.6068460941,1488507527.6091310978,        0.3935546875,        0.6069335938,       -0.2797851562,       40.9545898438,       24.1851806641,       52.2613525391
1488507527.6094150543,1488507527.6117429733,        0.3935546875,        0.6069335938,       -0.2861328125,       40.9545898438,       24.1851806641,       52.2613525391
1488507527.6120259762,1488507527.6143169403,        0.3842773438,        0.6347656250,       -0.2861328125,       41.5039062500,       21.8200683594,       44.7692871094
1488507527.6145999432,1488507527.6168870926,        0.3842773438,        0.6347656250,       -0.2861328125,       41.5039062500,       21.8200683594,       44.7692871094
1488507527.6171700954,1488507527.6194550991,        0.3842773438,        0.6347656250,       -0.2861328125,       40.6341552734,       19.5770263672,       37.8265380859
1488507527.6197369099,1488507527.6220829487,        0.3842773438,        0.6328125000,       -0.2880859375,       40.6341552734,       19.5770263672,       37.8265380859
1488507527.6224770546,1488507527.6247670650,        0.3813476562,        0.6328125000,       -0.2880859375,       37.6586914062,       18.7072753906,       31.5704345703
1488507527.6250519753,1488507527.6273438931,        0.3813476562,        0.6328125000,       -0.2880859375,       37.6586914062,       18.7072753906,       31.5704345703
1488507527.6276299953,1488507527.6299209595,        0.3813476562,        0.6328125000,       -0.2880859375,       33.7524414062,       17.9290771484,       25.5432128906
1488507527.6302049160,1488507527.6326270103,        0.3813476562,        0.5971679688,       -0.2817382812,       34.8815917969,       17.9290771484,       25.5432128906
1488507527.6329109669,1488507527.6352069378,        0.3842773438,        0.5971679688,       -0.2817382812,       34.8815917969,       16.4337158203,       18.9971923828
1488507527.6354899406,1488507527.6377849579,        0.3842773438,        0.5971679688,       -0.2817382812,       32.1350097656,       16.4337158203,       18.9971923828
1488507527.6380670071,1488507527.6403620243,        0.3842773438,        0.5971679688,       -0.2817382812,       32.1350097656,       12.5274658203,       12.4206542969
1488507527.6406469345,1488507527.6431090832,        0.3720703125,        0.5649414062,       -0.2758789062,       30.4718017578,       14.3280029297,       12.4206542969
1488507527.6433999538,1488507527.6458039284,        0.3720703125,        0.5649414062,       -0.2758789062,       30.4718017578,       14.3280029297,        6.1035156250
1488507527.6460919380,1488507527.6484858990,        0.3720703125,        0.5649414062,       -0.2758789062,       30.3955078125,       12.4969482422,        6.1035156250
1488507527.6487751007,1488507527.6511750221,        0.3720703125,        0.5649414062,       -0.2758789062,       30.3955078125,       12.4969482422,        0.9155273438
1488507527.6514630318,1488507527.6539089680,        0.3750000000,        0.5209960938,       -0.2504882812,       28.9459228516,       11.4746093750,        0.9155273438
1488507527.6541969776,1488507527.6565980911,        0.3750000000,        0.5209960938,       -0.2504882812,       28.9459228516,       11.4746093750,       -3.4637451172
1488507527.6568849087,1488507527.6592829227,        0.3750000000,        0.5209960938,       -0.2504882812,       27.7557373047,       10.9558105469,       -3.4637451172
1488507527.6595699787,1488507527.6619830132,        0.3750000000,        0.5209960938,       -0.1254882812,       27.7557373047,       10.9558105469,       -8.1176757812
1488507527.6622729301,1488507527.6646769047,        0.3691406250,        0.4765625000,       -0.2182617188,       26.5197753906,       10.1165771484,       -8.1176757812
1488507527.6649639606,1488507527.6673669815,        0.3691406250,        0.4765625000,       -0.2182617188,       26.5197753906,       10.1165771484,      -12.4816894531
1488507527.6676559448,1488507527.6700589657,        0.3691406250,        0.4765625000,       -0.2182617188,       25.8636474609,        8.7890625000,      -12.4816894531
1488507527.6703460217,1488507527.6727509499,        0.3691406250,        0.5981445312,       -0.3945312500,       25.8636474609,        8.7890625000,      -20.8435058594
1488507527.6730370522,1488507527.6754400730,        0.5136718750,        0.5981445312,       -0.3945312500,       26.0162353516,        6.1187744141,      -20.8435058594
1488507527.6757268906,1488507527.6781260967,        0.5136718750,        0.5981445312,       -0.3945312500,       26.0162353516,        6.1187744141,      -32.5622558594
1488507527.6784129143,1488507527.6808130741,        0.5136718750,        0.5981445312,       -0.3945312500,       34.2864990234,       -1.4495849609,      -33.0657958984
1488507527.6810989380,1488507527.6835141182,        1.0278320312,        0.8427734375,       -0.8261718750,       34.2864990234,       -1.4495849609,      -52.5970458984
1488507527.6837980747,1488507527.6861979961,        1.0278320312,        0.8427734375,       -0.8261718750,       46.2341308594,      -22.1862792969,      -51.3763427734
1488507527.6865940094,1488507527.6889989376,        1.0278320312,        0.8427734375,       -0.8261718750,       46.2341308594,      -22.1862792969,      -67.0013427734
1488507527.6892910004,1488507527.6917030811,        1.0278320312,        0.8427734375,       -0.8261718750,       48.3703613281,      -33.8897705078,      -66.9555664062
1488507527.6919939518,1488507527.6943910122,        1.7207031250,        0.8315429688,       -0.7670898438,       48.3703613281,      -33.8897705078,      -74.7680664062
1488507527.6946799755,1488507527.6970770359,        1.7207031250,        0.8315429688,       -0.7670898438,       43.1213378906,      -31.5704345703,      -77.9724121094
1488507527.6973650455,1488507527.6999969482,        1.7207031250,        0.8315429688,       -0.7670898438,       43.1213378906,      -31.5704345703,      -84.1979980469
1488507527.7002909184,1488507527.7030310631,        1.7207031250,        0.4565429688,       -0.2978515625,       35.2630615234,      -23.9715576172,      -84.1979980469
1488507527.7033269405,1488507527.7057440281,        1.6655273438,        0.3964843750,       -0.2978515625,       35.2630615234,       -8.3465576172,      -81.8939208984
1488507527.7060320377,1488507527.7084469795,        1.6655273438,        0.3964843750,       -0.2978515625,       11.4746093750,      -11.4593505859,      -81.8939208984
1488507527.7087368965,1488507527.7111549377,        1.6655273438,        0.3964843750,       -0.2978515625,       11.4746093750,       -7.5531005859,      -75.6378173828
1488507527.7114439011,1488507527.7139039040,        0.7827148438,       -0.1220703125,        0.2250976562,       -8.0718994141,       -4.0283203125,      -75.6378173828
1488507527.7141919136,1488507527.7166080475,        0.7827148438,       -0.1220703125,        0.2250976562,       -8.0718994141,       -0.1220703125,      -72.2961425781
1488507527.7168951035,1488507527.7193129063,        0.7827148438,       -0.1220703125,        0.2250976562,      -12.7410888672,       -0.1678466797,      -72.2961425781
1488507527.7196030617,1488507527.7220211029,        0.7827148438,       -0.1220703125,        0.2250976562,      -12.7410888672,        3.7384033203,      -68.2373046875
1488507527.7223110199,1488507527.7247281075,        0.1943359375,       -0.2241210938,        0.2426757812,       -6.8969726562,        0.8697509766,      -68.2373046875
1488507527.7250149250,1488507527.7274301052,        0.1943359375,       -0.2241210938,        0.2426757812,       -6.8969726562,        0.8697509766,      -65.7653808594
1488507527.7277159691,1488507527.7301290035,        0.1943359375,       -0.2241210938,        0.2426757812,        4.5623779297,       -3.0364990234,      -65.7653808594
1488507527.7304151058,1488507527.7327759266,        0.1943359375,       -0.2241210938,        0.0170898438,        4.5623779297,       -3.0364990234,      -66.1926269531
1488507527.7330570221,1488507527.7353498936,        0.1416015625,       -0.1679687500,        0.0170898438,       19.9584960938,       -7.2631835938,      -66.1926269531
1488507527.7356319427,1488507527.7379229069,        0.1416015625,       -0.1679687500,        0.0170898438,       19.9584960938,       -7.2631835938,      -70.0988769531
1488507527.7382049561,1488507527.7404999733,        0.1416015625,       -0.1679687500,        0.0170898438,       33.4320068359,       -7.6904296875,      -68.2220458984
1488507527.7407810688,1488507527.7430889606,        0.1416015625,        0.0820312500,       -0.2529296875,       33.4320068359,       -7.6904296875,      -68.2220458984
1488507527.7433719635,1488507527.7456638813,        0.2949218750,        0.0454101562,       -0.2529296875,       42.4041748047,       -6.8206787109,      -70.0531005859
1488507527.7459490299,1488507527.7482399940,        0.2949218750,        0.0454101562,       -0.2529296875,       42.4041748047,       -6.8206787109,      -70.0531005859
1488507527.7485229969,1488507527.7508120537,        0.2949218750,        0.0454101562,       -0.2529296875,       48.5382080078,       -8.1329345703,      -70.8312988281
1488507527.7511970997,1488507527.7536919117,        0.2949218750,        0.2656250000,       -0.3627929688,       48.5382080078,       -8.1329345703,      -70.8312988281
1488507527.7539770603,1488507527.7562720776,        0.3056640625,        0.2656250000,       -0.3627929688,       54.6112060547,      -12.8784179688,      -69.7937011719
1488507527.7565579414,1488507527.7588489056,        0.3056640625,        0.2656250000,       -0.3627929688,       54.6112060547,      -12.8784179688,      -69.7937011719
1488507527.7591350079,1488507527.7614281178,        0.3056640625,        0.2656250000,       -0.3627929688,       59.8907470703,      -19.7601318359,      -67.1691894531
1488507527.7618179321,1488507527.7642381191,        0.2587890625,        0.3105468750,       -0.4565429688,       59.8907470703,      -19.7601318359,      -67.1691894531
1488507527.7645308971,1488507527.7669420242,        0.2587890625,        0.3105468750,       -0.4565429688,       63.1256103516,      -26.5502929688,      -63.8732910156
1488507527.7672328949,1488507527.7696468830,        0.2587890625,        0.3105468750,       -0.4565429688,       63.1256103516,      -26.5502929688,      -63.8732910156
1488507527.7699398994,1488507527.7723679543,        0.2587890625,        0.3105468750,       -0.4565429688,       61.4624023438,      -30.8990478516,      -60.1196289062
1488507527.7726619244,1488507527.7750790119,        0.2792968750,        0.3364257812,       -0.4003906250,       61.4624023438,      -30.8990478516,      -60.1196289062
1488507527.7753720284,1488507527.7777869701,        0.2792968750,        0.3364257812,       -0.4003906250,       54.9926757812,      -33.6914062500,      -56.0607910156
1488507527.7780790329,1488507527.7804949284,        0.2792968750,        0.3364257812,       -0.4003906250,       54.9926757812,      -33.6914062500,      -56.0607910156
1488507527.7807860374,1488507527.7831449509,        0.2792968750,        0.3364257812,       -0.2148437500,       45.4559326172,      -36.5447998047,      -51.4526367188
1488507527.7834300995,1488507527.7857279778,        0.3417968750,        0.4316406250,       -0.2148437500,       45.4559326172,      -36.5447998047,      -51.4526367188
1488507527.7860100269,1488507527.7883040905,        0.3417968750,        0.4316406250,       -0.2148437500,       34.9426269531,      -38.6962890625,      -46.4172363281
1488507527.7885870934,1488507527.7908809185,        0.3417968750,        0.4316406250,       -0.2148437500,       34.9426269531,      -38.6962890625,      -46.4172363281
1488507527.7911660671,1488507527.7934780121,        0.3417968750,        0.5566406250,       -0.1210937500,       25.3906250000,      -40.6341552734,      -42.2210693359
1488507527.7937629223,1488507527.7960529327,        0.4824218750,        0.5302734375,       -0.1210937500,       25.3906250000,      -40.6341552734,      -42.2210693359
1488507527.7963380814,1488507527.7986290455,        0.4824218750,        0.5302734375,       -0.1210937500,       17.5781250000,      -40.5731201172,      -38.3911132812
1488507527.7989149094,1488507527.8012070656,        0.4824218750,        0.5302734375,       -0.1210937500,       15.8538818359,      -40.5731201172,      -38.3911132812
1488507527.8014910221,1488507527.8040258884,        0.4824218750,        0.5336914062,       -0.1088867188,        4.1351318359,      -37.6586914062,      -33.9355468750
1488507527.8043160439,1488507527.8067290783,        0.7050781250,        0.5336914062,       -0.1088867188,        5.1879882812,      -37.6586914062,      -33.9355468750
1488507527.8070180416,1488507527.8094348907,        0.7050781250,        0.5336914062,       -0.1088867188,        5.1879882812,      -33.2031250000,      -30.0140380859
1488507527.8097250462,1488507527.8122661114,        0.7050781250,        0.5336914062,       -0.1088867188,       -4.2266845703,      -33.2031250000,      -30.0140380859
1488507527.8125550747,1488507527.8149380684,        0.8710937500,        0.4843750000,       -0.1054687500,       -8.1329345703,      -29.5867919922,      -26.7181396484
1488507527.8152260780,1488507527.8177330494,        0.8710937500,        0.4843750000,       -0.1054687500,       -9.8266601562,      -29.5867919922,      -26.7181396484
1488507527.8181459904,1488507527.8205649853,        0.8710937500,        0.4843750000,       -0.1054687500,      -11.9476318359,      -27.4353027344,      -24.3225097656
1488507527.8208580017,1488507527.8237109184,        0.8710937500,        0.4843750000,       -0.0932617188,      -11.9476318359,      -27.4353027344,      -24.3225097656
1488507527.8240048885,1488507527.8264169693,        0.8442382812,        0.3359375000,       -0.0932617188,      -11.7340087891,      -25.8941650391,      -22.5219726562
1488507527.8267090321,1488507527.8291220665,        0.8442382812,        0.3359375000,       -0.0932617188,      -11.7340087891,      -25.8941650391,      -22.5219726562
1488507527.8294138908,1488507527.8318250179,        0.8442382812,        0.3359375000,       -0.0932617188,       -9.9334716797,      -24.7955322266,      -21.0266113281
1488507527.8321080208,1488507527.8343980312,        0.7192382812,        0.2666015625,       -0.1708984375,       -9.9334716797,      -24.7955322266,      -21.0266113281
1488507527.8346800804,1488507527.8369650841,        0.7314453125,        0.2666015625,       -0.1708984375,       -8.8043212891,      -22.7661132812,      -18.3715820312
1488507527.8372480869,1488507527.8395369053,        0.7314453125,        0.2666015625,       -0.1708984375,       -8.8043212891,      -22.7661132812,      -18.3715820312
1488507527.8398180008,1488507527.8421490192,        0.7314453125,        0.2666015625,       -0.1708984375,       -4.8980712891,      -21.1486816406,      -15.4571533203
1488507527.8424348831,1488507527.8448359966,        0.5898437500,        0.2749023438,       -0.2197265625,       -7.0037841797,      -21.1486816406,      -15.4571533203
1488507527.8451220989,1488507527.8475210667,        0.5898437500,        0.2749023438,       -0.2197265625,       -7.0037841797,      -20.2941894531,      -12.9547119141
1488507527.8478069305,1488507527.8502058983,        0.5898437500,        0.2749023438,       -0.2197265625,       -4.0588378906,      -20.2941894531,      -12.9547119141
1488507527.8504920006,1488507527.8528509140,        0.5898437500,        0.2749023438,       -0.2197265625,       -4.0588378906,      -19.4244384766,       -9.7045898438
1488507527.8531310558,1488507527.8554248810,        0.5141601562,        0.3193359375,       -0.3037109375,       -0.8544921875,      -19.4244384766,       -9.7045898438
1488507527.8557050228,1488507527.8579978943,        0.5141601562,        0.3193359375,       -0.3037109375,       -0.8544921875,      -19.4244384766,       -6.4544677734
1488507527.8582758904,1488507527.8605690002,        0.5141601562,        0.3193359375,       -0.3037109375,        1.8005371094,      -19.1497802734,       -6.4544677734
1488507527.8608469963,1488507527.8631451130,        0.5141601562,        0.3193359375,       -0.3037109375,        1.8005371094,      -19.1497802734,       -2.5482177734
1488507527.8634240627,1488507527.8657209873,        0.5322265625,        0.3374023438,       -0.3847656250,        2.3193359375,      -17.4560546875,       -2.6092529297
1488507527.8659970760,1488507527.8682940006,        0.5322265625,        0.3374023438,       -0.3847656250,        2.3193359375,      -17.4560546875,       -2.6092529297
1488507527.8685719967,1488507527.8708689213,        0.5322265625,        0.3374023438,       -0.3847656250,        0.7171630859,      -16.5863037109,        0.8392333984
1488507527.8711481094,1488507527.8735680580,        0.5322265625,        0.3374023438,       -0.3847656250,        0.7171630859,      -16.5863037109,        0.8392333984
1488507527.8738470078,1488507527.8761420250,        0.5537109375,        0.3208007812,       -0.3657226562,       -0.7629394531,      -15.0146484375,        4.2419433594
1488507527.8764200211,1488507527.8787159920,        0.5537109375,        0.3208007812,       -0.3657226562,       -0.7629394531,      -15.0146484375,        4.2419433594
1488507527.8789949417,1488507527.8812880516,        0.5537109375,        0.3208007812,       -0.3657226562,       -3.0364990234,      -13.4735107422,        7.8735351562
1488507527.8818070889,1488507527.8841049671,        0.5537109375,        0.3208007812,       -0.3491210938,       -3.0364990234,      -13.4735107422,        7.8735351562
1488507527.8843829632,1488507527.8866748810,        0.5527343750,        0.3261718750,       -0.3491210938,       -5.5389404297,      -12.8631591797,       10.7727050781
1488507527.8869578838,1488507527.8892478943,        0.5527343750,        0.3261718750,       -0.3491210938,       -5.5389404297,      -12.8631591797,       10.7727050781
1488507527.8895289898,1488507527.8918390274,        0.5527343750,        0.3261718750,       -0.3491210938,       -5.5847167969,      -12.4206542969,       14.2211914062
1488507527.8921289444,1488507527.8945429325,        0.5527343750,        0.3261718750,       -0.3413085938,       -5.5847167969,      -12.4206542969,       14.2211914062
1488507527.8948318958,1488507527.8972520828,        0.5639648438,        0.2998046875,       -0.3413085938,       -3.9062500000,      -12.3443603516,       18.0358886719
