time_stamp before, time_stamp after, Acceleration x, Acceleration y, Acceleration z, Gyro x, Gyro y, Gyro z
1488507169.0491950512,1488507169.0556769371,        0.6259765625,        0.0341796875,       -0.1752929688,      -19.8364257812,      -11.6577148438,      -13.1072998047
1488507169.0560059547,1488507169.0584330559,        0.6191406250,       -0.0014648438,       -0.1748046875,      -17.8070068359,      -10.9863281250,      -13.0310058594
1488507169.0587298870,1488507169.0611510277,        0.6191406250,       -0.0014648438,       -0.1748046875,      -17.8070068359,      -10.9863281250,      -13.0310058594
1488507169.0614430904,1488507169.0639240742,        0.6191406250,       -0.0014648438,       -0.1748046875,      -15.7012939453,      -11.4135742188,      -13.9617919922
1488507169.0642139912,1488507169.0666329861,        0.6191406250,       -0.0004882812,       -0.1845703125,      -15.7012939453,      -11.4135742188,      -13.9617919922
1488507169.0669229031,1488507169.0693349838,        0.6040039062,       -0.0004882812,       -0.1845703125,      -13.9770507812,      -11.8255615234,      -14.9230957031
1488507169.0696270466,1488507169.0727319717,        0.6040039062,       -0.0004882812,       -0.1845703125,      -13.9770507812,      -11.8255615234,      -14.9230957031
1488507169.0730230808,1488507169.0754370689,        0.6040039062,       -0.0004882812,       -0.1845703125,      -11.7645263672,      -11.2915039062,      -15.7928466797
1488507169.0757279396,1488507169.0781478882,        0.6098632812,        0.0126953125,       -0.2241210938,      -11.7645263672,      -11.2915039062,      -15.7928466797
1488507169.0784370899,1488507169.0808570385,        0.6098632812,        0.0126953125,       -0.2241210938,      -11.3220214844,      -11.2762451172,      -16.1590576172
1488507169.0811460018,1488507169.0834789276,        0.6098632812,        0.0126953125,       -0.2241210938,      -11.3220214844,      -11.2762451172,      -16.1590576172
1488507169.0837619305,1488507169.0860490799,        0.6098632812,        0.0126953125,       -0.2460937500,      -11.5966796875,      -10.9863281250,      -16.1285400391
1488507169.0863308907,1488507169.0886220932,        0.6005859375,       -0.0004882812,       -0.2460937500,      -11.5966796875,      -10.9863281250,      -16.1285400391
1488507169.0889039040,1488507169.0911939144,        0.6005859375,       -0.0004882812,       -0.2460937500,      -11.6119384766,      -10.5743408203,      -16.3879394531
1488507169.0914750099,1488507169.0938150883,        0.6005859375,       -0.0004882812,       -0.2460937500,      -11.6119384766,      -10.5743408203,      -16.3879394531
1488507169.0940968990,1488507169.0963840485,        0.6005859375,        0.1245117188,       -0.2568359375,      -12.6190185547,      -10.2691650391,      -17.0135498047
1488507169.0966660976,1488507169.0989580154,        0.5893554688,        0.0146484375,       -0.2568359375,      -12.6190185547,      -10.2691650391,      -17.0135498047
1488507169.0992410183,1488507169.1015338898,        0.5893554688,        0.0146484375,       -0.2568359375,      -12.6190185547,      -10.0860595703,      -17.0135498047
1488507169.1018190384,1488507169.1041059494,        0.5893554688,        0.0146484375,       -0.2568359375,      -13.3361816406,      -10.0860595703,      -17.0135498047
1488507169.1043920517,1488507169.1066839695,        0.5893554688,        0.0268554688,       -0.2470703125,      -13.3361816406,      -10.0860595703,      -17.0135498047
1488507169.1069691181,1488507169.1092560291,        0.5825195312,        0.0268554688,       -0.2470703125,      -14.0228271484,      -10.0097656250,      -17.0135498047
1488507169.1095390320,1488507169.1119339466,        0.5825195312,        0.0268554688,       -0.2470703125,      -14.0228271484,      -10.0097656250,      -17.0135498047
1488507169.1122219563,1488507169.1145119667,        0.5825195312,        0.0268554688,       -0.2470703125,      -14.9230957031,       -9.5214843750,      -17.0898437500
1488507169.1147949696,1488507169.1170830727,        0.5859375000,        0.0073242188,       -0.2416992188,      -14.9230957031,       -9.5214843750,      -17.0898437500
1488507169.1175320148,1488507169.1198229790,        0.5859375000,        0.0073242188,       -0.2416992188,      -13.9617919922,       -9.5672607422,      -17.3492431641
1488507169.1201050282,1488507169.1224300861,        0.5859375000,        0.0073242188,       -0.2416992188,      -13.9617919922,       -9.5672607422,      -17.3492431641
1488507169.1227140427,1488507169.1250030994,        0.5859375000,        0.0073242188,       -0.2416992188,      -13.8244628906,       -9.4757080078,      -17.7459716797
1488507169.1252861023,1488507169.1275739670,        0.5996093750,        0.0024414062,       -0.2529296875,      -13.8244628906,       -9.4757080078,      -17.7459716797
1488507169.1278560162,1488507169.1301500797,        0.5996093750,        0.0024414062,       -0.2529296875,      -12.7563476562,       -9.2468261719,      -17.6086425781
1488507169.1304330826,1488507169.1327269077,        0.5996093750,        0.0024414062,       -0.2529296875,      -12.7563476562,       -9.2468261719,      -17.6086425781
1488507169.1330099106,1488507169.1353030205,        0.5996093750,        0.0024414062,       -0.2529296875,      -12.0391845703,       -9.1857910156,      -17.8527832031
1488507169.1355860233,1488507169.1378738880,        0.5893554688,        0.0341796875,       -0.2353515625,      -12.0391845703,       -9.1857910156,      -17.8527832031
1488507169.1381559372,1488507169.1404459476,        0.5893554688,        0.0341796875,       -0.2353515625,      -11.3983154297,       -9.2620849609,      -17.6086425781
1488507169.1407279968,1488507169.1430809498,        0.5893554688,        0.0341796875,       -0.2353515625,      -11.3983154297,       -9.2620849609,      -17.6086425781
1488507169.1433639526,1488507169.1456499100,        0.5893554688,        0.0341796875,       -0.2353515625,      -10.7574462891,       -8.9569091797,      -17.4865722656
1488507169.1459319592,1488507169.1482179165,        0.5957031250,        0.0483398438,       -0.2358398438,      -10.7574462891,       -8.9569091797,      -17.4865722656
1488507169.1484990120,1488507169.1507859230,        0.5957031250,        0.0483398438,       -0.2358398438,      -10.3759765625,       -8.4381103516,      -17.1813964844
1488507169.1510701180,1488507169.1534049511,        0.5957031250,        0.0483398438,       -0.2358398438,      -10.3759765625,       -8.4381103516,      -17.1813964844
1488507169.1536889076,1488507169.1559760571,        0.5957031250,        0.0483398438,       -0.2358398438,      -10.3759765625,       -8.7890625000,      -17.1966552734
1488507169.1562581062,1488507169.1585481167,        0.5810546875,        0.0224609375,       -0.2416992188,       -9.8266601562,       -8.7890625000,      -17.1966552734
1488507169.1588270664,1488507169.1611139774,        0.5810546875,        0.0224609375,       -0.2416992188,       -9.8266601562,       -8.7890625000,      -17.6849365234
1488507169.1613919735,1488507169.1636879444,        0.5810546875,        0.0224609375,       -0.2416992188,       -9.6893310547,       -8.9111328125,      -17.6849365234
1488507169.1639668941,1488507169.1662540436,        0.5810546875,        0.0224609375,       -0.2416992188,       -9.6893310547,       -8.9111328125,      -17.6849365234
1488507169.1665320396,1488507169.1688199043,        0.5683593750,        0.0029296875,       -0.2490234375,       -9.2010498047,       -8.9874267578,      -18.3868408203
1488507169.1690979004,1488507169.1713860035,        0.5683593750,        0.0029296875,       -0.2490234375,       -9.2010498047,       -8.9874267578,      -18.3868408203
1488507169.1717050076,1488507169.1741080284,        0.5683593750,        0.0029296875,       -0.2490234375,       -7.2174072266,       -9.2010498047,      -18.7988281250
1488507169.1743900776,1488507169.1766729355,        0.5683593750,        0.0029296875,       -0.3740234375,       -7.2174072266,       -9.2010498047,      -18.7988281250
1488507169.1769540310,1488507169.1793799400,        0.5654296875,       -0.0092773438,       -0.2739257812,       -4.2266845703,       -9.2773437500,      -19.6228027344
1488507169.1797730923,1488507169.1821110249,        0.5654296875,       -0.0092773438,       -0.2739257812,       -4.2266845703,       -9.2773437500,      -19.6228027344
1488507169.1823909283,1488507169.1846840382,        0.5654296875,       -0.0092773438,       -0.2739257812,       -2.2735595703,       -8.3160400391,      -20.5688476562
1488507169.1849639416,1488507169.1872529984,        0.5654296875,       -0.0092773438,       -0.2631835938,       -2.2735595703,       -8.3160400391,      -20.5688476562
1488507169.1875309944,1488507169.1898229122,        0.5644531250,       -0.0024414062,       -0.2631835938,       -0.9307861328,       -7.8430175781,      -21.5301513672
1488507169.1900999546,1488507169.1924450397,        0.5644531250,       -0.0024414062,       -0.2631835938,       -0.9307861328,       -7.8430175781,      -21.5301513672
1488507169.1927320957,1488507169.1951510906,        0.5644531250,       -0.0024414062,       -0.2631835938,       -0.1678466797,       -8.6059570312,      -21.9268798828
1488507169.1954391003,1488507169.1978619099,        0.5644531250,        0.0410156250,       -0.2407226562,       -0.1678466797,       -8.6059570312,      -21.9268798828
1488507169.1981511116,1488507169.2005660534,        0.5708007812,        0.0410156250,       -0.2407226562,       -0.0152587891,       -8.6669921875,      -22.1099853516
1488507169.2008540630,1488507169.2033119202,        0.5708007812,        0.0410156250,       -0.2407226562,       -0.0152587891,       -8.6669921875,      -22.1099853516
1488507169.2035989761,1488507169.2060220242,        0.5708007812,        0.0410156250,       -0.2407226562,       -1.1444091797,       -7.7056884766,      -22.2625732422
1488507169.2063069344,1488507169.2087209225,        0.5937500000,        0.0957031250,       -0.2304687500,       -1.1444091797,       -7.7056884766,      -22.2625732422
1488507169.2090089321,1488507169.2114241123,        0.5937500000,        0.0957031250,       -0.2304687500,       -2.8991699219,       -6.8054199219,      -22.0947265625
1488507169.2117230892,1488507169.2140140533,        0.5937500000,        0.0957031250,       -0.2304687500,       -2.8991699219,       -6.8054199219,      -22.0947265625
1488507169.2142930031,1488507169.2165849209,        0.5937500000,        0.0957031250,       -0.2304687500,       -4.6539306641,       -7.1716308594,      -21.6064453125
1488507169.2168619633,1488507169.2191629410,        0.6215820312,        0.1103515625,       -0.2128906250,       -4.6539306641,       -7.1716308594,      -21.6064453125
1488507169.2194409370,1488507169.2218360901,        0.6215820312,        0.1103515625,       -0.2128906250,       -6.2103271484,       -7.7514648438,      -21.4538574219
1488507169.2221150398,1488507169.2244141102,        0.6215820312,        0.1103515625,       -0.2128906250,       -6.2103271484,       -7.7514648438,      -21.4538574219
1488507169.2246921062,1488507169.2269890308,        0.6215820312,        0.1103515625,       -0.2128906250,       -7.2479248047,       -7.8735351562,      -21.4385986328
1488507169.2272660732,1488507169.2295598984,        0.6123046875,        0.0727539062,       -0.2124023438,       -7.2479248047,       -7.8735351562,      -21.4385986328
1488507169.2298369408,1488507169.2322149277,        0.6123046875,        0.0727539062,       -0.2124023438,       -7.2479248047,       -7.4157714844,      -21.9268798828
1488507169.2324941158,1488507169.2347879410,        0.6123046875,        0.0727539062,       -0.2124023438,       -7.9650878906,       -7.4157714844,      -21.9268798828
1488507169.2350659370,1488507169.2373609543,        0.6123046875,        0.0727539062,       -0.2124023438,       -7.9650878906,       -7.4157714844,      -22.7661132812
1488507169.2376389503,1488507169.2399330139,        0.6049804688,        0.0444335938,       -0.2109375000,       -7.6141357422,       -7.7819824219,      -22.7661132812
1488507169.2402129173,1488507169.2425730228,        0.6049804688,        0.0444335938,       -0.2109375000,       -7.6141357422,       -7.7819824219,      -23.7731933594
1488507169.2429690361,1488507169.2453839779,        0.6049804688,        0.0444335938,       -0.2109375000,       -7.0953369141,       -7.7972412109,      -23.7731933594
1488507169.2456700802,1488507169.2480919361,        0.6049804688,        0.0444335938,       -0.2265625000,       -7.0953369141,       -7.7972412109,      -24.7955322266
1488507169.2483789921,1488507169.2507948875,        0.6049804688,        0.0151367188,       -0.2265625000,       -6.1492919922,       -7.8430175781,      -24.7955322266
1488507169.2510819435,1488507169.2535040379,        0.6049804688,        0.0151367188,       -0.2265625000,       -6.1492919922,       -7.8430175781,      -26.0772705078
1488507169.2537910938,1488507169.2562160492,        0.6049804688,        0.0151367188,       -0.2265625000,       -6.7901611328,       -7.6599121094,      -26.0772705078
1488507169.2565019131,1488507169.2589190006,        0.6108398438,        0.0410156250,       -0.2299804688,       -6.7901611328,       -7.6599121094,      -27.2979736328
1488507169.2592039108,1488507169.2616279125,        0.6108398438,        0.0410156250,       -0.2299804688,       -8.0261230469,       -6.8969726562,      -27.2979736328
1488507169.2619810104,1488507169.2644009590,        0.6108398438,        0.0410156250,       -0.2299804688,       -8.0261230469,       -6.8969726562,      -28.1982421875
1488507169.2646880150,1488507169.2671060562,        0.6108398438,        0.0410156250,       -0.2299804688,       -9.7808837891,       -7.7056884766,      -28.1982421875
1488507169.2673931122,1488507169.2698171139,        0.6123046875,        0.0712890625,       -0.2050781250,       -9.7808837891,       -7.7056884766,      -28.1066894531
1488507169.2701029778,1488507169.2725260258,        0.6123046875,        0.0712890625,       -0.2050781250,      -10.9710693359,       -8.1024169922,      -28.1066894531
1488507169.2728159428,1488507169.2752308846,        0.6123046875,        0.0712890625,       -0.2050781250,      -10.9710693359,       -8.1024169922,      -28.2897949219
1488507169.2755188942,1488507169.2779090405,        0.6123046875,        0.0712890625,       -0.2221679688,      -11.5356445312,       -8.7738037109,      -28.2897949219
1488507169.2781929970,1488507169.2804849148,        0.6108398438,        0.0732421875,       -0.2221679688,      -11.5356445312,       -8.7738037109,      -28.2897949219
1488507169.2807679176,1488507169.2832028866,        0.6108398438,        0.0732421875,       -0.2221679688,      -11.7797851562,       -9.1705322266,      -28.7628173828
1488507169.2834858894,1488507169.2857770920,        0.6108398438,        0.0732421875,       -0.2221679688,      -11.7797851562,       -9.1705322266,      -28.7628173828
1488507169.2860610485,1488507169.2884380817,        0.6108398438,        0.0732421875,       -0.2250976562,      -11.8103027344,       -9.5520019531,      -29.8919677734
1488507169.2887220383,1488507169.2910170555,        0.5952148438,        0.0649414062,       -0.2250976562,      -11.8103027344,       -9.5520019531,      -29.8919677734
1488507169.2917349339,1488507169.2941579819,        0.5952148438,        0.0649414062,       -0.2250976562,      -11.5661621094,      -10.1318359375,      -31.1279296875
1488507169.2944519520,1488507169.2968719006,        0.5952148438,        0.0649414062,       -0.2250976562,      -11.5661621094,      -10.1318359375,      -35.0341796875
1488507169.2971661091,1488507169.2995870113,        0.5849609375,        0.0634765625,       -0.2299804688,      -11.3830566406,      -10.3759765625,      -31.9366455078
1488507169.2998800278,1488507169.3023068905,        0.5849609375,        0.0634765625,       -0.2299804688,      -11.3830566406,      -10.3759765625,      -31.9366455078
1488507169.3025999069,1488507169.3050138950,        0.5849609375,        0.0634765625,       -0.2299804688,      -11.0015869141,      -10.0402832031,      -32.5622558594
1488507169.3053081036,1488507169.3077270985,        0.5849609375,        0.0634765625,       -0.2299804688,      -11.0015869141,      -10.0402832031,      -32.5622558594
1488507169.3081290722,1488507169.3105509281,        0.5864257812,        0.0771484375,       -0.2470703125,      -11.0321044922,      -10.3759765625,      -33.2641601562
1488507169.3108429909,1488507169.3133120537,        0.5864257812,        0.0771484375,       -0.2470703125,      -11.0321044922,      -10.3759765625,      -34.2407226562
1488507169.3136050701,1488507169.3160181046,        0.5864257812,        0.0771484375,       -0.2470703125,      -12.0544433594,      -10.6201171875,      -34.2407226562
1488507169.3163108826,1488507169.3187289238,        0.5864257812,        0.0771484375,       -0.2670898438,      -12.0544433594,      -10.6201171875,      -34.7442626953
1488507169.3190200329,1488507169.3214390278,        0.5869140625,        0.0654296875,       -0.2670898438,      -13.8397216797,      -10.3607177734,      -34.7442626953
1488507169.3217399120,1488507169.3240280151,        0.5869140625,        0.0654296875,       -0.2670898438,      -13.8397216797,      -10.3607177734,      -38.6505126953
1488507169.3243129253,1488507169.3266060352,        0.5869140625,        0.0654296875,       -0.2670898438,      -14.8468017578,      -10.6201171875,      -35.7208251953
1488507169.3268899918,1488507169.3291840553,        0.5869140625,        0.0537109375,       -0.2587890625,      -14.8468017578,      -10.6201171875,      -35.7208251953
1488507169.3294689655,1488507169.3318409920,        0.5766601562,        0.0537109375,       -0.2587890625,      -14.9536132812,      -10.6201171875,      -36.4227294922
1488507169.3321459293,1488507169.3344509602,        0.5766601562,        0.0537109375,       -0.2587890625,      -14.9536132812,      -10.6201171875,      -36.4227294922
1488507169.3347370625,1488507169.3370330334,        0.5766601562,        0.0537109375,       -0.2587890625,      -14.3127441406,      -10.6811523438,      -37.7044677734
1488507169.3373169899,1488507169.3396139145,        0.5839843750,        0.0400390625,       -0.2602539062,      -14.3127441406,      -10.6811523438,      -37.7044677734
1488507169.3398981094,1488507169.3423030376,        0.5839843750,        0.0400390625,       -0.2602539062,      -13.1378173828,      -10.9558105469,      -38.8336181641
1488507169.3425889015,1488507169.3448860645,        0.5839843750,        0.0400390625,       -0.2602539062,      -13.1378173828,      -10.9558105469,      -38.8336181641
1488507169.3451700211,1488507169.3474619389,        0.5839843750,        0.0400390625,       -0.2602539062,      -11.7645263672,      -11.1694335938,      -39.8864746094
1488507169.3477470875,1488507169.3500399590,        0.5893554688,        0.0322265625,       -0.2670898438,      -11.7645263672,      -11.1694335938,      -39.8864746094
1488507169.3503239155,1488507169.3527159691,        0.5893554688,        0.0322265625,       -0.2670898438,      -10.1776123047,      -11.6577148438,      -41.0614013672
1488507169.3530120850,1488507169.3554298878,        0.5893554688,        0.0322265625,       -0.2670898438,      -10.1776123047,      -11.6577148438,      -41.0614013672
1488507169.3557240963,1488507169.3581430912,        0.5893554688,        0.0322265625,       -0.2670898438,      -10.3454589844,      -11.7645263672,      -41.8701171875
1488507169.3584339619,1488507169.3608520031,        0.6162109375,        0.0849609375,       -0.2690429688,      -10.3454589844,      -11.7645263672,      -41.8701171875
1488507169.3611450195,1488507169.3635709286,        0.6162109375,        0.0849609375,       -0.2690429688,      -11.0321044922,      -11.7187500000,      -42.4804687500
1488507169.3638629913,1488507169.3662779331,        0.6162109375,        0.0849609375,       -0.2690429688,      -11.0321044922,      -11.7187500000,      -42.4804687500
1488507169.3665699959,1488507169.3689858913,        0.6162109375,        0.0849609375,       -0.2495117188,      -11.8865966797,      -11.4288330078,      -42.5872802734
1488507169.3692810535,1488507169.3717079163,        0.6245117188,        0.1567382812,       -0.2495117188,      -11.8865966797,      -11.4288330078,      -42.5872802734
1488507169.3721070290,1488507169.3745229244,        0.6245117188,        0.1567382812,       -0.2495117188,      -12.6800537109,      -11.5661621094,      -41.9006347656
1488507169.3748140335,1488507169.3772339821,        0.6245117188,        0.1567382812,       -0.2495117188,      -12.6800537109,      -11.5661621094,      -41.9006347656
1488507169.3775260448,1488507169.3799459934,        0.6059570312,        0.1679687500,       -0.2348632812,      -14.0991210938,      -11.5203857422,      -41.0156250000
1488507169.3802390099,1488507169.3826520443,        0.6059570312,        0.1679687500,       -0.2348632812,      -14.0991210938,      -11.5203857422,      -41.0156250000
1488507169.3829369545,1488507169.3852300644,        0.6059570312,        0.1679687500,       -0.2348632812,      -15.9454345703,      -11.5051269531,      -41.0919189453
1488507169.3855130672,1488507169.3878080845,        0.6059570312,        0.1679687500,       -0.2348632812,      -15.9454345703,      -11.5051269531,      -41.0919189453
1488507169.3880910873,1488507169.3903839588,        0.6035156250,        0.1596679688,       -0.2324218750,      -16.8762207031,      -10.9252929688,      -41.4733886719
1488507169.3906679153,1488507169.3930408955,        0.6035156250,        0.1596679688,       -0.2324218750,      -16.8762207031,      -10.9252929688,      -41.4733886719
1488507169.3933320045,1488507169.3957509995,        0.6035156250,        0.1596679688,       -0.2324218750,      -16.8762207031,      -10.8795166016,      -41.5496826172
1488507169.3960430622,1488507169.3984599113,        0.6035156250,        0.1596679688,       -0.2324218750,      -17.0288085938,      -10.8795166016,      -41.5496826172
1488507169.3987529278,1488507169.4011681080,        0.6005859375,        0.1372070312,       -0.2353515625,      -17.0288085938,      -10.7574462891,      -41.5802001953
1488507169.4014608860,1488507169.4039189816,        0.6005859375,        0.1372070312,       -0.2353515625,      -16.7846679688,      -10.7574462891,      -41.5802001953
1488507169.4042110443,1488507169.4066290855,        0.6005859375,        0.1372070312,       -0.2353515625,      -16.7846679688,      -10.6048583984,      -41.8090820312
1488507169.4069199562,1488507169.4094879627,        0.6005859375,        0.1372070312,       -0.2524414062,      -15.9149169922,      -10.6048583984,      -41.8090820312
1488507169.4097800255,1488507169.4121971130,        0.6098632812,        0.1381835938,       -0.2524414062,      -15.3198242188,      -10.4064941406,      -42.1447753906
1488507169.4129118919,1488507169.4153339863,        0.6098632812,        0.1381835938,       -0.2524414062,      -15.3198242188,      -10.4064941406,      -42.1447753906
1488507169.4156270027,1488507169.4180450439,        0.6098632812,        0.1381835938,       -0.2524414062,      -15.2893066406,      -10.1318359375,      -42.9077148438
1488507169.4183371067,1488507169.4207510948,        0.6074218750,        0.1376953125,       -0.2739257812,      -15.2893066406,      -10.1318359375,      -42.9077148438
1488507169.4210441113,1488507169.4234149456,        0.6074218750,        0.1376953125,       -0.2739257812,      -15.2587890625,       -9.8419189453,      -43.4722900391
1488507169.4236960411,1488507169.4259929657,        0.6074218750,        0.1376953125,       -0.2739257812,      -15.2587890625,       -9.8419189453,      -43.4722900391
1488507169.4262750149,1488507169.4285678864,        0.6074218750,        0.1376953125,       -0.2739257812,      -15.3198242188,       -9.9029541016,      -44.3878173828
1488507169.4288480282,1488507169.4311399460,        0.6127929688,        0.1352539062,       -0.2763671875,      -15.3198242188,       -9.9029541016,      -44.3878173828
1488507169.4314219952,1488507169.4338328838,        0.6127929688,        0.1352539062,       -0.2763671875,      -15.3198242188,      -10.3302001953,      -44.2962646484
1488507169.4341249466,1488507169.4365410805,        0.6127929688,        0.1352539062,       -0.2763671875,      -15.4724121094,      -10.3302001953,      -44.2962646484
1488507169.4369330406,1488507169.4393539429,        0.6127929688,        0.1352539062,       -0.2763671875,      -15.7318115234,      -10.3302001953,      -45.0134277344
1488507169.4396450520,1488507169.4420840740,        0.6210937500,        0.1547851562,       -0.2675781250,      -15.7318115234,      -10.3302001953,      -45.0134277344
1488507169.4423689842,1488507169.4446659088,        0.6210937500,        0.1547851562,       -0.2675781250,      -15.7318115234,      -10.4980468750,      -45.2728271484
1488507169.4449501038,1488507169.4472460747,        0.6210937500,        0.1547851562,       -0.2675781250,      -16.4642333984,      -10.4980468750,      -45.2728271484
1488507169.4475300312,1488507169.4498229027,        0.6210937500,        0.1547851562,       -0.2695312500,      -16.4642333984,      -10.4980468750,      -45.6085205078
1488507169.4501070976,1488507169.4524440765,        0.6289062500,        0.1508789062,       -0.2695312500,      -17.6239013672,      -10.8337402344,      -45.6085205078
1488507169.4527289867,1488507169.4550220966,        0.6289062500,        0.1508789062,       -0.2695312500,      -17.6239013672,      -10.8337402344,      -46.1730957031
1488507169.4553079605,1488507169.4576010704,        0.6289062500,        0.1508789062,       -0.2695312500,      -19.0277099609,      -11.5051269531,      -46.1730957031
1488507169.4578850269,1488507169.4601759911,        0.6289062500,        0.1435546875,       -0.2626953125,      -19.0277099609,      -11.5051269531,      -46.1730957031
1488507169.4604599476,1488507169.4628429413,        0.6533203125,        0.1435546875,       -0.2626953125,      -20.3704833984,      -11.7797851562,      -46.2036132812
1488507169.4631268978,1488507169.4654219151,        0.6533203125,        0.1435546875,       -0.2626953125,      -20.3704833984,      -11.7797851562,      -46.2036132812
1488507169.4657061100,1488507169.4680008888,        0.6533203125,        0.1435546875,       -0.2626953125,      -20.7977294922,      -11.5661621094,      -47.0886230469
1488507169.4682850838,1488507169.4705810547,        0.6533203125,        0.1547851562,       -0.2348632812,      -20.7977294922,      -11.5661621094,      -47.0886230469
1488507169.4708631039,1488507169.4731891155,        0.6704101562,        0.1547851562,       -0.2348632812,      -21.1334228516,      -11.7340087891,      -48.0194091797
1488507169.4734730721,1488507169.4757668972,        0.6704101562,        0.1547851562,       -0.2348632812,      -21.1334228516,      -11.7340087891,      -48.0194091797
1488507169.4760529995,1488507169.4783420563,        0.6704101562,        0.1547851562,       -0.2348632812,      -21.8658447266,      -12.0849609375,      -49.1180419922
1488507169.4786291122,1488507169.4809210300,        0.6928710938,        0.1650390625,       -0.2490234375,      -21.8658447266,      -12.0849609375,      -49.1180419922
1488507169.4812059402,1488507169.4836099148,        0.6928710938,        0.1650390625,       -0.2490234375,      -23.4832763672,      -12.4816894531,      -49.9572753906
1488507169.4839010239,1488507169.4863169193,        0.6928710938,        0.1650390625,       -0.2490234375,      -23.4832763672,      -12.4816894531,      -49.9572753906
1488507169.4866080284,1488507169.4890239239,        0.6928710938,        0.1650390625,       -0.2490234375,      -24.7192382812,      -12.8631591797,      -50.1098632812
1488507169.4893150330,1488507169.4917418957,        0.6879882812,        0.1367187500,       -0.2441406250,      -24.7192382812,      -12.8631591797,      -50.1098632812
1488507169.4920349121,1488507169.4944529533,        0.6879882812,        0.1367187500,       -0.2441406250,      -25.0091552734,      -13.4124755859,      -49.9114990234
1488507169.4947459698,1488507169.4971630573,        0.6879882812,        0.1367187500,       -0.2441406250,      -25.0091552734,      -13.4124755859,      -49.9114990234
1488507169.4974539280,1488507169.4998769760,        0.6879882812,        0.1367187500,       -0.2441406250,      -25.4821777344,      -13.1530761719,      -51.0864257812
1488507169.5001680851,1488507169.5025610924,        0.7163085938,        0.1269531250,       -0.2358398438,      -25.4821777344,      -13.1530761719,      -51.0864257812
1488507169.5029520988,1488507169.5052480698,        0.7163085938,        0.1269531250,       -0.2358398438,      -25.6958007812,      -12.4816894531,      -52.4291992188
1488507169.5055320263,1488507169.5078270435,        0.7163085938,        0.1269531250,       -0.2358398438,      -25.6958007812,      -12.4816894531,      -52.4291992188
1488507169.5081119537,1488507169.5104060173,        0.7163085938,        0.1269531250,       -0.2451171875,      -26.5655517578,      -12.9089355469,      -53.4973144531
1488507169.5106930733,1488507169.5131399632,        0.7329101562,        0.1391601562,       -0.2451171875,      -26.5655517578,      -12.9089355469,      -53.4973144531
1488507169.5134329796,1488507169.5158469677,        0.7329101562,        0.1391601562,       -0.2451171875,      -27.4963378906,      -13.1988525391,      -54.4586181641
1488507169.5161368847,1488507169.5185549259,        0.7329101562,        0.1391601562,       -0.2451171875,      -27.4963378906,      -13.1988525391,      -54.4586181641
1488507169.5188460350,1488507169.5212659836,        0.7329101562,        0.1708984375,       -0.2294921875,      -27.8167724609,      -13.5040283203,      -55.6488037109
1488507169.5215570927,1488507169.5238718987,        0.7324218750,        0.1708984375,       -0.2294921875,      -27.8167724609,      -13.5040283203,      -55.6488037109
1488507169.5241560936,1488507169.5264470577,        0.7324218750,        0.1708984375,       -0.2294921875,      -28.7933349609,      -13.8244628906,      -55.8166503906
1488507169.5267291069,1488507169.5291409492,        0.7324218750,        0.1708984375,       -0.2294921875,      -28.7933349609,      -13.8244628906,      -55.8166503906
1488507169.5294270515,1488507169.5318419933,        0.7382812500,        0.1738281250,       -0.2158203125,      -28.7933349609,      -13.7786865234,      -56.4270019531
1488507169.5321450233,1488507169.5345759392,        0.7382812500,        0.1738281250,       -0.2158203125,      -29.9835205078,      -13.7786865234,      -56.4270019531
1488507169.5348699093,1488507169.5372869968,        0.7382812500,        0.1738281250,       -0.2158203125,      -33.8897705078,      -13.5955810547,      -57.4798583984
1488507169.5375781059,1488507169.5399930477,        0.7382812500,        0.1738281250,       -0.2158203125,      -31.4788818359,      -13.5955810547,      -57.4798583984
1488507169.5402839184,1488507169.5427060127,        0.7382812500,        0.1850585938,       -0.2207031250,      -31.4788818359,      -13.1072998047,      -58.7615966797
1488507169.5429980755,1488507169.5454161167,        0.7382812500,        0.1850585938,       -0.2207031250,      -33.4472656250,      -13.1072998047,      -58.7615966797
1488507169.5457088947,1488507169.5481240749,        0.7382812500,        0.1850585938,       -0.2207031250,      -33.4472656250,      -13.2598876953,      -59.0820312500
1488507169.5484158993,1488507169.5508320332,        0.7382812500,        0.1850585938,       -0.2128906250,      -34.6221923828,      -13.2598876953,      -59.0820312500
1488507169.5511219501,1488507169.5535500050,        0.7324218750,        0.1889648438,       -0.2128906250,      -38.5284423828,      -13.7481689453,      -58.7158203125
1488507169.5538420677,1488507169.5562589169,        0.7324218750,        0.1889648438,       -0.2128906250,      -35.8123779297,      -13.7481689453,      -58.7158203125
1488507169.5565500259,1488507169.5589680672,        0.7324218750,        0.1889648438,       -0.2128906250,      -35.8123779297,      -13.2904052734,      -59.2803955078
1488507169.5592598915,1488507169.5617148876,        0.7324218750,        0.1879882812,       -0.2099609375,      -37.8570556641,      -13.2904052734,      -59.2803955078
1488507169.5619990826,1488507169.5642900467,        0.7153320312,        0.1879882812,       -0.2099609375,      -41.7633056641,      -12.8021240234,      -60.0585937500
1488507169.5645730495,1488507169.5668671131,        0.7153320312,        0.1879882812,       -0.2099609375,      -39.5355224609,      -12.8021240234,      -60.0585937500
1488507169.5672569275,1488507169.5695509911,        0.7153320312,        0.1879882812,       -0.2099609375,      -39.5355224609,      -12.8021240234,      -60.5468750000
1488507169.5698349476,1488507169.5721399784,        0.6904296875,        0.1738281250,       -0.2138671875,      -41.5802001953,      -12.8936767578,      -60.5468750000
1488507169.5724229813,1488507169.5747148991,        0.6904296875,        0.1738281250,       -0.2138671875,      -41.5802001953,      -12.8936767578,      -60.3027343750
1488507169.5749979019,1488507169.5772891045,        0.6904296875,        0.1738281250,       -0.2138671875,      -42.9687500000,      -13.3361816406,      -60.3027343750
1488507169.5775709152,1488507169.5800900459,        0.6904296875,        0.1738281250,       -0.2138671875,      -42.9687500000,      -13.3361816406,      -60.2874755859
1488507169.5803749561,1488507169.5827310085,        0.6909179688,        0.1699218750,       -0.2373046875,      -44.3572998047,      -13.6413574219,      -60.2874755859
1488507169.5830159187,1488507169.5853068829,        0.6909179688,        0.1699218750,       -0.2373046875,      -44.3572998047,      -13.6413574219,      -60.2874755859
1488507169.5855920315,1488507169.5878779888,        0.6909179688,        0.1699218750,       -0.2373046875,      -46.4782714844,      -13.6108398438,      -60.7910156250
1488507169.5881619453,1488507169.5904500484,        0.6909179688,        0.1699218750,       -0.2373046875,      -46.4782714844,      -13.6108398438,      -60.7910156250
1488507169.5907320976,1488507169.5930778980,        0.6811523438,        0.1772460938,       -0.2416992188,      -49.9420166016,      -14.4805908203,      -61.0809326172
1488507169.5933630466,1488507169.5956549644,        0.6811523438,        0.1772460938,       -0.2416992188,      -49.9420166016,      -14.4805908203,      -61.0809326172
1488507169.5959401131,1488507169.5982239246,        0.6811523438,        0.1772460938,       -0.2416992188,      -54.1534423828,      -15.6097412109,      -61.0046386719
1488507169.5985090733,1488507169.6007990837,        0.6811523438,        0.1772460938,       -0.2416992188,      -54.1534423828,      -15.6097412109,      -61.0046386719
1488507169.6010830402,1488507169.6034290791,        0.6689453125,        0.1958007812,       -0.2407226562,      -58.0902099609,      -16.6473388672,      -60.8062744141
1488507169.6037149429,1488507169.6060099602,        0.6689453125,        0.1958007812,       -0.2407226562,      -58.0902099609,      -16.6473388672,      -60.8062744141
1488507169.6062929630,1488507169.6085820198,        0.6689453125,        0.1958007812,       -0.2407226562,      -61.8896484375,      -17.3339843750,      -60.4705810547
1488507169.6088659763,1488507169.6111540794,        0.6689453125,        0.1958007812,       -0.2407226562,      -61.8896484375,      -17.3339843750,      -60.4705810547
1488507169.6114370823,1488507169.6137390137,        0.6723632812,        0.1987304688,       -0.2392578125,      -66.1621093750,      -17.8833007812,      -60.5010986328
1488507169.6140239239,1488507169.6163148880,        0.6723632812,        0.1987304688,       -0.2392578125,      -66.1621093750,      -17.8833007812,      -60.5010986328
1488507169.6165978909,1488507169.6188850403,        0.6723632812,        0.1987304688,       -0.2392578125,      -73.9746093750,      -19.6380615234,      -60.2874755859
1488507169.6191709042,1488507169.6214649677,        0.6723632812,        0.1987304688,       -0.2167968750,      -70.8007812500,      -19.6380615234,      -60.2874755859
1488507169.6218409538,1488507169.6241369247,        0.6718750000,        0.1933593750,       -0.2167968750,      -70.8007812500,      -20.8740234375,      -59.9060058594
1488507169.6244220734,1488507169.6267220974,        0.6718750000,        0.1933593750,       -0.2167968750,      -73.7762451172,      -20.8740234375,      -59.9060058594
1488507169.6270060539,1488507169.6293001175,        0.6718750000,        0.1933593750,       -0.2167968750,      -73.7762451172,      -20.8740234375,      -59.2346191406
1488507169.6296899319,1488507169.6331219673,        0.6718750000,        0.1357421875,       -0.1791992188,      -74.7833251953,      -21.5911865234,      -59.2346191406
1488507169.6334419250,1488507169.6368560791,        0.6938476562,        0.1357421875,       -0.1791992188,      -76.1413574219,      -21.0113525391,      -59.4482421875
1488507169.6371569633,1488507169.6404900551,        0.6938476562,        0.1357421875,       -0.1791992188,      -76.1413574219,      -21.0113525391,      -60.1043701172
1488507169.6408081055,1488507169.6433079243,        0.6708984375,        0.1171875000,       -0.1611328125,      -76.4923095703,      -20.0958251953,      -60.1043701172
1488507169.6436100006,1488507169.6460230350,        0.6708984375,        0.1171875000,       -0.1611328125,      -72.5860595703,      -19.7143554688,      -59.9670410156
1488507169.6463189125,1488507169.6487219334,        0.6708984375,        0.1171875000,       -0.1611328125,      -73.1964111328,      -19.7143554688,      -59.9670410156
1488507169.6490139961,1488507169.6514239311,        0.6708984375,        0.1171875000,       -0.1611328125,      -73.1964111328,      -19.5617675781,      -60.8062744141
1488507169.6517269611,1488507169.6541290283,        0.6469726562,        0.1069335938,       -0.1645507812,      -68.0847167969,      -19.5617675781,      -60.8062744141
1488507169.6544210911,1488507169.6568250656,        0.6469726562,        0.1069335938,       -0.1645507812,      -68.0847167969,      -18.6462402344,      -62.6525878906
1488507169.6571159363,1488507169.6595220566,        0.6469726562,        0.1069335938,       -0.1645507812,      -62.7288818359,      -18.6462402344,      -62.6525878906
1488507169.6598150730,1488507169.6622190475,        0.6469726562,        0.2319335938,       -0.1289062500,      -62.7288818359,      -17.4407958984,      -65.8416748047
1488507169.6625099182,1488507169.6649110317,        0.6118164062,        0.1279296875,       -0.1289062500,      -57.3425292969,      -17.4407958984,      -65.8416748047
1488507169.6652009487,1488507169.6676099300,        0.6118164062,        0.1279296875,       -0.1289062500,      -57.3425292969,      -13.5345458984,      -69.5343017578
1488507169.6679000854,1488507169.6703050137,        0.6118164062,        0.1279296875,       -0.1289062500,      -50.4302978516,      -15.4113769531,      -69.5343017578
1488507169.6705949306,1488507169.6730129719,        0.5922851562,        0.1528320312,       -0.1660156250,      -50.4302978516,      -15.4113769531,      -74.2187500000
1488507169.6733040810,1488507169.6757049561,        0.5922851562,        0.1528320312,       -0.1660156250,      -43.0145263672,      -14.0228271484,      -74.2187500000
1488507169.6759979725,1488507169.6784029007,        0.5922851562,        0.1528320312,       -0.1660156250,      -43.0145263672,      -14.0228271484,      -78.3233642578
1488507169.6786949635,1488507169.6811039448,        0.5922851562,        0.1528320312,       -0.1660156250,      -37.4298095703,      -13.0615234375,      -78.3233642578
1488507169.6813950539,1488507169.6838269234,        0.6040039062,        0.2519531250,       -0.1962890625,      -37.4298095703,       -9.1552734375,      -83.3282470703
1488507169.6841158867,1488507169.6865329742,        0.6040039062,        0.2519531250,       -0.1962890625,      -32.9895019531,      -11.6577148438,      -83.3282470703
1488507169.6868240833,1488507169.6894469261,        0.6040039062,        0.2519531250,       -0.1962890625,      -32.9895019531,      -12.5122070312,      -87.8295898438
1488507169.6897408962,1488507169.6921479702,        0.6040039062,        0.2519531250,       -0.2856445312,      -26.7181396484,      -12.5122070312,      -87.8295898438
1488507169.6928749084,1488507169.6952970028,        0.5991210938,        0.3193359375,       -0.2856445312,      -20.4010009766,      -14.6484375000,      -90.1641845703
1488507169.6955909729,1488507169.6980130672,        0.5991210938,        0.3193359375,       -0.2856445312,      -20.4010009766,      -14.6484375000,      -90.1641845703
1488507169.6984601021,1488507169.7008779049,        0.5991210938,        0.3193359375,       -0.2856445312,      -18.6157226562,      -15.0604248047,      -90.6066894531
1488507169.7011699677,1488507169.7036070824,        0.5942382812,        0.2827148438,       -0.3203125000,      -18.6157226562,      -15.0604248047,      -90.6066894531
1488507169.7039000988,1488507169.7063150406,        0.5942382812,        0.2827148438,       -0.3203125000,      -19.1650390625,      -14.8010253906,      -90.4846191406
1488507169.7066090107,1488507169.7090311050,        0.5942382812,        0.2827148438,       -0.3203125000,      -19.1650390625,      -14.8010253906,      -90.4846191406
1488507169.7093229294,1488507169.7117528915,        0.5942382812,        0.2827148438,       -0.3203125000,      -18.7225341797,      -15.8691406250,      -91.6290283203
1488507169.7120471001,1488507169.7144670486,        0.5371093750,        0.3515625000,       -0.3535156250,      -18.7225341797,      -15.8691406250,      -91.6290283203
1488507169.7147591114,1488507169.7171790600,        0.5371093750,        0.3515625000,       -0.3535156250,      -16.9067382812,      -17.7764892578,      -93.4753417969
1488507169.7174720764,1488507169.7198851109,        0.5371093750,        0.3515625000,       -0.3535156250,      -16.9067382812,      -17.7764892578,      -93.4753417969
1488507169.7201769352,1488507169.7225649357,        0.5371093750,        0.3515625000,       -0.4208984375,      -16.4947509766,      -18.8293457031,      -92.9260253906
1488507169.7228488922,1488507169.7251451015,        0.5053710938,        0.3901367188,       -0.4208984375,      -16.4947509766,      -18.8293457031,      -92.9260253906
1488507169.7254300117,1488507169.7277159691,        0.5053710938,        0.3901367188,       -0.4208984375,      -16.4947509766,      -19.7906494141,      -89.0808105469
1488507169.7280011177,1488507169.7302939892,        0.5053710938,        0.3901367188,       -0.4208984375,      -17.5323486328,      -19.7906494141,      -89.0808105469
1488507169.7305788994,1488507169.7329120636,        0.5053710938,        0.3525390625,       -0.4218750000,      -17.5323486328,      -21.5759277344,      -83.9843750000
1488507169.7331950665,1488507169.7354900837,        0.4702148438,        0.3525390625,       -0.4218750000,      -19.7906494141,      -21.5759277344,      -83.9843750000
1488507169.7357740402,1488507169.7380769253,        0.4702148438,        0.3525390625,       -0.4218750000,      -19.7906494141,      -21.5759277344,      -79.2083740234
1488507169.7383630276,1488507169.7406549454,        0.4702148438,        0.3525390625,       -0.4218750000,      -22.4761962891,      -22.7355957031,      -79.2083740234
1488507169.7409400940,1488507169.7434051037,        0.4702148438,        0.2299804688,       -0.3437500000,      -22.4761962891,      -22.7355957031,      -74.0051269531
1488507169.7436919212,1488507169.7459909916,        0.4467773438,        0.2299804688,       -0.3437500000,      -25.8026123047,      -23.7884521484,      -74.0051269531
1488507169.7462749481,1488507169.7485699654,        0.4467773438,        0.2299804688,       -0.3437500000,      -25.8026123047,      -23.7884521484,      -70.0988769531
1488507169.7488539219,1488507169.7511510849,        0.4467773438,        0.2299804688,       -0.3437500000,      -30.4718017578,      -23.6968994141,      -66.5588378906
1488507169.7514359951,1488507169.7538669109,        0.4252929688,        0.0512695312,       -0.2827148438,      -30.4718017578,      -23.6968994141,      -66.5588378906
1488507169.7541630268,1488507169.7565820217,        0.4252929688,        0.0512695312,       -0.2827148438,      -35.3546142578,      -22.0794677734,      -57.7545166016
1488507169.7568728924,1488507169.7592949867,        0.4252929688,        0.0512695312,       -0.2827148438,      -35.3546142578,      -22.0794677734,      -57.7545166016
1488507169.7595860958,1488507169.7620139122,        0.4252929688,        0.0512695312,       -0.2827148438,      -40.4205322266,      -19.4549560547,      -49.0875244141
1488507169.7624170780,1488507169.7648389339,        0.3803710938,       -0.0395507812,       -0.1694335938,      -40.4205322266,      -19.4549560547,      -49.0875244141
1488507169.7651319504,1488507169.7675549984,        0.3803710938,       -0.0395507812,       -0.1694335938,      -44.3420410156,      -16.0675048828,      -40.8172607422
1488507169.7678470612,1488507169.7702670097,        0.3803710938,       -0.0395507812,       -0.1694335938,      -44.3420410156,      -16.0675048828,      -40.8172607422
1488507169.7705590725,1488507169.7729320526,        0.3803710938,       -0.0395507812,       -0.1630859375,      -45.0592041016,      -14.0075683594,      -34.5764160156
1488507169.7732191086,1488507169.7755138874,        0.3452148438,        0.0307617188,       -0.1630859375,      -45.0592041016,      -14.0075683594,      -34.5764160156
1488507169.7757980824,1488507169.7780859470,        0.3452148438,        0.0307617188,       -0.1630859375,      -42.9382324219,      -13.9160156250,      -29.2968750000
1488507169.7783699036,1488507169.7806730270,        0.3452148438,        0.0307617188,       -0.1630859375,      -42.9382324219,      -13.9160156250,      -29.2968750000
1488507169.7809569836,1488507169.7833549976,        0.3452148438,       -0.0942382812,       -0.1660156250,      -41.4276123047,      -12.7258300781,      -21.9268798828
1488507169.7837960720,1488507169.7860920429,        0.3632812500,       -0.0268554688,       -0.1660156250,      -41.4276123047,      -12.7258300781,      -21.9268798828
1488507169.7863800526,1488507169.7886691093,        0.3632812500,       -0.0268554688,       -0.1660156250,      -41.3360595703,       -9.2315673828,      -12.9394531250
1488507169.7889521122,1488507169.7912459373,        0.3632812500,       -0.0268554688,       -0.1660156250,      -41.3360595703,       -9.2315673828,      -12.9394531250
1488507169.7915260792,1488507169.7940509319,        0.4882812500,       -0.0991210938,       -0.1342773438,      -40.5731201172,       -5.6152343750,       -3.4332275391
1488507169.7943360806,1488507169.7967169285,        0.3842773438,       -0.0991210938,       -0.1342773438,      -40.5731201172,       -5.6152343750,       -3.4332275391
1488507169.7975940704,1488507169.7998828888,        0.3842773438,       -0.0991210938,       -0.1342773438,      -39.0319824219,       -3.3569335938,        3.4637451172
1488507169.8001658916,1488507169.8025279045,        0.3842773438,       -0.0991210938,       -0.1342773438,      -39.0319824219,       -3.3569335938,        3.4637451172
1488507169.8028070927,1488507169.8050930500,        0.3696289062,       -0.0761718750,       -0.1245117188,      -35.6140136719,       -1.2512207031,       10.7421875000
1488507169.8053770065,1488507169.8076651096,        0.3696289062,       -0.0761718750,       -0.1245117188,      -35.6140136719,       -1.2512207031,       10.7421875000
1488507169.8079469204,1488507169.8102319241,        0.3696289062,       -0.0761718750,       -0.1245117188,      -32.0892333984,        0.8239746094,       17.7917480469
1488507169.8105139732,1488507169.8128550053,        0.3696289062,       -0.0761718750,       -0.1245117188,      -32.0892333984,        0.8239746094,       17.7917480469
1488507169.8131380081,1488507169.8154311180,        0.3730468750,       -0.0410156250,       -0.1157226562,      -27.8472900391,        3.0059814453,       23.9868164062
1488507169.8157150745,1488507169.8180079460,        0.3730468750,       -0.0410156250,       -0.1157226562,      -27.8472900391,        3.0059814453,       23.9868164062
1488507169.8182899952,1488507169.8205800056,        0.3730468750,       -0.0410156250,       -0.1157226562,      -23.4527587891,        5.1116943359,       30.3497314453
1488507169.8208611012,1488507169.8231608868,        0.3730468750,       -0.0410156250,       -0.1157226562,      -23.4527587891,        5.1116943359,       30.3497314453
1488507169.8234438896,1488507169.8257310390,        0.3784179688,       -0.0131835938,       -0.1118164062,      -19.5465087891,        6.6986083984,       36.5142822266
1488507169.8261239529,1488507169.8284139633,        0.3784179688,       -0.0131835938,       -0.1118164062,      -19.6685791016,        6.6986083984,       36.5142822266
1488507169.8286969662,1488507169.8309860229,        0.3784179688,       -0.0131835938,       -0.1118164062,      -19.6685791016,        8.6669921875,       42.3736572266
1488507169.8312709332,1488507169.8336350918,        0.3784179688,       -0.0131835938,       -0.1098632812,      -16.8304443359,        8.6669921875,       42.3736572266
1488507169.8339169025,1488507169.8362081051,        0.3925781250,        0.0131835938,       -0.1098632812,      -16.8304443359,        8.6669921875,       49.2095947266
1488507169.8364889622,1488507169.8387789726,        0.3925781250,        0.0131835938,       -0.1098632812,      -15.1062011719,       10.2386474609,       49.2095947266
1488507169.8390629292,1488507169.8413488865,        0.3925781250,        0.0131835938,       -0.1098632812,      -15.1062011719,       10.2386474609,       55.9387207031
1488507169.8416340351,1488507169.8439710140,        0.3925781250,        0.0327148438,       -0.1098632812,      -13.6413574219,       12.0391845703,       55.9387207031
1488507169.8442571163,1488507169.8465499878,        0.4135742188,        0.0327148438,       -0.1098632812,      -13.6413574219,       12.0391845703,       59.8449707031
1488507169.8468339443,1488507169.8491210938,        0.4135742188,        0.0327148438,       -0.1098632812,      -12.5885009766,       13.9312744141,       62.2558593750
1488507169.8494060040,1488507169.8518350124,        0.4135742188,        0.0327148438,       -0.1098632812,      -12.5885009766,       13.9312744141,       62.2558593750
1488507169.8521258831,1488507169.8545029163,        0.4135742188,        0.0683593750,       -0.1142578125,      -11.8865966797,       16.0675048828,       69.1528320312
1488507169.8547959328,1488507169.8571810722,        0.4184570312,        0.0683593750,       -0.1142578125,      -11.8865966797,       16.0675048828,       69.1528320312
1488507169.8574719429,1488507169.8598539829,        0.4184570312,        0.0683593750,       -0.1142578125,      -11.6729736328,       17.7001953125,       75.0885009766
1488507169.8601450920,1488507169.8625121117,        0.4184570312,        0.0683593750,       -0.1142578125,      -11.6729736328,       17.7001953125,       75.0885009766
1488507169.8627960682,1488507169.8650929928,        0.4384765625,        0.1054687500,       -0.1166992188,      -10.9100341797,       19.0429687500,       81.0699462891
1488507169.8653790951,1488507169.8676729202,        0.4384765625,        0.1054687500,       -0.1166992188,      -10.9100341797,       19.0429687500,       81.0699462891
1488507169.8679590225,1488507169.8702459335,        0.4384765625,        0.1054687500,       -0.1166992188,      -10.0555419922,       20.9197998047,       86.8377685547
1488507169.8705310822,1488507169.8729670048,        0.4384765625,        0.1054687500,       -0.1166992188,      -10.0555419922,       20.9197998047,       86.8377685547
1488507169.8732609749,1488507169.8756821156,        0.4545898438,        0.1225585938,       -0.1113281250,       -9.1247558594,       22.4761962891,       92.4835205078
1488507169.8759739399,1488507169.8783879280,        0.4545898438,        0.1225585938,       -0.1113281250,       -9.1247558594,       22.4761962891,       92.4835205078
1488507169.8786780834,1488507169.8810980320,        0.4545898438,        0.1225585938,       -0.1113281250,       -7.3852539062,       22.9187011719,       97.6715087891
1488507169.8813879490,1488507169.8838150501,        0.4545898438,        0.1225585938,       -0.2363281250,       -7.3852539062,       22.9187011719,       97.6715087891
1488507169.8841040134,1488507169.8865211010,        0.4711914062,        0.1166992188,       -0.1274414062,       -5.4931640625,       23.6511230469,      102.7984619141
1488507169.8868100643,1488507169.8892290592,        0.4711914062,        0.1166992188,       -0.1274414062,       -5.4931640625,       23.6511230469,      102.7984619141
1488507169.8896269798,1488507169.8920500278,        0.4711914062,        0.1166992188,       -0.1274414062,       -3.7536621094,       25.1617431641,      107.4981689453
1488507169.8923380375,1488507169.8947510719,        0.4711914062,        0.1181640625,       -0.1420898438,       -3.7536621094,       25.1617431641,      107.4981689453
1488507169.8950400352,1488507169.8974559307,        0.5073242188,        0.1181640625,       -0.1420898438,       -2.3956298828,       26.4129638672,      111.6638183594
1488507169.8977439404,1488507169.9001629353,        0.5073242188,        0.1181640625,       -0.1420898438,       -2.3956298828,       26.4129638672,      111.6638183594
1488507169.9004518986,1488507169.9029109478,        0.5073242188,        0.1181640625,       -0.1420898438,       -1.7852783203,       26.7639160156,      115.3411865234
1488507169.9032011032,1488507169.9056189060,        0.5366210938,        0.1250000000,       -0.1572265625,       -1.7852783203,       26.7639160156,      115.3411865234
1488507169.9059069157,1488507169.9083859921,        0.5366210938,        0.1250000000,       -0.1572265625,       -0.6103515625,       26.9927978516,      118.3929443359
1488507169.9086759090,1488507169.9110770226,        0.5366210938,        0.1250000000,       -0.1572265625,       -0.6103515625,       26.9927978516,      118.3929443359
1488507169.9117629528,1488507169.9140570164,        0.5366210938,        0.1250000000,       -0.1572265625,        1.8005371094,       26.5655517578,      121.7193603516
1488507169.9143400192,1488507169.9166309834,        0.5629882812,        0.1557617188,       -0.1616210938,        1.8005371094,       26.5655517578,      121.7193603516
1488507169.9169130325,1488507169.9192049503,        0.5629882812,        0.1557617188,       -0.1616210938,        2.8686523438,       26.2451171875,      124.3133544922
1488507169.9194869995,1488507169.9217948914,        0.5629882812,        0.1557617188,       -0.1616210938,        2.8686523438,       26.2451171875,      124.3133544922
1488507169.9220850468,1488507169.9245090485,        0.5629882812,        0.1557617188,       -0.1699218750,        4.3640136719,       25.9857177734,      126.6021728516
1488507169.9247970581,1488507169.9272160530,        0.5893554688,        0.1816406250,       -0.1699218750,        4.3640136719,       25.9857177734,      126.6021728516
1488507169.9275040627,1488507169.9299199581,        0.5893554688,        0.1816406250,       -0.1699218750,        5.3100585938,       26.0314941406,      128.7384033203
1488507169.9302079678,1488507169.9326300621,        0.5893554688,        0.1816406250,       -0.1699218750,        5.3100585938,       26.0314941406,      128.7384033203
1488507169.9329190254,1488507169.9353408813,        0.5893554688,        0.1987304688,       -0.1772460938,        5.6610107422,       26.3671875000,      130.7830810547
1488507169.9356310368,1488507169.9380500317,        0.6230468750,        0.1987304688,       -0.1772460938,        5.6610107422,       26.3671875000,      130.7830810547
1488507169.9383409023,1488507169.9407610893,        0.6230468750,        0.1987304688,       -0.1772460938,        5.0811767578,       26.8249511719,      132.8735351562
1488507169.9410490990,1488507169.9434359074,        0.6230468750,        0.1987304688,       -0.1772460938,        5.0811767578,       26.8249511719,      132.8735351562
1488507169.9437179565,1488507169.9460101128,        0.6513671875,        0.2207031250,       -0.1787109375,        4.9285888672,       27.2216796875,      134.6435546875
1488507169.9462919235,1488507169.9485859871,        0.6513671875,        0.2207031250,       -0.1787109375,        4.9285888672,       27.2216796875,      134.6435546875
1488507169.9488670826,1488507169.9511640072,        0.6513671875,        0.2207031250,       -0.1787109375,        4.7302246094,       27.9235839844,      136.0473632812
1488507169.9514439106,1488507169.9537799358,        0.6513671875,        0.2207031250,       -0.1787109375,        4.7302246094,       27.9235839844,      136.0473632812
1488507169.9541699886,1488507169.9564619064,        0.6630859375,        0.2231445312,       -0.1831054688,        5.5694580078,       28.0914306641,      137.3748779297
1488507169.9567449093,1488507169.9590339661,        0.6630859375,        0.2231445312,       -0.1831054688,        5.5694580078,       28.0914306641,      137.3748779297
1488507169.9593160152,1488507169.9616110325,        0.6630859375,        0.2231445312,       -0.1831054688,        5.5694580078,       28.2440185547,      138.3819580078
1488507169.9620709419,1488507169.9643700123,        0.6630859375,        0.2231445312,       -0.1831054688,        5.9661865234,       28.2440185547,      138.3819580078
1488507169.9646499157,1488507169.9669449329,        0.6821289062,        0.2353515625,       -0.1796875000,        5.9661865234,       28.2440185547,      139.3890380859
1488507169.9672250748,1488507169.9695250988,        0.6821289062,        0.2353515625,       -0.1796875000,        6.9427490234,       28.1982421875,      139.3890380859
1488507169.9698069096,1488507169.9722509384,        0.6821289062,        0.2353515625,       -0.1796875000,        6.9427490234,       28.1982421875,      140.6097412109
1488507169.9725399017,1488507169.9749600887,        0.6821289062,        0.2353515625,       -0.1923828125,        8.5144042969,       28.3966064453,      140.6097412109
1488507169.9752490520,1488507169.9776649475,        0.7026367188,        0.2387695312,       -0.1923828125,        8.5144042969,       28.3966064453,      141.4947509766
1488507169.9779560566,1488507169.9803760052,        0.7026367188,        0.2387695312,       -0.1923828125,       10.4675292969,       28.1677246094,      141.4947509766
1488507169.9806671143,1488507169.9831271172,        0.7026367188,        0.2387695312,       -0.1923828125,       10.4675292969,       28.1677246094,      141.9219970703
1488507169.9834179878,1488507169.9858338833,        0.7026367188,        0.2470703125,       -0.1962890625,       12.3596191406,       27.7862548828,      141.9219970703
1488507169.9861249924,1488507169.9885430336,        0.7163085938,        0.2470703125,       -0.1962890625,       12.3596191406,       27.7862548828,      142.7001953125
1488507169.9888339043,1488507169.9912528992,        0.7163085938,        0.2470703125,       -0.1962890625,       14.2364501953,       27.6641845703,      142.7001953125
1488507169.9915449619,1488507169.9939730167,        0.7163085938,        0.2470703125,       -0.1962890625,       14.2364501953,       27.6641845703,      143.2647705078
1488507169.9942638874,1488507169.9966800213,        0.7270507812,        0.2475585938,       -0.1899414062,       16.6778564453,       27.2674560547,      143.2647705078
1488507169.9969708920,1488507169.9993910789,        0.7270507812,        0.2475585938,       -0.1899414062,       16.6778564453,       27.2674560547,      143.7683105469
1488507169.9996829033,1488507170.0021100044,        0.7270507812,        0.2475585938,       -0.1899414062,       19.3176269531,       26.8707275391,      143.7683105469
1488507170.0024011135,1488507170.0048210621,        0.7270507812,        0.2475585938,       -0.1899414062,       19.3176269531,       26.8707275391,      144.5770263672
1488507170.0051140785,1488507170.0075359344,        0.7299804688,        0.2402343750,       -0.1860351562,       21.8353271484,       26.3366699219,      144.5770263672
1488507170.0078270435,1488507170.0102438927,        0.7299804688,        0.2402343750,       -0.1860351562,       21.8353271484,       26.3366699219,      145.1721191406
1488507170.0105340481,1488507170.0129060745,        0.7299804688,        0.2402343750,       -0.1860351562,       23.4680175781,       25.6805419922,      145.1721191406
1488507170.0131919384,1488507170.0154840946,        0.7299804688,        0.2402343750,       -0.1870117188,       23.4680175781,       25.6805419922,      146.6064453125
1488507170.0157680511,1488507170.0180609226,        0.7392578125,        0.2309570312,       -0.1870117188,       25.2532958984,       25.4211425781,      146.6064453125
1488507170.0184590816,1488507170.0207540989,        0.7392578125,        0.2309570312,       -0.1870117188,       25.2532958984,       25.4211425781,      146.6064453125
1488507170.0210380554,1488507170.0233330727,        0.7392578125,        0.2309570312,       -0.1870117188,       26.6723632812,       25.9094238281,      148.0255126953
1488507170.0236179829,1488507170.0259079933,        0.7392578125,        0.2099609375,       -0.1821289062,       26.6723632812,       25.9094238281,      148.0255126953
1488507170.0261919498,1488507170.0286951065,        0.7309570312,        0.2099609375,       -0.1821289062,       27.6184082031,       25.9704589844,      148.9105224609
1488507170.0289809704,1488507170.0312719345,        0.7309570312,        0.2099609375,       -0.1821289062,       27.6184082031,       25.9704589844,      148.9105224609
1488507170.0315570831,1488507170.0341870785,        0.7309570312,        0.2099609375,       -0.1821289062,       29.0069580078,       25.8331298828,      149.3835449219
1488507170.0344820023,1488507170.0369060040,        0.7319335938,        0.1860351562,       -0.1894531250,       29.0069580078,       25.8331298828,      149.3835449219
1488507170.0371971130,1488507170.0396111012,        0.7319335938,        0.1860351562,       -0.1894531250,       31.6467285156,       25.0396728516,      149.8870849609
1488507170.0399041176,1488507170.0423350334,        0.7319335938,        0.1860351562,       -0.1894531250,       31.6467285156,       25.0396728516,      149.8870849609
1488507170.0426249504,1488507170.0450460911,        0.7319335938,        0.1860351562,       -0.1894531250,       34.3780517578,       24.6582031250,      150.4211425781
1488507170.0453369617,1488507170.0477540493,        0.7412109375,        0.1635742188,       -0.1894531250,       34.3780517578,       24.6582031250,      150.4211425781
1488507170.0480461121,1488507170.0504610538,        0.7412109375,        0.1635742188,       -0.1894531250,       36.3159179688,       24.5208740234,      151.0162353516
1488507170.0507531166,1488507170.0531830788,        0.7412109375,        0.1635742188,       -0.1894531250,       36.3159179688,       24.5208740234,      151.0162353516
1488507170.0534760952,1488507170.0558850765,        0.7412109375,        0.1635742188,       -0.2001953125,       37.5213623047,       24.6124267578,      151.9470214844
1488507170.0561749935,1488507170.0585930347,        0.7548828125,        0.1372070312,       -0.2001953125,       37.5213623047,       24.6124267578,      151.9470214844
1488507170.0588839054,1488507170.0612919331,        0.7548828125,        0.1372070312,       -0.2001953125,       39.5050048828,       24.6276855469,      153.3660888672
1488507170.0615839958,1488507170.0638980865,        0.7548828125,        0.1372070312,       -0.2001953125,       39.5050048828,       24.6276855469,      153.3660888672
1488507170.0641820431,1488507170.0664739609,        0.7548828125,        0.1162109375,       -0.1977539062,       41.4276123047,       24.7497558594,      154.2510986328
1488507170.0667569637,1488507170.0690488815,        0.7622070312,        0.1162109375,       -0.1977539062,       41.4276123047,       24.7497558594,      154.2510986328
1488507170.0693340302,1488507170.0716249943,        0.7622070312,        0.1162109375,       -0.1977539062,       43.5028076172,       25.3448486328,      154.4799804688
1488507170.0719668865,1488507170.0742630959,        0.7622070312,        0.1162109375,       -0.1977539062,       43.5028076172,       25.3448486328,      154.4799804688
1488507170.0745480061,1488507170.0768430233,        0.7807617188,        0.1215820312,       -0.2016601562,       44.9371337891,       25.1159667969,      154.9377441406
1488507170.0771279335,1488507170.0794179440,        0.7807617188,        0.1215820312,       -0.2016601562,       44.9371337891,       25.1159667969,      154.9377441406
1488507170.0797009468,1488507170.0820751190,        0.7807617188,        0.1215820312,       -0.2016601562,       46.8902587891,       25.9857177734,      155.3802490234
1488507170.0824658871,1488507170.0847630501,        0.7807617188,        0.1215820312,       -0.2016601562,       46.8902587891,       25.9857177734,      155.3802490234
1488507170.0850470066,1488507170.0873370171,        0.7900390625,        0.1376953125,       -0.1743164062,       49.0722656250,       26.5655517578,      155.7769775391
1488507170.0876190662,1488507170.0899140835,        0.7900390625,        0.1376953125,       -0.1743164062,       49.0722656250,       26.5655517578,      155.7769775391
1488507170.0901970863,1488507170.0926449299,        0.7900390625,        0.1376953125,       -0.1743164062,       52.9785156250,       27.9235839844,      155.1818847656
1488507170.0929350853,1488507170.0953540802,        0.7900390625,        0.1376953125,       -0.1743164062,       52.0477294922,       27.9235839844,      155.1818847656
1488507170.0956480503,1488507170.0980660915,        0.8149414062,        0.1796875000,       -0.1772460938,       54.5959472656,       29.1595458984,      154.5715332031
1488507170.0983579159,1488507170.1007781029,        0.8149414062,        0.1796875000,       -0.1772460938,       54.5959472656,       29.1595458984,      154.5715332031
1488507170.1010708809,1488507170.1035299301,        0.8149414062,        0.1796875000,       -0.1772460938,       55.9997558594,       31.0974121094,      153.2897949219
1488507170.1038210392,1488507170.1062378883,        0.8149414062,        0.1796875000,       -0.1660156250,       55.9997558594,       31.0974121094,      153.2897949219
1488507170.1065289974,1488507170.1089439392,        0.8173828125,        0.2377929688,       -0.1660156250,       57.4645996094,       32.8979492188,      151.6571044922
1488507170.1092379093,1488507170.1116490364,        0.8173828125,        0.2377929688,       -0.1660156250,       57.4645996094,       32.8979492188,      151.6571044922
1488507170.1119830608,1488507170.1143980026,        0.8173828125,        0.2377929688,       -0.1660156250,       58.1359863281,       35.1104736328,      149.9328613281
1488507170.1146900654,1488507170.1171069145,        0.8173828125,        0.2856445312,       -0.1562500000,       58.1359863281,       35.1104736328,      149.9328613281
1488507170.1173980236,1488507170.1198151112,        0.8198242188,        0.2856445312,       -0.1562500000,       56.8389892578,       37.1704101562,      148.1475830078
1488507170.1201059818,1488507170.1224958897,        0.8198242188,        0.2856445312,       -0.1562500000,       56.8389892578,       37.1704101562,      148.1475830078
1488507170.1227819920,1488507170.1250720024,        0.8198242188,        0.2856445312,       -0.1562500000,       56.8389892578,       38.3605957031,      145.4772949219
1488507170.1253590584,1488507170.1276469231,        0.7885742188,        0.2856445312,       -0.1728515625,       55.8013916016,       38.3605957031,      145.4772949219
1488507170.1279330254,1488507170.1302189827,        0.7885742188,        0.2856445312,       -0.1728515625,       55.8013916016,       42.2668457031,      142.1051025391
1488507170.1305029392,1488507170.1329240799,        0.7885742188,        0.2856445312,       -0.1728515625,       55.6182861328,       39.1235351562,      142.1051025391
1488507170.1332159042,1488507170.1356329918,        0.7885742188,        0.2856445312,       -0.1728515625,       55.6182861328,       35.2172851562,      138.9617919922
1488507170.1359229088,1488507170.1383399963,        0.7626953125,        0.2270507812,       -0.1743164062,       56.4880371094,       38.7725830078,      138.9617919922
1488507170.1386311054,1488507170.1410529613,        0.7626953125,        0.2270507812,       -0.1743164062,       56.4880371094,       38.7725830078,      135.7116699219
1488507170.1413450241,1488507170.1437749863,        0.7626953125,        0.2270507812,       -0.1743164062,       59.1888427734,       38.3453369141,      135.7116699219
1488507170.1440680027,1488507170.1464869976,        0.7626953125,        0.2270507812,       -0.1743164062,       59.1888427734,       38.3453369141,      132.3699951172
1488507170.1468780041,1488507170.1495399475,        0.7353515625,        0.1904296875,       -0.2021484375,       62.5610351562,       37.0483398438,      132.3699951172
1488507170.1498320103,1488507170.1524589062,        0.7353515625,        0.1904296875,       -0.2021484375,       62.5610351562,       35.2935791016,      128.6773681641
1488507170.1527540684,1488507170.1551730633,        0.7353515625,        0.1904296875,       -0.2021484375,       65.5975341797,       35.2935791016,      128.6773681641
1488507170.1554648876,1488507170.1578850746,        0.6928710938,        0.2055664062,       -0.2163085938,       69.5037841797,       33.6303710938,      124.3286132812
1488507170.1581768990,1488507170.1605970860,        0.6928710938,        0.2055664062,       -0.2163085938,       68.6645507812,       33.6303710938,      124.3286132812
1488507170.1608889103,1488507170.1633179188,        0.6928710938,        0.2055664062,       -0.2163085938,       72.5708007812,       31.6925048828,      119.2474365234
1488507170.1636118889,1488507170.1660299301,        0.6928710938,        0.2055664062,       -0.2163085938,       71.9299316406,       31.6925048828,      119.2474365234
1488507170.1663210392,1488507170.1687378883,        0.6826171875,        0.2597656250,       -0.2211914062,       75.8361816406,       29.4799804688,      113.8610839844
1488507170.1690280437,1488507170.1714439392,        0.6826171875,        0.2597656250,       -0.2211914062,       74.6459960938,       29.4799804688,      113.8610839844
1488507170.1717450619,1488507170.1740319729,        0.6826171875,        0.2597656250,       -0.2211914062,       74.6459960938,       27.4505615234,      109.2224121094
1488507170.1743149757,1488507170.1766068935,        0.6826171875,        0.2597656250,       -0.2211914062,       76.6143798828,       27.4505615234,      109.2224121094
1488507170.1768889427,1488507170.1791779995,        0.6762695312,        0.3076171875,       -0.2246093750,       76.6143798828,       23.5443115234,      103.5003662109
1488507170.1794629097,1488507170.1817629337,        0.6762695312,        0.3076171875,       -0.2246093750,       76.3092041016,       26.2756347656,      103.5003662109
1488507170.1820480824,1488507170.1843400002,        0.6762695312,        0.3076171875,       -0.2246093750,       76.3092041016,       26.2756347656,       97.6562500000
1488507170.1846239567,1488507170.1869180202,        0.6762695312,        0.3076171875,       -0.2241210938,       74.7680664062,       25.2838134766,       97.6562500000
1488507170.1872010231,1488507170.1894888878,        0.6611328125,        0.3383789062,       -0.2241210938,       74.7680664062,       25.2838134766,       89.8437500000
1488507170.1897718906,1488507170.1921200752,        0.6611328125,        0.3383789062,       -0.2241210938,       73.4710693359,       23.4222412109,       92.1936035156
1488507170.1924040318,1488507170.1946990490,        0.6611328125,        0.3383789062,       -0.2241210938,       73.4710693359,       23.4222412109,       92.1936035156
1488507170.1949839592,1488507170.1972770691,        0.6611328125,        0.3383789062,       -0.2207031250,       72.1130371094,       21.9116210938,       86.7767333984
1488507170.1975600719,1488507170.1998519897,        0.6250000000,        0.3486328125,       -0.2207031250,       72.1130371094,       21.9116210938,       86.7767333984
1488507170.2001349926,1488507170.2025990486,        0.6250000000,        0.3486328125,       -0.2207031250,       69.6411132812,       20.2331542969,       81.9396972656
1488507170.2028849125,1488507170.2051789761,        0.6250000000,        0.3486328125,       -0.2207031250,       69.6411132812,       20.2331542969,       81.9396972656
1488507170.2054638863,1488507170.2077560425,        0.6250000000,        0.3271484375,       -0.2324218750,       66.4367675781,       18.9514160156,       77.1789550781
1488507170.2080390453,1488507170.2103309631,        0.5981445312,        0.3271484375,       -0.2324218750,       66.4367675781,       18.9514160156,       77.1789550781
1488507170.2106149197,1488507170.2130620480,        0.5981445312,        0.3271484375,       -0.2324218750,       62.5457763672,       17.4255371094,       71.7620849609
1488507170.2134621143,1488507170.2158780098,        0.5981445312,        0.3271484375,       -0.2324218750,       62.5457763672,       17.4255371094,       71.7620849609
1488507170.2161700726,1488507170.2185869217,        0.5800781250,        0.3178710938,       -0.2353515625,       59.1430664062,       15.3656005859,       65.6890869141
1488507170.2188799381,1488507170.2212929726,        0.5800781250,        0.3178710938,       -0.2353515625,       59.1430664062,       15.3656005859,       65.6890869141
1488507170.2215850353,1488507170.2239019871,        0.5800781250,        0.3178710938,       -0.2353515625,       56.1370849609,       12.5885009766,       58.3190917969
1488507170.2241868973,1488507170.2264719009,        0.5800781250,        0.3178710938,       -0.2353515625,       56.1370849609,       12.5885009766,       58.3190917969
1488507170.2267560959,1488507170.2290449142,        0.5478515625,        0.3330078125,       -0.2348632812,       53.5278320312,       10.1928710938,       51.2542724609
1488507170.2293291092,1488507170.2316269875,        0.5478515625,        0.3330078125,       -0.2348632812,       53.5278320312,       10.1928710938,       51.2542724609
1488507170.2319729328,1488507170.2343940735,        0.5478515625,        0.3330078125,       -0.2348632812,       51.7120361328,        8.5296630859,       44.2504882812
1488507170.2346839905,1488507170.2371039391,        0.5478515625,        0.3330078125,       -0.2348632812,       51.7120361328,        8.5296630859,       44.2504882812
1488507170.2373950481,1488507170.2398159504,        0.5170898438,        0.3496093750,       -0.2392578125,       49.9572753906,        6.0424804688,       36.7889404297
1488507170.2401049137,1488507170.2425339222,        0.5170898438,        0.3496093750,       -0.2392578125,       49.9572753906,        6.0424804688,       36.7889404297
1488507170.2428209782,1488507170.2452321053,        0.5170898438,        0.3496093750,       -0.2392578125,       47.9888916016,        3.5400390625,       29.1900634766
1488507170.2455201149,1488507170.2479350567,        0.5170898438,        0.3496093750,       -0.2568359375,       47.9888916016,        3.5400390625,       29.1900634766
1488507170.2482240200,1488507170.2506420612,        0.5043945312,        0.3486328125,       -0.2568359375,       45.3643798828,        1.8157958984,       21.4691162109
1488507170.2509300709,1488507170.2533578873,        0.5043945312,        0.3486328125,       -0.2568359375,       45.3643798828,        1.8157958984,       21.4691162109
1488507170.2536470890,1488507170.2560620308,        0.5043945312,        0.3486328125,       -0.2568359375,       42.2210693359,       -0.6103515625,       13.8397216797
1488507170.2563500404,1488507170.2587680817,        0.5034179688,        0.3627929688,       -0.2416992188,       42.2210693359,       -0.6103515625,       13.8397216797
1488507170.2590548992,1488507170.2614769936,        0.5034179688,        0.3627929688,       -0.2416992188,       39.8406982422,       -3.6621093750,        6.1492919922
1488507170.2617719173,1488507170.2640659809,        0.5034179688,        0.3627929688,       -0.2416992188,       39.8406982422,       -3.6621093750,        6.1492919922
1488507170.2643449306,1488507170.2666380405,        0.5034179688,        0.3627929688,       -0.2416992188,       35.9344482422,       -6.0272216797,       -0.8087158203
1488507170.2669169903,1488507170.2694420815,        0.5117187500,        0.3593750000,       -0.2270507812,       36.4532470703,       -6.0272216797,       -0.8087158203
1488507170.2697229385,1488507170.2723391056,        0.5117187500,        0.3593750000,       -0.2270507812,       32.5469970703,       -8.1024169922,       -7.9650878906
1488507170.2726259232,1488507170.2750480175,        0.5117187500,        0.3593750000,       -0.2270507812,       33.0200195312,       -8.1024169922,       -7.9650878906
1488507170.2753338814,1488507170.2777500153,        0.5117187500,        0.3593750000,       -0.2270507812,       29.0832519531,      -10.6811523438,      -14.4195556641
1488507170.2781569958,1488507170.2805740833,        0.5141601562,        0.3471679688,       -0.2270507812,       29.0832519531,      -10.6811523438,      -14.4195556641
1488507170.2808670998,1488507170.2833340168,        0.5141601562,        0.3471679688,       -0.2270507812,       25.3753662109,      -12.6953125000,      -20.9045410156
1488507170.2836260796,1488507170.2860438824,        0.5141601562,        0.3471679688,       -0.2270507812,       25.3753662109,      -12.6953125000,      -20.9045410156
1488507170.2863349915,1488507170.2887530327,        0.5141601562,        0.3374023438,       -0.2192382812,       22.7508544922,      -14.7552490234,      -27.3437500000
1488507170.2890439034,1488507170.2914619446,        0.5141601562,        0.3374023438,       -0.2192382812,       22.7508544922,      -14.7552490234,      -27.3437500000
1488507170.2917580605,1488507170.2941749096,        0.5141601562,        0.3374023438,       -0.2192382812,       20.8740234375,      -16.4794921875,      -33.3099365234
1488507170.2944660187,1488507170.2968881130,        0.5141601562,        0.3374023438,       -0.2192382812,       20.8740234375,      -16.4794921875,      -33.3099365234
1488507170.2971789837,1488507170.2995951176,        0.5239257812,        0.3071289062,       -0.2138671875,       19.7906494141,      -18.2189941406,      -39.5507812500
1488507170.2998850346,1488507170.3022849560,        0.5239257812,        0.3071289062,       -0.2138671875,       19.7906494141,      -18.2189941406,      -39.5507812500
1488507170.3025710583,1488507170.3048610687,        0.5239257812,        0.3071289062,       -0.2138671875,       18.9361572266,      -20.3857421875,      -45.8984375000
1488507170.3051440716,1488507170.3074359894,        0.5239257812,        0.3071289062,       -0.2138671875,       18.9361572266,      -20.3857421875,      -45.8984375000
1488507170.3077189922,1488507170.3100121021,        0.5322265625,        0.2646484375,       -0.2338867188,       18.9361572266,      -22.7966308594,      -50.7965087891
1488507170.3102979660,1488507170.3125970364,        0.5322265625,        0.2646484375,       -0.2338867188,       18.0358886719,      -22.7966308594,      -50.7965087891
1488507170.3128809929,1488507170.3151719570,        0.5322265625,        0.2646484375,       -0.2338867188,       18.0358886719,      -22.7966308594,      -50.5828857422
1488507170.3154559135,1488507170.3177490234,        0.5322265625,        0.2646484375,       -0.2338867188,       18.7225341797,      -23.1170654297,      -50.5828857422
1488507170.3180310726,1488507170.3203260899,        0.6606445312,        0.0805664062,       -0.1665039062,       18.7225341797,      -23.1170654297,      -52.1697998047
1488507170.3206110001,1488507170.3230359554,        0.6606445312,        0.0805664062,       -0.1665039062,       17.2424316406,      -21.7437744141,      -52.1697998047
1488507170.3233211040,1488507170.3256199360,        0.6606445312,        0.0805664062,       -0.1665039062,       17.2424316406,      -21.7437744141,      -56.0760498047
1488507170.3259050846,1488507170.3282029629,        0.6606445312,        0.0805664062,       -0.0415039062,       16.5252685547,      -22.9492187500,      -54.7943115234
1488507170.3284881115,1488507170.3307809830,        0.6181640625,       -0.0859375000,       -0.0971679688,       16.5252685547,      -22.9492187500,      -54.7943115234
1488507170.3310649395,1488507170.3336119652,        0.6181640625,       -0.0859375000,       -0.0971679688,       16.9830322266,      -22.4304199219,      -53.3447265625
1488507170.3339049816,1488507170.3363211155,        0.6181640625,       -0.0859375000,       -0.0971679688,       16.9830322266,      -22.4304199219,      -53.3447265625
1488507170.3366129398,1488507170.3390328884,        0.6181640625,       -0.3886718750,        0.0107421875,       15.9301757812,      -18.4173583984,      -48.9959716797
1488507170.3393249512,1488507170.3417549133,        0.6508789062,       -0.3886718750,        0.0107421875,       15.9301757812,      -18.4173583984,      -48.9959716797
1488507170.3421540260,1488507170.3445758820,        0.6508789062,       -0.3886718750,        0.0107421875,       12.2070312500,      -16.0369873047,      -41.2292480469
1488507170.3448688984,1488507170.3472859859,        0.6508789062,       -0.3886718750,        0.0107421875,       12.2070312500,      -16.0369873047,      -41.2292480469
1488507170.3475799561,1488507170.3499989510,        0.6669921875,       -0.5854492188,        0.0717773438,       12.9394531250,      -16.9525146484,      -33.6914062500
1488507170.3502900600,1488507170.3527200222,        0.6669921875,       -0.5854492188,        0.0717773438,       12.9394531250,      -16.9525146484,      -33.6914062500
1488507170.3530120850,1488507170.3554289341,        0.6669921875,       -0.5854492188,        0.0717773438,       16.6168212891,      -17.5933837891,      -28.5797119141
1488507170.3557200432,1488507170.3581349850,        0.6669921875,       -0.5854492188,        0.0717773438,       16.6168212891,      -17.5933837891,      -28.5797119141
1488507170.3584270477,1488507170.3608438969,        0.6811523438,       -0.4521484375,        0.0400390625,       21.1181640625,      -16.5100097656,      -26.9317626953
1488507170.3611369133,1488507170.3634719849,        0.6811523438,       -0.4521484375,        0.0400390625,       21.1181640625,      -16.5100097656,      -26.9317626953
1488507170.3637580872,1488507170.3660569191,        0.6811523438,       -0.4521484375,        0.0400390625,       26.6876220703,      -14.7094726562,      -28.9001464844
1488507170.3663411140,1488507170.3686358929,        0.6811523438,       -0.4521484375,       -0.0849609375,       26.6876220703,      -14.7094726562,      -28.9001464844
1488507170.3689219952,1488507170.3712079525,        0.6708984375,       -0.2246093750,       -0.0429687500,       34.5611572266,      -12.9852294922,      -31.4788818359
1488507170.3714919090,1488507170.3739640713,        0.6708984375,       -0.2246093750,       -0.0429687500,       34.5611572266,      -12.9852294922,      -31.4788818359
1488507170.3742580414,1488507170.3766760826,        0.6708984375,       -0.2246093750,       -0.0429687500,       39.3524169922,      -11.6882324219,      -34.1949462891
1488507170.3769669533,1488507170.3793830872,        0.6708984375,       -0.1381835938,       -0.0849609375,       39.3524169922,      -11.6882324219,      -34.1949462891
1488507170.3796761036,1488507170.3821029663,        0.6772460938,       -0.1381835938,       -0.0849609375,       42.8314208984,      -13.6871337891,      -37.0178222656
1488507170.3823959827,1488507170.3848149776,        0.6772460938,       -0.1381835938,       -0.0849609375,       42.8314208984,      -13.6871337891,      -37.0178222656
1488507170.3851060867,1488507170.3875288963,        0.6772460938,       -0.1381835938,       -0.0849609375,       47.6074218750,      -18.2800292969,      -39.8406982422
1488507170.3878641129,1488507170.3904130459,        0.7197265625,       -0.0346679688,       -0.1928710938,       47.6074218750,      -18.2800292969,      -39.8406982422
1488507170.3907039165,1488507170.3935320377,        0.7197265625,       -0.0346679688,       -0.1928710938,       48.0804443359,      -22.7355957031,      -41.7633056641
1488507170.3938250542,1488507170.3962450027,        0.7197265625,       -0.0346679688,       -0.1928710938,       48.0804443359,      -22.7355957031,      -41.7633056641
1488507170.3965380192,1488507170.3989520073,        0.7197265625,       -0.0346679688,       -0.1928710938,       42.7703857422,      -25.1312255859,      -43.6401367188
1488507170.3992450237,1488507170.4017150402,        0.8310546875,        0.0468750000,       -0.1699218750,       42.7703857422,      -25.1312255859,      -43.6401367188
1488507170.4020080566,1488507170.4044270515,        0.8310546875,        0.0468750000,       -0.1699218750,       33.8287353516,      -25.5584716797,      -45.9136962891
1488507170.4047210217,1488507170.4071400166,        0.8310546875,        0.0468750000,       -0.1699218750,       33.8287353516,      -25.5584716797,      -45.9136962891
1488507170.4075410366,1488507170.4099609852,        0.8310546875,        0.1098632812,       -0.1362304688,       28.6865234375,      -26.3061523438,      -48.3551025391
1488507170.4102540016,1488507170.4126648903,        0.8354492188,        0.1098632812,       -0.1362304688,       28.6865234375,      -26.3061523438,      -48.3551025391
1488507170.4129500389,1488507170.4152429104,        0.8354492188,        0.1098632812,       -0.1362304688,       25.8331298828,      -27.0233154297,      -49.4537353516
1488507170.4155280590,1488507170.4178218842,        0.8354492188,        0.1098632812,       -0.1362304688,       25.8331298828,      -27.0233154297,      -49.4537353516
1488507170.4181070328,1488507170.4203989506,        0.7729492188,        0.0336914062,       -0.1230468750,       22.0947265625,      -28.1066894531,      -48.8586425781
1488507170.4206860065,1488507170.4230329990,        0.7729492188,        0.0336914062,       -0.1230468750,       22.0947265625,      -28.1066894531,      -48.8586425781
1488507170.4233200550,1488507170.4256119728,        0.7729492188,        0.0336914062,       -0.1230468750,       19.0887451172,      -29.1137695312,      -47.6379394531
1488507170.4258968830,1488507170.4281940460,        0.7729492188,        0.0336914062,       -0.1230468750,       19.0887451172,      -29.1137695312,      -47.6379394531
1488507170.4284789562,1488507170.4307739735,        0.7084960938,        0.0117187500,       -0.1240234375,       17.2882080078,      -29.4036865234,      -46.8139648438
1488507170.4310579300,1488507170.4333539009,        0.7084960938,        0.0117187500,       -0.1240234375,       17.2882080078,      -29.4036865234,      -46.8139648438
1488507170.4336400032,1488507170.4359369278,        0.7084960938,        0.0117187500,       -0.1240234375,       17.6544189453,      -29.8309326172,      -47.4548339844
1488507170.4362208843,1488507170.4385190010,        0.7084960938,        0.0117187500,       -0.1240234375,       17.6544189453,      -29.8309326172,      -47.4548339844
1488507170.4388039112,1488507170.4410970211,        0.6704101562,        0.0151367188,       -0.1201171875,       19.0429687500,      -30.1513671875,      -47.9431152344
1488507170.4413819313,1488507170.4437859058,        0.6704101562,        0.0151367188,       -0.1201171875,       19.0429687500,      -30.1513671875,      -47.9431152344
1488507170.4440720081,1488507170.4463679790,        0.6704101562,        0.0151367188,       -0.1201171875,       20.4772949219,      -30.2886962891,      -47.6684570312
1488507170.4466540813,1488507170.4489440918,        0.6704101562,        0.0151367188,       -0.1201171875,       20.4772949219,      -30.2886962891,      -47.6684570312
1488507170.4492290020,1488507170.4515199661,        0.6362304688,        0.0014648438,       -0.1230468750,       20.4772949219,      -30.6549072266,      -46.4477539062
1488507170.4518730640,1488507170.4543130398,        0.6362304688,        0.0014648438,       -0.1230468750,       19.7448730469,      -30.6549072266,      -46.4477539062
1488507170.4546070099,1488507170.4570240974,        0.6362304688,        0.0014648438,       -0.1230468750,       19.7448730469,      -30.5786132812,      -45.3491210938
1488507170.4573171139,1488507170.4597330093,        0.6362304688,        0.0014648438,       -0.1206054688,       18.6767578125,      -30.5786132812,      -45.3491210938
1488507170.4600260258,1488507170.4624099731,        0.6191406250,        0.0195312500,       -0.1206054688,       18.6767578125,      -30.5938720703,      -44.4793701172
1488507170.4626979828,1488507170.4649860859,        0.6191406250,        0.0195312500,       -0.1206054688,       18.5546875000,      -30.5938720703,      -44.4793701172
1488507170.4652700424,1488507170.4675590992,        0.6191406250,        0.0195312500,       -0.1206054688,       18.5546875000,      -30.5938720703,      -43.5180664062
1488507170.4678440094,1488507170.4701380730,        0.6191406250,        0.0195312500,       -0.1264648438,       18.2342529297,      -29.9682617188,      -43.5180664062
1488507170.4705328941,1488507170.4729380608,        0.6025390625,        0.0278320312,       -0.1264648438,       18.2342529297,      -29.9682617188,      -41.8853759766
1488507170.4732310772,1488507170.4756538868,        0.6025390625,        0.0278320312,       -0.1264648438,       18.2952880859,      -29.4952392578,      -41.8853759766
1488507170.4759440422,1488507170.4783558846,        0.6025390625,        0.0278320312,       -0.1264648438,       18.2952880859,      -29.4952392578,      -39.7033691406
1488507170.4786489010,1488507170.4810669422,        0.5766601562,        0.0136718750,       -0.1616210938,       18.7225341797,      -29.5410156250,      -39.7033691406
1488507170.4813599586,1488507170.4836869240,        0.5766601562,        0.0136718750,       -0.1616210938,       18.7225341797,      -29.5410156250,      -37.1704101562
1488507170.4839720726,1488507170.4862680435,        0.5766601562,        0.0136718750,       -0.1616210938,       18.4783935547,      -29.1748046875,      -37.1704101562
1488507170.4865529537,1488507170.4888451099,        0.5766601562,        0.0136718750,       -0.1616210938,       18.4783935547,      -29.1748046875,      -37.1704101562
1488507170.4891300201,1488507170.4914219379,        0.5747070312,        0.0131835938,       -0.2045898438,       19.0277099609,      -29.3731689453,      -35.5682373047
1488507170.4917368889,1488507170.4941489697,        0.5747070312,        0.0131835938,       -0.2045898438,       19.0277099609,      -29.3731689453,      -35.5682373047
1488507170.4944410324,1488507170.4968569279,        0.5747070312,        0.0131835938,       -0.2045898438,       21.3470458984,      -31.0363769531,      -34.4390869141
1488507170.4971508980,1488507170.4995670319,        0.5747070312,        0.0131835938,       -0.2045898438,       21.3470458984,      -31.0363769531,      -34.4390869141
1488507170.4998610020,1488507170.5023078918,        0.5756835938,        0.0234375000,       -0.2836914062,       25.4974365234,      -33.3404541016,      -35.0646972656
1488507170.5026009083,1488507170.5050230026,        0.5756835938,        0.0234375000,       -0.2836914062,       25.4974365234,      -33.3404541016,      -35.0646972656
1488507170.5053160191,1488507170.5078210831,        0.5756835938,        0.0234375000,       -0.2836914062,       25.0701904297,      -35.1257324219,      -35.0494384766
1488507170.5082769394,1488507170.5106739998,        0.5756835938,        0.0288085938,       -0.2290039062,       25.0701904297,      -35.1257324219,      -35.0494384766
1488507170.5109660625,1488507170.5141940117,        0.6665039062,        0.0288085938,       -0.2290039062,       20.6604003906,      -35.9802246094,      -33.4472656250
1488507170.5144829750,1488507170.5167698860,        0.6665039062,        0.0288085938,       -0.2290039062,       20.6604003906,      -32.0739746094,      -32.3333740234
1488507170.5170569420,1488507170.5193500519,        0.6665039062,        0.0288085938,       -0.2290039062,       17.1508789062,      -34.0118408203,      -32.3333740234
1488507170.5196359158,1488507170.5219690800,        0.6855468750,        0.0083007812,       -0.1635742188,       17.1508789062,      -34.0118408203,      -30.5633544922
1488507170.5222570896,1488507170.5245471001,        0.6855468750,        0.0083007812,       -0.1635742188,       16.3269042969,      -32.1960449219,      -30.5633544922
1488507170.5248329639,1488507170.5271210670,        0.6855468750,        0.0083007812,       -0.1635742188,       16.3269042969,      -32.1960449219,      -30.5633544922
1488507170.5274050236,1488507170.5296990871,        0.6855468750,        0.0083007812,       -0.1635742188,       15.6860351562,      -31.4178466797,      -28.7170410156
1488507170.5299839973,1488507170.5323150158,        0.6259765625,        0.0209960938,       -0.1479492188,       15.6860351562,      -31.4178466797,      -28.7170410156
1488507170.5325999260,1488507170.5348949432,        0.6259765625,        0.0209960938,       -0.1479492188,       13.8397216797,      -31.1889648438,      -27.8320312500
1488507170.5352919102,1488507170.5375809669,        0.6259765625,        0.0209960938,       -0.1479492188,       13.8397216797,      -31.1889648438,      -27.8320312500
1488507170.5378670692,1488507170.5401539803,        0.6259765625,        0.0209960938,       -0.1479492188,       10.7116699219,      -30.7312011719,      -26.7486572266
1488507170.5404388905,1488507170.5427339077,        0.6059570312,        0.0156250000,       -0.1416015625,       10.7116699219,      -30.7312011719,      -26.7486572266
1488507170.5430209637,1488507170.5453119278,        0.6059570312,        0.0156250000,       -0.1416015625,        8.7432861328,      -30.3955078125,      -26.2298583984
1488507170.5455949306,1488507170.5478849411,        0.6059570312,        0.0156250000,       -0.1416015625,        8.7432861328,      -30.3955078125,      -26.2298583984
1488507170.5481669903,1488507170.5504570007,        0.6059570312,        0.0156250000,       -0.1416015625,        8.0261230469,      -29.9072265625,      -25.5737304688
1488507170.5507409573,1488507170.5530719757,        0.6000976562,       -0.0092773438,       -0.1499023438,        8.0261230469,      -29.9072265625,      -25.5737304688
1488507170.5533540249,1488507170.5556409359,        0.6000976562,       -0.0092773438,       -0.1499023438,        7.9345703125,      -29.7088623047,      -24.0936279297
1488507170.5559220314,1488507170.5582129955,        0.6000976562,       -0.0092773438,       -0.1499023438,        7.9345703125,      -29.7088623047,      -24.0936279297
1488507170.5584940910,1488507170.5607819557,        0.6000976562,       -0.0092773438,       -0.1508789062,        6.1645507812,      -29.2510986328,      -23.2238769531
1488507170.5610630512,1488507170.5634078979,        0.6025390625,       -0.0097656250,       -0.1508789062,        6.1645507812,      -29.2510986328,      -23.2238769531
1488507170.5636899471,1488507170.5659849644,        0.6025390625,       -0.0097656250,       -0.1508789062,        2.2583007812,      -28.7322998047,      -22.1557617188
1488507170.5662670135,1488507170.5685629845,        0.6025390625,       -0.0097656250,       -0.1508789062,        2.5329589844,      -28.7322998047,      -22.1557617188
1488507170.5688459873,1488507170.5711450577,        0.6025390625,        0.1152343750,       -0.1123046875,        2.5329589844,      -28.7322998047,      -21.9268798828
1488507170.5714290142,1488507170.5738539696,        0.6245117188,        0.0263671875,       -0.1123046875,       -0.9918212891,      -28.2135009766,      -21.9268798828
1488507170.5741450787,1488507170.5765669346,        0.6245117188,        0.0263671875,       -0.1123046875,       -0.9918212891,      -28.2135009766,      -21.3012695312
1488507170.5768580437,1488507170.5792748928,        0.6245117188,        0.0263671875,       -0.1123046875,       -3.7841796875,      -27.4505615234,      -21.3012695312
1488507170.5795640945,1488507170.5819909573,        0.6513671875,        0.0625000000,       -0.0913085938,       -3.7841796875,      -23.5443115234,      -20.5230712891
1488507170.5822799206,1488507170.5847029686,        0.6513671875,        0.0625000000,       -0.0913085938,       -7.1411132812,      -27.1759033203,      -20.5230712891
1488507170.5849950314,1488507170.5874109268,        0.6513671875,        0.0625000000,       -0.0913085938,       -7.1411132812,      -27.1759033203,      -20.0805664062
1488507170.5877010822,1488507170.5901150703,        0.6513671875,        0.0625000000,       -0.0913085938,      -10.8184814453,      -27.0233154297,      -20.0805664062
1488507170.5904059410,1488507170.5928320885,        0.6782226562,        0.0791015625,       -0.0864257812,      -10.8184814453,      -27.0233154297,      -19.3939208984
1488507170.5931251049,1488507170.5955419540,        0.6782226562,        0.0791015625,       -0.0864257812,      -13.3514404297,      -26.8707275391,      -19.3939208984
1488507170.5958340168,1488507170.5982499123,        0.6782226562,        0.0791015625,       -0.0864257812,      -13.3514404297,      -26.8707275391,      -18.7225341797
1488507170.5986530781,1488507170.6010780334,        0.6782226562,        0.0791015625,       -0.0864257812,      -14.9536132812,      -26.6265869141,      -18.7225341797
1488507170.6013679504,1488507170.6038661003,        0.6684570312,        0.0576171875,       -0.1245117188,      -14.9536132812,      -26.6265869141,      -17.5628662109
1488507170.6041529179,1488507170.6064550877,        0.6684570312,        0.0576171875,       -0.1245117188,      -15.7012939453,      -26.8859863281,      -17.5628662109
1488507170.6067399979,1488507170.6090350151,        0.6684570312,        0.0576171875,       -0.1245117188,      -15.7012939453,      -26.8859863281,      -17.0593261719
1488507170.6093189716,1488507170.6116120815,        0.6684570312,        0.0063476562,       -0.1474609375,      -16.7999267578,      -26.5655517578,      -17.0593261719
1488507170.6120998859,1488507170.6144020557,        0.6455078125,        0.0063476562,       -0.1474609375,      -16.7999267578,      -26.5655517578,      -16.5710449219
1488507170.6146860123,1488507170.6169810295,        0.6455078125,        0.0063476562,       -0.1474609375,      -16.5863037109,      -26.1993408203,      -16.5710449219
1488507170.6178290844,1488507170.6201300621,        0.6455078125,        0.0063476562,       -0.1474609375,      -16.5863037109,      -26.1993408203,      -16.2353515625
1488507170.6204159260,1488507170.6228001118,        0.6074218750,       -0.0297851562,       -0.1777343750,      -15.2282714844,      -26.7028808594,      -16.2353515625
1488507170.6231029034,1488507170.6256420612,        0.6074218750,       -0.0297851562,       -0.1777343750,      -15.2282714844,      -26.7028808594,      -15.8996582031
1488507170.6259291172,1488507170.6282238960,        0.6074218750,       -0.0297851562,       -0.1777343750,      -13.3666992188,      -26.7639160156,      -15.8996582031
1488507170.6285080910,1488507170.6307909489,        0.6074218750,       -0.0297851562,       -0.1777343750,      -13.3666992188,      -26.7639160156,      -15.9301757812
1488507170.6310760975,1488507170.6334269047,        0.5888671875,       -0.0498046875,       -0.1918945312,      -11.3525390625,      -26.4587402344,      -15.9301757812
1488507170.6337110996,1488507170.6359961033,        0.5888671875,       -0.0498046875,       -0.1918945312,      -11.3525390625,      -26.4587402344,      -15.9301757812
1488507170.6362810135,1488507170.6385679245,        0.5888671875,       -0.0498046875,       -0.1918945312,       -9.5672607422,      -25.9552001953,      -15.9301757812
1488507170.6388490200,1488507170.6411390305,        0.5888671875,       -0.0498046875,       -0.1918945312,       -9.5672607422,      -25.9552001953,      -15.9301757812
1488507170.6414210796,1488507170.6437149048,        0.5859375000,       -0.0556640625,       -0.2167968750,       -8.2702636719,      -25.4058837891,      -15.5792236328
1488507170.6439960003,1488507170.6462819576,        0.5859375000,       -0.0556640625,       -0.2167968750,       -8.2702636719,      -25.4058837891,      -15.5792236328
1488507170.6465640068,1488507170.6488580704,        0.5859375000,       -0.0556640625,       -0.2167968750,       -6.6223144531,      -24.7802734375,      -15.6555175781
1488507170.6491398811,1488507170.6514310837,        0.5859375000,       -0.0556640625,       -0.2167968750,       -6.6223144531,      -24.7802734375,      -15.6555175781
1488507170.6517360210,1488507170.6540269852,        0.6000976562,       -0.0322265625,       -0.2377929688,       -4.7607421875,      -24.1394042969,      -16.3574218750
1488507170.6543090343,1488507170.6565909386,        0.6000976562,       -0.0322265625,       -0.2377929688,       -4.7607421875,      -24.1394042969,      -16.3574218750
1488507170.6568720341,1488507170.6591548920,        0.6000976562,       -0.0322265625,       -0.2377929688,       -4.6234130859,      -23.2391357422,      -16.3574218750
1488507170.6594359875,1488507170.6618490219,        0.6000976562,       -0.0322265625,       -0.2294921875,       -4.6234130859,      -23.2391357422,      -16.3574218750
1488507170.6622440815,1488507170.6645340919,        0.6064453125,       -0.0122070312,       -0.2294921875,       -6.6680908203,      -22.4304199219,      -15.8386230469
1488507170.6648149490,1488507170.6671040058,        0.6064453125,       -0.0122070312,       -0.2294921875,       -6.6680908203,      -22.4304199219,      -15.8386230469
1488507170.6673860550,1488507170.6696801186,        0.6064453125,       -0.0122070312,       -0.2294921875,       -9.3994140625,      -21.7895507812,      -15.1977539062
1488507170.6699628830,1488507170.6724030972,        0.6064453125,        0.0004882812,       -0.2250976562,       -9.3994140625,      -21.7895507812,      -15.1977539062
1488507170.6726849079,1488507170.6749780178,        0.6118164062,        0.0004882812,       -0.2250976562,      -12.2070312500,      -20.9808349609,      -14.8468017578
1488507170.6752619743,1488507170.6775538921,        0.6118164062,        0.0004882812,       -0.2250976562,      -12.2070312500,      -20.9808349609,      -14.8468017578
1488507170.6778368950,1488507170.6801290512,        0.6118164062,        0.0004882812,       -0.2250976562,      -12.2070312500,      -20.5535888672,      -14.5263671875
1488507170.6804120541,1488507170.6827149391,        0.6118164062,        0.0097656250,       -0.2250976562,      -15.1824951172,      -20.5535888672,      -14.5263671875
1488507170.6830019951,1488507170.6852960587,        0.6079101562,        0.0097656250,       -0.2250976562,      -15.1824951172,      -20.5535888672,      -13.6413574219
1488507170.6855819225,1488507170.6878659725,        0.6079101562,        0.0097656250,       -0.2250976562,      -18.3105468750,      -20.2941894531,      -13.6413574219
1488507170.6881530285,1488507170.6904449463,        0.6079101562,        0.0097656250,       -0.2250976562,      -18.3105468750,      -20.2941894531,      -13.6413574219
1488507170.6907310486,1488507170.6931369305,        0.6064453125,       -0.0034179688,       -0.2075195312,      -20.5535888672,      -20.7977294922,      -12.3596191406
1488507170.6934299469,1488507170.6958510876,        0.6064453125,       -0.0034179688,       -0.2075195312,      -20.5535888672,      -20.7977294922,       -8.4533691406
1488507170.6961390972,1488507170.6985540390,        0.6064453125,       -0.0034179688,       -0.2075195312,      -23.3764648438,      -20.7977294922,      -11.0473632812
1488507170.6988449097,1488507170.7012629509,        0.6064453125,       -0.0034179688,       -0.2075195312,      -23.3764648438,      -20.7977294922,      -11.0473632812
1488507170.7015559673,1488507170.7039849758,        0.5976562500,        0.0063476562,       -0.2187500000,      -26.1077880859,      -20.0653076172,      -10.6201171875
1488507170.7042789459,1488507170.7066919804,        0.5976562500,        0.0063476562,       -0.2187500000,      -26.1077880859,      -20.0653076172,      -10.6201171875
1488507170.7069849968,1488507170.7094049454,        0.5976562500,        0.0063476562,       -0.2187500000,      -29.0527343750,      -19.9279785156,      -10.4827880859
1488507170.7096970081,1488507170.7121129036,        0.5976562500,        0.0063476562,       -0.2187500000,      -29.0527343750,      -19.9279785156,      -10.4827880859
1488507170.7123990059,1488507170.7146930695,        0.6093750000,       -0.0146484375,       -0.2177734375,      -30.3802490234,      -19.7753906250,       -9.9029541016
1488507170.7149751186,1488507170.7172749043,        0.6093750000,       -0.0146484375,       -0.2177734375,      -30.3802490234,      -19.7753906250,       -9.9029541016
1488507170.7175559998,1488507170.7198491096,        0.6093750000,       -0.0146484375,       -0.2177734375,      -29.3273925781,      -18.8293457031,       -9.2926025391
1488507170.7201280594,1488507170.7224628925,        0.6093750000,       -0.0146484375,       -0.2001953125,      -29.3273925781,      -18.8293457031,       -9.2926025391
1488507170.7227439880,1488507170.7250449657,        0.6123046875,       -0.0185546875,       -0.2001953125,      -28.2287597656,      -18.4326171875,       -9.1857910156
1488507170.7254340649,1488507170.7277379036,        0.6123046875,       -0.0185546875,       -0.2001953125,      -28.2287597656,      -18.4326171875,       -9.1857910156
1488507170.7280380726,1488507170.7303500175,        0.6123046875,       -0.0185546875,       -0.2001953125,      -27.1301269531,      -18.6004638672,       -8.9721679688
1488507170.7306339741,1488507170.7331509590,        0.6123046875,        0.0117187500,       -0.2075195312,      -27.1301269531,      -18.6004638672,       -8.9721679688
1488507170.7334430218,1488507170.7358601093,        0.5991210938,        0.0117187500,       -0.2075195312,      -27.3132324219,      -18.5852050781,       -8.4686279297
1488507170.7361509800,1488507170.7385740280,        0.5991210938,        0.0117187500,       -0.2075195312,      -27.3132324219,      -18.5852050781,       -8.4686279297
1488507170.7388639450,1488507170.7412829399,        0.5991210938,        0.0117187500,       -0.2075195312,      -28.9154052734,      -18.0969238281,       -7.6446533203
1488507170.7415730953,1488507170.7439980507,        0.6010742188,        0.0244140625,       -0.2026367188,      -28.9154052734,      -18.0969238281,       -7.6446533203
1488507170.7442870140,1488507170.7467079163,        0.6010742188,        0.0244140625,       -0.2026367188,      -30.5786132812,      -17.4255371094,       -6.9122314453
1488507170.7469971180,1488507170.7494099140,        0.6010742188,        0.0244140625,       -0.2026367188,      -30.5786132812,      -17.4255371094,       -6.9122314453
1488507170.7496991158,1488507170.7521319389,        0.6010742188,        0.0244140625,       -0.2026367188,      -32.6538085938,      -16.8151855469,       -6.3171386719
1488507170.7524199486,1488507170.7548370361,        0.5961914062,        0.0161132812,       -0.2119140625,      -32.6538085938,      -16.8151855469,       -6.3171386719
1488507170.7551269531,1488507170.7575409412,        0.5961914062,        0.0161132812,       -0.2119140625,      -34.1796875000,      -16.8457031250,       -5.6915283203
1488507170.7578299046,1488507170.7602539062,        0.5961914062,        0.0161132812,       -0.2119140625,      -34.1796875000,      -16.8457031250,       -5.6915283203
1488507170.7605419159,1488507170.7629039288,        0.5961914062,        0.0161132812,       -0.2036132812,      -33.4014892578,      -16.0064697266,       -5.4779052734
1488507170.7631850243,1488507170.7654769421,        0.5903320312,       -0.0097656250,       -0.2036132812,      -33.4014892578,      -16.0064697266,       -5.4779052734
1488507170.7657599449,1488507170.7680559158,        0.5903320312,       -0.0097656250,       -0.2036132812,      -31.7840576172,      -15.3961181641,       -5.7373046875
1488507170.7683379650,1488507170.7706298828,        0.5903320312,       -0.0097656250,       -0.2036132812,      -31.7840576172,      -15.3961181641,       -5.7373046875
1488507170.7709128857,1488507170.7732539177,        0.5903320312,       -0.0454101562,       -0.2221679688,      -29.3731689453,      -15.5029296875,       -6.3476562500
1488507170.7735369205,1488507170.7758309841,        0.5859375000,       -0.0454101562,       -0.2221679688,      -29.3731689453,      -15.5029296875,       -6.3476562500
1488507170.7761108875,1488507170.7784039974,        0.5859375000,       -0.0454101562,       -0.2221679688,      -25.4669189453,      -15.4266357422,       -7.0037841797
1488507170.7786850929,1488507170.7809820175,        0.5859375000,       -0.0454101562,       -0.2221679688,      -26.5197753906,      -15.4266357422,       -7.0037841797
1488507170.7812650204,1488507170.7837278843,        0.5859375000,       -0.0454101562,       -0.2309570312,      -26.5197753906,      -15.2740478516,       -7.8887939453
1488507170.7840089798,1488507170.7863039970,        0.5859375000,       -0.0454101562,       -0.2309570312,      -24.1851806641,      -15.2740478516,       -7.8887939453
1488507170.7865860462,1488507170.7888820171,        0.5859375000,       -0.0454101562,       -0.2309570312,      -24.1851806641,      -15.2740478516,       -8.5906982422
1488507170.7892670631,1488507170.7915608883,        0.5859375000,       -0.0454101562,       -0.2309570312,      -21.8200683594,      -14.6789550781,       -8.5906982422
1488507170.7919039726,1488507170.7943210602,        0.5913085938,       -0.0527343750,       -0.2290039062,      -21.8200683594,      -14.6789550781,       -9.5214843750
1488507170.7946100235,1488507170.7970080376,        0.5913085938,       -0.0527343750,       -0.2290039062,      -19.8516845703,      -14.0838623047,       -9.5214843750
1488507170.7972970009,1488507170.7996981144,        0.5913085938,       -0.0527343750,       -0.2290039062,      -19.8516845703,      -14.0838623047,      -10.3149414062
1488507170.7999908924,1488507170.8024020195,        0.5913085938,       -0.0527343750,       -0.2290039062,      -19.3481445312,      -14.4653320312,      -10.3149414062
1488507170.8026919365,1488507170.8050940037,        0.5893554688,       -0.0493164062,       -0.2314453125,      -19.3481445312,      -14.4653320312,      -11.1083984375
1488507170.8053860664,1488507170.8077828884,        0.5893554688,       -0.0493164062,       -0.2314453125,      -20.1263427734,      -14.6179199219,      -11.1083984375
1488507170.8080720901,1488507170.8104729652,        0.5893554688,       -0.0493164062,       -0.2314453125,      -20.1263427734,      -14.6179199219,      -11.3983154297
1488507170.8107628822,1488507170.8131790161,        0.5893554688,       -0.0493164062,       -0.2314453125,      -20.7824707031,      -14.2059326172,      -11.3983154297
1488507170.8134710789,1488507170.8158769608,        0.5976562500,       -0.0424804688,       -0.2202148438,      -20.7824707031,      -14.2059326172,      -11.9628906250
1488507170.8161690235,1488507170.8185698986,        0.5976562500,       -0.0424804688,       -0.2202148438,      -20.8740234375,      -13.7176513672,      -11.9628906250
1488507170.8188610077,1488507170.8212618828,        0.5976562500,       -0.0424804688,       -0.2202148438,      -20.8740234375,      -13.7176513672,      -12.9089355469
1488507170.8215520382,1488507170.8239688873,        0.5976562500,       -0.0156250000,       -0.2065429688,      -20.3399658203,      -14.1296386719,      -12.9089355469
1488507170.8242599964,1488507170.8266589642,        0.5937500000,       -0.0156250000,       -0.2065429688,      -20.3399658203,      -14.1296386719,      -13.6871337891
1488507170.8269479275,1488507170.8293459415,        0.5937500000,       -0.0156250000,       -0.2065429688,      -19.3939208984,      -14.3280029297,      -13.6871337891
1488507170.8296370506,1488507170.8320529461,        0.5937500000,       -0.0156250000,       -0.2065429688,      -19.3939208984,      -14.3280029297,      -13.6871337891
1488507170.8323440552,1488507170.8347449303,        0.5981445312,       -0.0102539062,       -0.2099609375,      -18.0206298828,      -14.1601562500,      -14.0228271484
1488507170.8350360394,1488507170.8374419212,        0.5981445312,       -0.0102539062,       -0.2099609375,      -18.0206298828,      -14.1601562500,      -14.0228271484
1488507170.8377320766,1488507170.8401319981,        0.5981445312,       -0.0102539062,       -0.2099609375,      -17.2729492188,      -14.0686035156,      -14.1143798828
1488507170.8404231071,1488507170.8428370953,        0.5981445312,       -0.0102539062,       -0.2099609375,      -17.2729492188,      -14.0686035156,      -14.1143798828
1488507170.8431279659,1488507170.8455319405,        0.5957031250,        0.0107421875,       -0.2231445312,      -16.4642333984,      -13.7939453125,      -14.1143798828
1488507170.8458220959,1488507170.8483960629,        0.5957031250,        0.0107421875,       -0.2231445312,      -16.4642333984,      -13.7939453125,      -14.1143798828
1488507170.8486890793,1488507170.8510949612,        0.5957031250,        0.0107421875,       -0.2231445312,      -15.4876708984,      -14.0533447266,      -14.2974853516
1488507170.8518309593,1488507170.8542098999,        0.5957031250,        0.0048828125,       -0.2236328125,      -15.4876708984,      -14.0533447266,      -14.7552490234
1488507170.8545000553,1488507170.8568840027,        0.5800781250,        0.0048828125,       -0.2236328125,      -13.8092041016,      -14.2517089844,      -14.7552490234
1488507170.8572831154,1488507170.8596680164,        0.5800781250,        0.0048828125,       -0.2236328125,      -13.8092041016,      -14.2517089844,      -15.0451660156
1488507170.8599579334,1488507170.8623390198,        0.5800781250,        0.0048828125,       -0.2236328125,      -12.2833251953,      -13.9923095703,      -15.0451660156
1488507170.8626229763,1488507170.8649220467,        0.5942382812,        0.0107421875,       -0.2485351562,      -12.2833251953,      -13.9923095703,      -15.8233642578
1488507170.8652050495,1488507170.8675029278,        0.5942382812,        0.0107421875,       -0.2485351562,      -11.5814208984,      -13.0615234375,      -15.8233642578
1488507170.8677868843,1488507170.8700768948,        0.5942382812,        0.0107421875,       -0.2485351562,      -11.5814208984,      -13.0615234375,      -15.8233642578
1488507170.8703598976,1488507170.8727951050,        0.5942382812,        0.0107421875,       -0.2485351562,      -11.4898681641,      -12.2833251953,      -16.5557861328
1488507170.8730890751,1488507170.8755090237,        0.6000976562,        0.0200195312,       -0.2304687500,      -11.4898681641,      -12.2833251953,      -16.5557861328
1488507170.8758029938,1488507170.8782169819,        0.6000976562,        0.0200195312,       -0.2304687500,      -11.6424560547,      -11.7797851562,      -16.3574218750
1488507170.8785090446,1488507170.8809270859,        0.6000976562,        0.0200195312,       -0.2304687500,      -11.6424560547,      -11.7797851562,      -16.3574218750
1488507170.8812189102,1488507170.8835370541,        0.6000976562,        0.0200195312,       -0.2304687500,      -12.1154785156,      -11.2762451172,      -16.0827636719
1488507170.8838219643,1488507170.8861229420,        0.6181640625,        0.0361328125,       -0.2294921875,      -12.1154785156,      -11.2762451172,      -16.0827636719
1488507170.8864068985,1488507170.8887009621,        0.6181640625,        0.0361328125,       -0.2294921875,      -13.5803222656,      -11.1846923828,      -16.0369873047
1488507170.8889839649,1488507170.8912720680,        0.6181640625,        0.0361328125,       -0.2294921875,      -13.5803222656,      -11.1846923828,      -16.0369873047
1488507170.8915541172,1488507170.8938589096,        0.6181640625,        0.0361328125,       -0.2294921875,      -14.8162841797,      -11.3220214844,      -15.9454345703
1488507170.8941440582,1488507170.8964340687,        0.6162109375,        0.0229492188,       -0.2016601562,      -14.8162841797,      -11.3220214844,      -15.9454345703
1488507170.8967189789,1488507170.8990120888,        0.6162109375,        0.0229492188,       -0.2016601562,      -15.2130126953,      -11.7492675781,      -15.7623291016
1488507170.8992969990,1488507170.9015939236,        0.6162109375,        0.0229492188,       -0.2016601562,      -15.2130126953,      -11.7492675781,      -15.7623291016
1488507170.9020578861,1488507170.9043529034,        0.6162109375,        0.0229492188,       -0.2211914062,      -14.6789550781,      -11.7950439453,      -15.4724121094
1488507170.9046370983,1488507170.9069399834,        0.6103515625,        0.0107421875,       -0.2211914062,      -14.6789550781,      -11.7950439453,      -15.4724121094
1488507170.9072239399,1488507170.9095189571,        0.6103515625,        0.0107421875,       -0.2211914062,      -13.9160156250,      -12.2070312500,      -15.4724121094
1488507170.9098029137,1488507170.9122250080,        0.6103515625,        0.0107421875,       -0.2211914062,      -13.9160156250,      -12.2070312500,      -15.4724121094
1488507170.9125089645,1488507170.9148120880,        0.6103515625,       -0.0043945312,       -0.2011718750,      -12.6647949219,      -12.6190185547,      -15.6097412109
1488507170.9150960445,1488507170.9173889160,        0.6166992188,       -0.0043945312,       -0.2011718750,      -12.6647949219,      -12.6190185547,      -15.6097412109
1488507170.9176740646,1488507170.9199628830,        0.6166992188,       -0.0043945312,       -0.2011718750,      -11.4593505859,      -12.4359130859,      -15.3808593750
1488507170.9203610420,1488507170.9227449894,        0.6166992188,       -0.0043945312,       -0.2011718750,      -11.4593505859,      -12.4359130859,      -15.3808593750
1488507170.9230380058,1488507170.9254419804,        0.6098632812,        0.0307617188,       -0.2270507812,      -10.5133056641,      -12.2985839844,      -15.1672363281
1488507170.9257340431,1488507170.9281449318,        0.6098632812,        0.0307617188,       -0.2270507812,      -10.5133056641,      -12.2985839844,      -15.1672363281
1488507170.9284360409,1488507170.9308381081,        0.6098632812,        0.0307617188,       -0.2270507812,      -10.5133056641,      -11.9323730469,      -15.3656005859
1488507170.9311308861,1488507170.9335429668,        0.6098632812,        0.0307617188,       -0.2270507812,      -10.1318359375,      -11.9323730469,      -15.3656005859
1488507170.9338340759,1488507170.9362421036,        0.6064453125,        0.0576171875,       -0.2431640625,      -10.1318359375,      -11.3220214844,      -15.4418945312
