time_stamp before, time_stamp after, Acceleration x, Acceleration y, Acceleration z, Gyro x, Gyro y, Gyro z
1488507322.0150279999,1488507322.0256199837,        0.5878906250,        0.0820312500,       -0.2021484375,       -0.2441406250,       -4.3640136719,       -2.0904541016
1488507322.0259220600,1488507322.0285549164,        0.5878906250,        0.0820312500,       -0.2021484375,        0.2136230469,       -4.4860839844,       -1.5563964844
1488507322.0288369656,1488507322.0311229229,        0.5878906250,        0.0820312500,       -0.2021484375,        0.2136230469,       -4.4860839844,       -1.5563964844
1488507322.0313980579,1488507322.0336909294,        0.5878906250,        0.0839843750,       -0.2006835938,       -3.6926269531,       -4.3182373047,       -0.9765625000
1488507322.0339651108,1488507322.0362529755,        0.5893554688,        0.0839843750,       -0.2006835938,       -0.5035400391,       -4.3182373047,       -0.9765625000
1488507322.0365269184,1488507322.0388178825,        0.5893554688,        0.0839843750,       -0.2006835938,       -0.5035400391,       -4.3182373047,       -0.3051757812
1488507322.0390899181,1488507322.0413799286,        0.5893554688,        0.0839843750,       -0.2006835938,       -1.9683837891,       -3.9215087891,       -0.3051757812
1488507322.0416510105,1488507322.0441160202,        0.5893554688,        0.0815429688,       -0.2016601562,       -1.9683837891,       -3.9215087891,        0.0915527344
1488507322.0443959236,1488507322.0468161106,        0.5893554688,        0.0815429688,       -0.2016601562,       -2.7008056641,       -3.2501220703,        0.0915527344
1488507322.0470960140,1488507322.0495049953,        0.5893554688,        0.0815429688,       -0.2016601562,       -2.7008056641,       -3.2501220703,        0.4425048828
1488507322.0497839451,1488507322.0521919727,        0.5893554688,        0.0815429688,       -0.2016601562,       -2.5939941406,       -3.3721923828,        0.4425048828
1488507322.0524649620,1488507322.0547540188,        0.5932617188,        0.0683593750,       -0.2011718750,       -2.5939941406,       -3.3721923828,        0.4425048828
1488507322.0550251007,1488507322.0576028824,        0.5932617188,        0.0683593750,       -0.2011718750,       -2.3498535156,       -3.8604736328,        0.3356933594
1488507322.0578770638,1488507322.0601689816,        0.5932617188,        0.0683593750,       -0.2011718750,       -2.3498535156,       -3.8604736328,        0.3356933594
1488507322.0604419708,1488507322.0627379417,        0.5932617188,        0.0683593750,       -0.2011718750,       -1.4801025391,       -3.7841796875,        0.2593994141
1488507322.0630109310,1488507322.0653040409,        0.5971679688,        0.0639648438,       -0.2016601562,       -1.4801025391,       -3.7841796875,        0.2593994141
1488507322.0655760765,1488507322.0678699017,        0.5971679688,        0.0639648438,       -0.2016601562,       -1.0070800781,       -3.3721923828,        0.2746582031
1488507322.0681409836,1488507322.0704309940,        0.5971679688,        0.0639648438,       -0.2016601562,       -1.0070800781,       -3.3721923828,        0.2746582031
1488507322.0707020760,1488507322.0731170177,        0.5971679688,        0.0639648438,       -0.2016601562,       -0.9155273438,       -3.6163330078,        0.1068115234
1488507322.0734000206,1488507322.0758140087,        0.5908203125,        0.0634765625,       -0.1933593750,       -0.9155273438,       -3.6163330078,        0.1068115234
1488507322.0760970116,1488507322.0785129070,        0.5908203125,        0.0634765625,       -0.1933593750,       -0.6866455078,       -3.5552978516,        0.0305175781
1488507322.0787940025,1488507322.0812129974,        0.5908203125,        0.0634765625,       -0.1933593750,       -0.6866455078,       -3.5552978516,        0.0305175781
1488507322.0814960003,1488507322.0839231014,        0.5908203125,        0.0634765625,       -0.2094726562,       -0.5035400391,       -3.6468505859,       -0.1678466797
1488507322.0842061043,1488507322.0866260529,        0.5957031250,        0.0576171875,       -0.2094726562,       -0.5035400391,       -3.6468505859,       -0.1678466797
1488507322.0870680809,1488507322.0894880295,        0.5957031250,        0.0576171875,       -0.2094726562,        0.0305175781,       -3.8299560547,       -0.2593994141
1488507322.0897700787,1488507322.0921781063,        0.5957031250,        0.0576171875,       -0.2094726562,        0.0305175781,       -3.8299560547,       -0.2593994141
1488507322.0924520493,1488507322.0947480202,        0.5869140625,        0.0522460938,       -0.2099609375,        0.4272460938,       -4.0893554688,       -0.4577636719
1488507322.0950229168,1488507322.0973169804,        0.5869140625,        0.0522460938,       -0.2099609375,        0.4272460938,       -4.0893554688,       -0.4577636719
1488507322.0975921154,1488507322.0998849869,        0.5869140625,        0.0522460938,       -0.2099609375,       -0.0457763672,       -3.8757324219,       -0.4577636719
1488507322.1001598835,1488507322.1026229858,        0.5869140625,        0.0522460938,       -0.2099609375,       -0.0457763672,       -3.8757324219,       -0.4577636719
1488507322.1028969288,1488507322.1051928997,        0.5937500000,        0.0488281250,       -0.2109375000,        0.2288818359,       -3.7231445312,       -0.7324218750
1488507322.1054680347,1488507322.1077640057,        0.5937500000,        0.0488281250,       -0.2109375000,        0.2288818359,       -3.7231445312,       -0.7324218750
1488507322.1080389023,1488507322.1103329659,        0.5937500000,        0.0488281250,       -0.2109375000,        0.1220703125,       -3.8452148438,       -1.3275146484
1488507322.1106081009,1488507322.1131870747,        0.5937500000,        0.0488281250,       -0.2109375000,        0.1220703125,       -3.8452148438,       -1.3275146484
1488507322.1134700775,1488507322.1158869267,        0.6044921875,        0.0498046875,       -0.2128906250,        0.1831054688,       -3.7689208984,       -1.2512207031
1488507322.1161708832,1488507322.1185851097,        0.6044921875,        0.0498046875,       -0.2128906250,        0.1831054688,       -3.7689208984,       -1.2512207031
1488507322.1188669205,1488507322.1212830544,        0.6044921875,        0.0498046875,       -0.2128906250,       -0.0152587891,       -3.5400390625,       -1.2207031250
1488507322.1215651035,1488507322.1239910126,        0.6044921875,        0.0498046875,       -0.2128906250,       -0.0152587891,       -3.5400390625,       -1.2207031250
1488507322.1242721081,1488507322.1266839504,        0.6083984375,        0.0541992188,       -0.2148437500,        0.0762939453,       -3.3569335938,       -1.2512207031
1488507322.1269640923,1488507322.1293790340,        0.6083984375,        0.0541992188,       -0.2148437500,        0.0762939453,       -3.3569335938,       -1.2512207031
1488507322.1296598911,1488507322.1321110725,        0.6083984375,        0.0541992188,       -0.2148437500,        0.5187988281,       -3.4179687500,       -1.5106201172
1488507322.1323928833,1488507322.1348059177,        0.6083984375,        0.0590820312,       -0.1958007812,        0.5187988281,       -3.4179687500,       -1.5106201172
1488507322.1350901127,1488507322.1375060081,        0.6025390625,        0.0590820312,       -0.1958007812,        0.1220703125,       -3.4179687500,       -1.4953613281
1488507322.1377880573,1488507322.1402060986,        0.6025390625,        0.0590820312,       -0.1958007812,        0.1220703125,       -3.4179687500,       -1.4953613281
1488507322.1404860020,1488507322.1429109573,        0.6025390625,        0.0590820312,       -0.1958007812,        0.1220703125,       -3.4484863281,       -1.0681152344
1488507322.1431920528,1488507322.1456060410,        0.6127929688,        0.0424804688,       -0.2080078125,        0.1220703125,       -3.4484863281,       -1.0681152344
1488507322.1458890438,1488507322.1483039856,        0.6127929688,        0.0424804688,       -0.2080078125,       -0.0305175781,       -3.4179687500,       -0.9765625000
1488507322.1485869884,1488507322.1510050297,        0.6127929688,        0.0424804688,       -0.2080078125,       -0.0305175781,       -3.4179687500,       -0.9765625000
1488507322.1513988972,1488507322.1538259983,        0.6127929688,        0.0424804688,       -0.2080078125,        0.9765625000,       -3.8909912109,       -1.3732910156
1488507322.1541059017,1488507322.1565260887,        0.6093750000,        0.0522460938,       -0.2001953125,        0.9765625000,       -3.8909912109,       -1.3732910156
1488507322.1568069458,1488507322.1592240334,        0.6093750000,        0.0522460938,       -0.2001953125,        1.3580322266,       -3.7689208984,       -2.1209716797
1488507322.1595039368,1488507322.1619329453,        0.6093750000,        0.0522460938,       -0.2001953125,        1.3580322266,       -3.7689208984,       -2.1209716797
1488507322.1622118950,1488507322.1646270752,        0.6093750000,        0.0522460938,       -0.2026367188,        1.4495849609,       -3.6773681641,       -2.2125244141
1488507322.1649069786,1488507322.1673240662,        0.6040039062,        0.0551757812,       -0.2026367188,        1.4495849609,       -3.6773681641,       -2.2125244141
1488507322.1676049232,1488507322.1701259613,        0.6040039062,        0.0551757812,       -0.2026367188,        1.4190673828,       -3.8452148438,       -2.2888183594
1488507322.1704089642,1488507322.1728301048,        0.6040039062,        0.0551757812,       -0.2026367188,        1.4190673828,       -3.8452148438,       -2.2888183594
1488507322.1731119156,1488507322.1755249500,        0.5966796875,        0.0502929688,       -0.2133789062,        1.5869140625,       -3.4332275391,       -2.3803710938
1488507322.1758060455,1488507322.1782200336,        0.5966796875,        0.0502929688,       -0.2133789062,        1.5869140625,       -3.4332275391,       -2.3803710938
1488507322.1784999371,1488507322.1809179783,        0.5966796875,        0.0502929688,       -0.2133789062,        1.3732910156,       -3.0670166016,       -2.3498535156
1488507322.1811978817,1488507322.1836190224,        0.5966796875,        0.0502929688,       -0.2133789062,        1.3732910156,       -3.0670166016,       -2.3498535156
1488507322.1838989258,1488507322.1863169670,        0.5981445312,        0.0546875000,       -0.2065429688,        1.3732910156,       -3.1890869141,       -2.6245117188
1488507322.1865990162,1488507322.1890180111,        0.5981445312,        0.0546875000,       -0.2065429688,        1.9683837891,       -3.1890869141,       -2.6245117188
1488507322.1892991066,1488507322.1917209625,        0.5981445312,        0.0546875000,       -0.2065429688,        1.9683837891,       -3.4332275391,       -2.8839111328
1488507322.1919999123,1488507322.1944189072,        0.5981445312,        0.0546875000,       -0.2065429688,        2.4108886719,       -3.4332275391,       -2.8839111328
1488507322.1947000027,1488507322.1971139908,        0.5976562500,        0.0610351562,       -0.2050781250,        2.4108886719,       -3.3569335938,       -2.9602050781
1488507322.1973938942,1488507322.1998078823,        0.5976562500,        0.0610351562,       -0.2050781250,        2.6702880859,       -3.3569335938,       -2.9602050781
1488507322.2000889778,1488507322.2024819851,        0.5976562500,        0.0610351562,       -0.2050781250,        2.6702880859,       -3.3569335938,       -3.1280517578
1488507322.2027559280,1488507322.2050449848,        0.5976562500,        0.0610351562,       -0.2065429688,        2.5024414062,       -3.3569335938,       -3.1280517578
1488507322.2053189278,1488507322.2076060772,        0.5898437500,        0.0639648438,       -0.2065429688,        2.5024414062,       -3.3569335938,       -3.0975341797
1488507322.2078781128,1488507322.2101709843,        0.5898437500,        0.0639648438,       -0.2065429688,        3.1738281250,       -3.3874511719,       -3.0975341797
1488507322.2104439735,1488507322.2128260136,        0.5898437500,        0.0639648438,       -0.2065429688,        3.1738281250,       -3.3874511719,       -3.1585693359
1488507322.2130999565,1488507322.2153990269,        0.5898437500,        0.0551757812,       -0.2045898438,        3.8299560547,       -3.4179687500,       -3.1585693359
1488507322.2157790661,1488507322.2180678844,        0.5815429688,        0.0551757812,       -0.2045898438,        3.8299560547,       -3.4179687500,       -3.1585693359
1488507322.2183399200,1488507322.2206299305,        0.5815429688,        0.0551757812,       -0.2045898438,        4.7454833984,       -3.6926269531,       -3.5552978516
1488507322.2209029198,1488507322.2234320641,        0.5815429688,        0.0551757812,       -0.2045898438,        4.7454833984,       -3.6926269531,       -3.5552978516
1488507322.2237129211,1488507322.2261259556,        0.5820312500,        0.0537109375,       -0.1977539062,        5.9814453125,       -3.6163330078,       -3.7689208984
1488507322.2264070511,1488507322.2288210392,        0.5820312500,        0.0537109375,       -0.1977539062,        5.9814453125,       -3.6163330078,       -3.7689208984
1488507322.2291009426,1488507322.2315249443,        0.5820312500,        0.0537109375,       -0.1977539062,        7.3852539062,       -4.0283203125,       -4.3029785156
1488507322.2318150997,1488507322.2342269421,        0.5820312500,        0.0537109375,       -0.1977539062,        7.3852539062,       -4.0283203125,       -4.3029785156
1488507322.2345070839,1488507322.2369201183,        0.5795898438,        0.0615234375,       -0.2036132812,        8.1024169922,       -4.3487548828,       -4.4860839844
1488507322.2372019291,1488507322.2396140099,        0.5795898438,        0.0615234375,       -0.2036132812,        8.1024169922,       -4.3487548828,       -4.4860839844
1488507322.2398960590,1488507322.2423219681,        0.5795898438,        0.0615234375,       -0.2036132812,        8.1634521484,       -4.4250488281,       -4.7149658203
1488507322.2426040173,1488507322.2450261116,        0.5795898438,        0.0615234375,       -0.2036132812,        8.1634521484,       -4.4250488281,       -4.7149658203
1488507322.2453069687,1488507322.2477159500,        0.5922851562,        0.0786132812,       -0.2070312500,        7.1411132812,       -4.7149658203,       -4.1656494141
1488507322.2479970455,1488507322.2504079342,        0.5922851562,        0.0786132812,       -0.2070312500,        7.1411132812,       -4.7149658203,       -4.1656494141
1488507322.2506890297,1488507322.2531249523,        0.5922851562,        0.0786132812,       -0.2070312500,        6.3476562500,       -4.6234130859,       -3.6010742188
1488507322.2534050941,1488507322.2558159828,        0.5922851562,        0.0849609375,       -0.2255859375,        6.3476562500,       -4.6234130859,       -3.6010742188
1488507322.2560949326,1488507322.2585089207,        0.5996093750,        0.0849609375,       -0.2255859375,        4.3182373047,       -4.2877197266,       -2.5482177734
1488507322.2587890625,1488507322.2612030506,        0.5996093750,        0.0849609375,       -0.2255859375,        4.3182373047,       -4.2877197266,       -2.5482177734
1488507322.2614850998,1488507322.2640271187,        0.5996093750,        0.0849609375,       -0.2255859375,        1.9989013672,       -4.2114257812,       -1.0986328125
1488507322.2643020153,1488507322.2665979862,        0.6186523438,        0.0996093750,       -0.2280273438,        1.9989013672,       -4.2114257812,       -1.0986328125
1488507322.2668719292,1488507322.2691669464,        0.6186523438,        0.0996093750,       -0.2280273438,        0.8392333984,       -4.3029785156,       -0.6408691406
1488507322.2694408894,1488507322.2718820572,        0.6186523438,        0.0996093750,       -0.2280273438,        0.8392333984,       -4.3029785156,       -0.6408691406
1488507322.2721660137,1488507322.2745420933,        0.6186523438,        0.0996093750,       -0.2280273438,       -0.2593994141,       -3.3569335938,        0.1983642578
1488507322.2748210430,1488507322.2772018909,        0.6059570312,        0.0903320312,       -0.2006835938,       -0.2593994141,       -3.3569335938,        0.1983642578
1488507322.2775459290,1488507322.2799389362,        0.6059570312,        0.0903320312,       -0.2006835938,       -1.4038085938,       -2.9449462891,        0.3814697266
1488507322.2803258896,1488507322.2831900120,        0.6059570312,        0.0903320312,       -0.2006835938,       -1.4038085938,       -2.9449462891,        0.3814697266
1488507322.2834761143,1488507322.2858960629,        0.6059570312,        0.0903320312,       -0.2080078125,       -1.7852783203,       -3.3721923828,        0.7171630859
1488507322.2861781120,1488507322.2885921001,        0.5927734375,        0.0659179688,       -0.2080078125,       -1.7852783203,       -3.3721923828,        0.7171630859
1488507322.2888739109,1488507322.2912850380,        0.5927734375,        0.0659179688,       -0.2080078125,       -1.5869140625,       -3.1890869141,        0.9613037109
1488507322.2915658951,1488507322.2939929962,        0.5927734375,        0.0659179688,       -0.2080078125,       -1.5869140625,       -3.1890869141,        0.9613037109
1488507322.2942740917,1488507322.2966949940,        0.5927734375,        0.0576171875,       -0.2045898438,       -1.2207031250,       -3.1585693359,        0.5645751953
1488507322.2969760895,1488507322.2993860245,        0.5927734375,        0.0576171875,       -0.2045898438,       -1.2207031250,       -3.1585693359,        0.5645751953
1488507322.2996668816,1488507322.3021070957,        0.5927734375,        0.0576171875,       -0.2045898438,       -0.9613037109,       -3.1738281250,        0.2899169922
1488507322.3023810387,1488507322.3046760559,        0.5927734375,        0.0576171875,       -0.2045898438,       -0.9613037109,       -3.1738281250,        0.2899169922
1488507322.3049499989,1488507322.3072400093,        0.5976562500,        0.0566406250,       -0.1987304688,       -0.4425048828,       -3.3721923828,        0.2593994141
1488507322.3075149059,1488507322.3098111153,        0.5976562500,        0.0566406250,       -0.1987304688,       -0.4425048828,       -3.3721923828,        0.2593994141
1488507322.3100850582,1488507322.3123879433,        0.5976562500,        0.0566406250,       -0.1987304688,        0.4730224609,       -4.1656494141,        0.1678466797
1488507322.3126630783,1488507322.3149549961,        0.5976562500,        0.0566406250,       -0.1987304688,        0.4730224609,       -4.1656494141,        0.1678466797
1488507322.3152298927,1488507322.3175261021,        0.5913085938,        0.0639648438,       -0.2060546875,        0.5493164062,       -4.3029785156,        0.0762939453
1488507322.3178019524,1488507322.3200950623,        0.5913085938,        0.0639648438,       -0.2060546875,        0.5493164062,       -4.3029785156,        0.0762939453
1488507322.3203690052,1488507322.3226990700,        0.5913085938,        0.0639648438,       -0.2060546875,        0.5187988281,       -4.1503906250,       -0.0610351562
1488507322.3229749203,1488507322.3252680302,        0.5913085938,        0.0639648438,       -0.2060546875,        0.5187988281,       -4.1503906250,       -0.0610351562
1488507322.3255450726,1488507322.3278350830,        0.5898437500,        0.0610351562,       -0.2109375000,        0.4119873047,       -4.0130615234,       -0.1220703125
1488507322.3281109333,1488507322.3304049969,        0.5898437500,        0.0610351562,       -0.2109375000,        0.4119873047,       -4.0130615234,       -0.1220703125
1488507322.3306789398,1488507322.3330159187,        0.5898437500,        0.0610351562,       -0.2109375000,        0.4119873047,       -3.9825439453,       -0.5340576172
1488507322.3332910538,1488507322.3355889320,        0.5898437500,        0.0610351562,       -0.2109375000,        0.4882812500,       -3.9825439453,       -0.5340576172
1488507322.3358631134,1488507322.3381569386,        0.5825195312,        0.0512695312,       -0.2236328125,        0.4882812500,       -3.9825439453,       -0.9918212891
1488507322.3384308815,1488507322.3407220840,        0.5825195312,        0.0512695312,       -0.2236328125,        0.7019042969,       -4.1198730469,       -0.9918212891
1488507322.3409950733,1488507322.3434660435,        0.5825195312,        0.0512695312,       -0.2236328125,        0.7019042969,       -4.1198730469,       -0.9918212891
1488507322.3438539505,1488507322.3462688923,        0.5825195312,        0.0512695312,       -0.2226562500,        0.4119873047,       -4.1503906250,       -0.9918212891
1488507322.3465518951,1488507322.3489658833,        0.5976562500,        0.0424804688,       -0.2226562500,        0.4119873047,       -4.1503906250,       -0.6713867188
1488507322.3492469788,1488507322.3517010212,        0.5976562500,        0.0424804688,       -0.2226562500,       -1.1291503906,       -3.8146972656,       -0.6713867188
1488507322.3519759178,1488507322.3542699814,        0.5976562500,        0.0424804688,       -0.2226562500,       -1.1291503906,       -3.8146972656,       -0.9460449219
1488507322.3545439243,1488507322.3568370342,        0.5976562500,        0.0634765625,       -0.2260742188,       -1.4801025391,       -4.2114257812,       -0.9460449219
1488507322.3571119308,1488507322.3594019413,        0.6010742188,        0.0634765625,       -0.2260742188,       -1.4801025391,       -4.2114257812,       -0.9460449219
1488507322.3596770763,1488507322.3619930744,        0.6010742188,        0.0634765625,       -0.2260742188,       -1.6021728516,       -3.5858154297,       -0.9155273438
1488507322.3622739315,1488507322.3646950722,        0.6010742188,        0.0634765625,       -0.2260742188,       -1.6021728516,       -3.5858154297,       -0.9155273438
1488507322.3649759293,1488507322.3673930168,        0.5971679688,        0.0649414062,       -0.2133789062,       -2.7618408203,       -3.5552978516,       -0.5493164062
1488507322.3676750660,1488507322.3700869083,        0.5971679688,        0.0649414062,       -0.2133789062,       -2.7618408203,       -3.5552978516,       -0.5493164062
1488507322.3703680038,1488507322.3727920055,        0.5971679688,        0.0649414062,       -0.2133789062,       -3.0822753906,       -3.8146972656,       -1.0223388672
1488507322.3730731010,1488507322.3754899502,        0.5971679688,        0.0649414062,       -0.2133789062,       -3.0822753906,       -3.8146972656,       -1.0223388672
1488507322.3757688999,1488507322.3781859875,        0.5888671875,        0.0585937500,       -0.2070312500,       -3.2958984375,       -3.7689208984,       -1.2207031250
1488507322.3784680367,1488507322.3808789253,        0.5888671875,        0.0585937500,       -0.2070312500,       -3.2958984375,       -3.7689208984,       -1.2207031250
1488507322.3811590672,1488507322.3835868835,        0.5888671875,        0.0585937500,       -0.2070312500,       -3.5400390625,       -3.8452148438,       -1.2512207031
1488507322.3838689327,1488507322.3862869740,        0.5888671875,        0.0585937500,       -0.2070312500,       -3.5400390625,       -3.8452148438,       -1.2512207031
1488507322.3865690231,1488507322.3889820576,        0.5883789062,        0.0546875000,       -0.2075195312,       -2.9754638672,       -3.4484863281,       -1.4190673828
1488507322.3892619610,1488507322.3917100430,        0.5883789062,        0.0546875000,       -0.2075195312,       -2.9754638672,       -3.4484863281,       -1.4190673828
1488507322.3919949532,1488507322.3944098949,        0.5883789062,        0.0546875000,       -0.2075195312,       -2.4414062500,       -3.7841796875,       -1.9378662109
1488507322.3946900368,1488507322.3971049786,        0.5883789062,        0.0546875000,       -0.1948242188,       -2.4414062500,       -3.7841796875,       -1.9378662109
1488507322.3973860741,1488507322.4000160694,        0.5903320312,        0.0532226562,       -0.1948242188,       -1.8005371094,       -3.9825439453,       -2.5177001953
1488507322.4002969265,1488507322.4028489590,        0.5903320312,        0.0532226562,       -0.1948242188,       -1.8005371094,       -3.9825439453,       -2.5177001953
1488507322.4031250477,1488507322.4054191113,        0.5903320312,        0.0532226562,       -0.1948242188,       -0.8544921875,       -4.2877197266,       -2.9754638672
1488507322.4056940079,1488507322.4079859257,        0.5849609375,        0.0634765625,       -0.1933593750,       -0.8544921875,       -4.2877197266,       -2.9754638672
1488507322.4083590508,1488507322.4106550217,        0.5849609375,        0.0634765625,       -0.1933593750,       -0.3814697266,       -4.5166015625,       -3.7231445312
1488507322.4109289646,1488507322.4133489132,        0.5849609375,        0.0634765625,       -0.1933593750,       -0.3814697266,       -4.5166015625,       -3.7231445312
1488507322.4136300087,1488507322.4160459042,        0.5849609375,        0.0634765625,       -0.1933593750,        0.3509521484,       -5.0659179688,       -3.5095214844
1488507322.4163300991,1488507322.4187459946,        0.5844726562,        0.0683593750,       -0.2041015625,        0.3509521484,       -5.0659179688,       -3.5095214844
1488507322.4190270901,1488507322.4214439392,        0.5844726562,        0.0683593750,       -0.2041015625,        0.8544921875,       -5.3558349609,       -3.6315917969
1488507322.4217340946,1488507322.4241569042,        0.5844726562,        0.0683593750,       -0.2041015625,        0.8544921875,       -5.3558349609,       -3.6315917969
1488507322.4244370461,1488507322.4268550873,        0.5844726562,        0.0683593750,       -0.2041015625,        1.5716552734,       -5.4168701172,       -4.4097900391
1488507322.4271349907,1488507322.4295520782,        0.5781250000,        0.0566406250,       -0.1982421875,        1.5716552734,       -5.4168701172,       -4.4097900391
1488507322.4298329353,1488507322.4322628975,        0.5781250000,        0.0566406250,       -0.1982421875,        2.1209716797,       -5.2642822266,       -5.5236816406
1488507322.4325380325,1488507322.4348249435,        0.5781250000,        0.0566406250,       -0.1982421875,        2.1209716797,       -5.2642822266,       -5.5236816406
1488507322.4350988865,1488507322.4373900890,        0.5781250000,        0.0566406250,       -0.2104492188,        2.9907226562,       -5.2185058594,       -6.4392089844
1488507322.4376649857,1488507322.4399569035,        0.5737304688,        0.0493164062,       -0.2104492188,        2.9907226562,       -5.2185058594,       -6.4392089844
1488507322.4402320385,1488507322.4425270557,        0.5737304688,        0.0493164062,       -0.2104492188,        3.5552978516,       -5.2642822266,       -7.5836181641
1488507322.4428000450,1488507322.4450941086,        0.5737304688,        0.0493164062,       -0.2104492188,        3.5552978516,       -5.2642822266,       -7.5836181641
1488507322.4453670979,1488507322.4476640224,        0.5737304688,        0.0327148438,       -0.2216796875,        4.6539306641,       -5.3558349609,       -8.0718994141
1488507322.4479379654,1488507322.4502370358,        0.5717773438,        0.0327148438,       -0.2216796875,        4.6539306641,       -5.3558349609,       -8.0718994141
1488507322.4505100250,1488507322.4529850483,        0.5717773438,        0.0327148438,       -0.2216796875,        4.6539306641,       -6.1340332031,       -7.9956054688
1488507322.4532580376,1488507322.4555439949,        0.5717773438,        0.0327148438,       -0.2216796875,        6.2408447266,       -6.1340332031,       -7.9956054688
1488507322.4558160305,1488507322.4581050873,        0.6054687500,       -0.0058593750,       -0.2675781250,        6.2408447266,       -6.1340332031,       -6.9427490234
1488507322.4583799839,1488507322.4606668949,        0.6054687500,       -0.0058593750,       -0.2675781250,        4.5166015625,       -6.3018798828,       -6.9427490234
1488507322.4609420300,1488507322.4635179043,        0.6054687500,       -0.0058593750,       -0.2675781250,        4.5166015625,       -6.3018798828,       -6.8817138672
1488507322.4637939930,1488507322.4660809040,        0.6054687500,       -0.0058593750,       -0.2675781250,        4.9285888672,       -5.9661865234,       -6.8817138672
1488507322.4663560390,1488507322.4686460495,        0.6430664062,        0.0981445312,       -0.2177734375,        4.9285888672,       -5.9661865234,       -6.6833496094
1488507322.4689168930,1488507322.4712080956,        0.6430664062,        0.0981445312,       -0.2177734375,        6.4239501953,       -5.5541992188,       -6.6833496094
1488507322.4714798927,1488507322.4739680290,        0.6430664062,        0.0981445312,       -0.2177734375,        6.4239501953,       -5.5541992188,       -6.6833496094
1488507322.4743490219,1488507322.4766430855,        0.6430664062,        0.0981445312,       -0.2177734375,        6.9122314453,       -5.5541992188,       -5.3558349609
1488507322.4777109623,1488507322.4800019264,        0.6176757812,        0.1220703125,       -0.2006835938,        6.9122314453,       -4.9285888672,       -4.6539306641
1488507322.4802780151,1488507322.4825708866,        0.6176757812,        0.1220703125,       -0.2006835938,        5.1879882812,       -4.9285888672,       -4.6539306641
1488507322.4828450680,1488507322.4851350784,        0.6176757812,        0.1220703125,       -0.2006835938,        5.1879882812,       -4.9285888672,       -3.7994384766
1488507322.4854080677,1488507322.4876968861,        0.6176757812,        0.1220703125,       -0.1899414062,        3.5247802734,       -5.2490234375,       -3.7994384766
1488507322.4879689217,1488507322.4902629852,        0.5908203125,        0.0922851562,       -0.1899414062,        3.5247802734,       -5.2490234375,       -3.7994384766
1488507322.4905359745,1488507322.4928700924,        0.5908203125,        0.0922851562,       -0.1899414062,        3.1280517578,       -5.7830810547,       -2.9907226562
1488507322.4931430817,1488507322.4954319000,        0.5908203125,        0.0922851562,       -0.1899414062,        3.1280517578,       -5.7830810547,       -2.9907226562
1488507322.4957039356,1488507322.4979929924,        0.5908203125,        0.0634765625,       -0.1625976562,        4.8675537109,       -6.5155029297,       -2.7008056641
1488507322.4982659817,1488507322.5005559921,        0.5678710938,        0.0634765625,       -0.1625976562,        4.8675537109,       -6.5155029297,       -2.7008056641
1488507322.5008289814,1488507322.5032029152,        0.5678710938,        0.0634765625,       -0.1625976562,        7.7362060547,       -7.0190429688,       -2.9907226562
1488507322.5034790039,1488507322.5057649612,        0.5678710938,        0.0634765625,       -0.1625976562,        7.7362060547,       -7.0190429688,       -2.9907226562
1488507322.5060410500,1488507322.5083270073,        0.5678710938,        0.0581054688,       -0.1840820312,       11.1083984375,       -7.0343017578,       -3.4637451172
1488507322.5086069107,1488507322.5109019279,        0.5766601562,        0.0581054688,       -0.1840820312,       11.1083984375,       -7.0343017578,       -3.4637451172
1488507322.5111799240,1488507322.5134880543,        0.5766601562,        0.0581054688,       -0.1840820312,       13.9465332031,       -6.8664550781,       -4.3487548828
1488507322.5137660503,1488507322.5160539150,        0.5766601562,        0.0581054688,       -0.1840820312,       13.9465332031,       -6.8664550781,       -4.3487548828
1488507322.5163309574,1488507322.5186240673,        0.5766601562,        0.0678710938,       -0.2148437500,       16.2200927734,       -7.0953369141,       -4.7149658203
1488507322.5189020634,1488507322.5211908817,        0.5693359375,        0.0678710938,       -0.2148437500,       16.2200927734,       -7.0953369141,       -4.7149658203
1488507322.5214691162,1488507322.5239160061,        0.5693359375,        0.0678710938,       -0.2148437500,       17.1508789062,       -6.7443847656,       -4.3487548828
1488507322.5241940022,1488507322.5264880657,        0.5693359375,        0.0678710938,       -0.2148437500,       17.1508789062,       -6.7443847656,       -4.3487548828
1488507322.5267660618,1488507322.5290510654,        0.5722656250,        0.0913085938,       -0.2387695312,       17.1508789062,       -6.6680908203,       -4.0435791016
1488507322.5293309689,1488507322.5316278934,        0.5722656250,        0.0913085938,       -0.2387695312,       17.0898437500,       -6.6680908203,       -4.0435791016
1488507322.5320870876,1488507322.5343770981,        0.5722656250,        0.0913085938,       -0.2387695312,       17.0898437500,       -6.2103271484,       -3.4027099609
1488507322.5346560478,1488507322.5369420052,        0.5722656250,        0.0913085938,       -0.2387695312,       16.0675048828,       -6.2103271484,       -3.4027099609
1488507322.5373270512,1488507322.5396199226,        0.5537109375,        0.0957031250,       -0.2397460938,       16.0675048828,       -6.2103271484,       -2.7008056641
1488507322.5398979187,1488507322.5421910286,        0.5537109375,        0.0957031250,       -0.2397460938,       15.4266357422,       -6.5307617188,       -2.7008056641
1488507322.5424699783,1488507322.5447549820,        0.5537109375,        0.0957031250,       -0.2397460938,       15.4266357422,       -6.5307617188,       -2.5787353516
1488507322.5450329781,1488507322.5473239422,        0.5537109375,        0.0957031250,       -0.2397460938,       15.3656005859,       -6.7138671875,       -2.5787353516
1488507322.5476040840,1488507322.5498929024,        0.5512695312,        0.0927734375,       -0.2319335938,       15.3656005859,       -6.7138671875,       -2.5787353516
1488507322.5501708984,1488507322.5525019169,        0.5512695312,        0.0927734375,       -0.2319335938,       15.1977539062,       -6.5917968750,       -3.0364990234
1488507322.5527811050,1488507322.5550699234,        0.5512695312,        0.0927734375,       -0.2319335938,       15.1977539062,       -6.5917968750,       -3.0364990234
1488507322.5553491116,1488507322.5576341152,        0.5512695312,        0.0927734375,       -0.2319335938,       15.7012939453,       -6.6070556641,       -3.8757324219
1488507322.5579109192,1488507322.5602030754,        0.5444335938,        0.1020507812,       -0.2329101562,       15.7012939453,       -6.6070556641,       -3.8757324219
1488507322.5604820251,1488507322.5627810955,        0.5444335938,        0.1020507812,       -0.2329101562,       15.6250000000,       -6.4392089844,       -4.3945312500
1488507322.5630578995,1488507322.5655069351,        0.5444335938,        0.1020507812,       -0.2329101562,       15.6250000000,       -6.4392089844,       -4.3945312500
1488507322.5657858849,1488507322.5680739880,        0.5444335938,        0.1020507812,       -0.2329101562,       15.8996582031,       -6.7901611328,       -5.4931640625
1488507322.5683519840,1488507322.5706429482,        0.5390625000,        0.0756835938,       -0.2285156250,       15.8996582031,       -6.7901611328,       -5.4931640625
1488507322.5709218979,1488507322.5734550953,        0.5390625000,        0.0756835938,       -0.2285156250,       16.0675048828,       -7.4005126953,       -6.7138671875
1488507322.5737380981,1488507322.5761129856,        0.5390625000,        0.0756835938,       -0.2285156250,       16.0675048828,       -7.4005126953,       -6.7138671875
1488507322.5763940811,1488507322.5796170235,        0.5390625000,        0.0756835938,       -0.2475585938,       16.1285400391,       -8.4686279297,       -7.6904296875
1488507322.5799000263,1488507322.5822010040,        0.5400390625,        0.0249023438,       -0.2475585938,       16.1285400391,       -8.4686279297,       -7.6904296875
1488507322.5824820995,1488507322.5847730637,        0.5400390625,        0.0249023438,       -0.2475585938,       16.3879394531,       -9.2926025391,       -8.1024169922
1488507322.5850539207,1488507322.5873439312,        0.5400390625,        0.0249023438,       -0.2475585938,       16.3879394531,       -9.2926025391,       -8.1024169922
1488507322.5876228809,1488507322.5899078846,        0.5522460938,        0.0063476562,       -0.2558593750,       16.2353515625,       -9.7198486328,       -8.6975097656
1488507322.5901880264,1488507322.5925118923,        0.5522460938,        0.0063476562,       -0.2558593750,       16.2353515625,       -9.7198486328,       -8.6975097656
1488507322.5927920341,1488507322.5950810909,        0.5522460938,        0.0063476562,       -0.2558593750,       16.4489746094,      -10.5590820312,       -9.3994140625
1488507322.5953629017,1488507322.5976490974,        0.5522460938,        0.0063476562,       -0.2558593750,       16.4489746094,      -10.5590820312,       -9.3994140625
1488507322.5979321003,1488507322.6002180576,        0.5756835938,        0.0483398438,       -0.2412109375,       17.0745849609,      -10.8032226562,       -9.9639892578
1488507322.6006219387,1488507322.6029210091,        0.5756835938,        0.0483398438,       -0.2412109375,       17.0745849609,      -10.8032226562,       -9.9639892578
1488507322.6032040119,1488507322.6054930687,        0.5756835938,        0.0483398438,       -0.2412109375,       16.4489746094,      -11.0473632812,      -10.4675292969
1488507322.6057789326,1488507322.6080648899,        0.5756835938,        0.0483398438,       -0.2412109375,       16.4489746094,      -11.0473632812,      -10.4675292969
1488507322.6083478928,1488507322.6106350422,        0.5878906250,        0.0703125000,       -0.2314453125,       16.4489746094,      -10.8642578125,      -10.4064941406
1488507322.6109199524,1488507322.6132678986,        0.5878906250,        0.0703125000,       -0.2314453125,       15.2740478516,      -10.8642578125,      -10.4064941406
1488507322.6135549545,1488507322.6158449650,        0.5878906250,        0.0703125000,       -0.2314453125,       15.2740478516,      -10.8642578125,      -10.3302001953
1488507322.6161301136,1488507322.6184160709,        0.5878906250,        0.0703125000,       -0.2314453125,       15.0146484375,      -10.6964111328,      -10.3302001953
1488507322.6187009811,1488507322.6209878922,        0.6220703125,        0.0629882812,       -0.2416992188,       15.0146484375,      -10.6964111328,      -10.1013183594
1488507322.6212730408,1488507322.6237530708,        0.6220703125,        0.0629882812,       -0.2416992188,       13.8549804688,      -10.1470947266,      -10.1013183594
1488507322.6240379810,1488507322.6263220310,        0.6220703125,        0.0629882812,       -0.2416992188,       13.8549804688,      -10.1470947266,      -10.1013183594
1488507322.6266059875,1488507322.6288950443,        0.6220703125,        0.0629882812,       -0.2382812500,       12.5274658203,       -9.2773437500,       -9.8724365234
1488507322.6291730404,1488507322.6314570904,        0.6318359375,        0.0786132812,       -0.2382812500,       12.5274658203,       -9.2773437500,       -9.8724365234
1488507322.6318199635,1488507322.6341130733,        0.6318359375,        0.0786132812,       -0.2382812500,       12.3901367188,       -9.0026855469,       -9.5062255859
1488507322.6343948841,1488507322.6366829872,        0.6318359375,        0.0786132812,       -0.2382812500,       12.3901367188,       -9.0026855469,       -9.5062255859
1488507322.6369640827,1488507322.6392478943,        0.6318359375,        0.0786132812,       -0.2407226562,       11.2152099609,       -8.8806152344,       -9.3841552734
1488507322.6395270824,1488507322.6418190002,        0.6372070312,        0.0825195312,       -0.2407226562,       11.2152099609,       -8.8806152344,       -9.3841552734
1488507322.6420979500,1488507322.6443879604,        0.6372070312,        0.0825195312,       -0.2407226562,       10.2539062500,       -8.8653564453,       -8.7432861328
1488507322.6446659565,1488507322.6469531059,        0.6372070312,        0.0825195312,       -0.2407226562,       10.2539062500,       -8.8653564453,       -8.7432861328
1488507322.6472311020,1488507322.6495239735,        0.6372070312,        0.0766601562,       -0.2529296875,        9.0332031250,       -8.1176757812,       -8.2702636719
1488507322.6497979164,1488507322.6521410942,        0.6425781250,        0.0766601562,       -0.2529296875,        9.0332031250,       -8.1176757812,       -8.2702636719
1488507322.6524150372,1488507322.6547141075,        0.6425781250,        0.0766601562,       -0.2529296875,        7.7209472656,       -7.1411132812,       -8.4228515625
1488507322.6549880505,1488507322.6572821140,        0.6425781250,        0.0766601562,       -0.2529296875,        7.7209472656,       -7.1411132812,       -8.4228515625
1488507322.6575551033,1488507322.6598479748,        0.6425781250,        0.0668945312,       -0.2436523438,        7.7209472656,       -6.4544677734,       -8.4686279297
1488507322.6601209641,1488507322.6625030041,        0.6347656250,        0.0668945312,       -0.2436523438,        7.1258544922,       -6.4544677734,       -8.4686279297
1488507322.6628949642,1488507322.6653060913,        0.6347656250,        0.0668945312,       -0.2436523438,        7.1258544922,       -6.2561035156,       -8.9111328125
1488507322.6655859947,1488507322.6679990292,        0.6347656250,        0.0668945312,       -0.2436523438,        6.1340332031,       -6.2561035156,       -8.9111328125
1488507322.6682789326,1488507322.6706929207,        0.6196289062,        0.0483398438,       -0.2602539062,        6.1340332031,       -6.2255859375,       -9.4451904297
1488507322.6709740162,1488507322.6734011173,        0.6196289062,        0.0483398438,       -0.2602539062,        5.2947998047,       -6.2255859375,       -9.4451904297
1488507322.6736819744,1488507322.6760959625,        0.6196289062,        0.0483398438,       -0.2602539062,        5.2947998047,       -5.7830810547,       -9.8114013672
1488507322.6763780117,1488507322.6787960529,        0.6196289062,        0.0483398438,       -0.2602539062,        5.6915283203,       -5.7830810547,       -9.8114013672
1488507322.6790790558,1488507322.6814949512,        0.6000976562,        0.0385742188,       -0.2812500000,        5.6915283203,       -4.7760009766,      -10.2691650391
1488507322.6817920208,1488507322.6842069626,        0.6000976562,        0.0385742188,       -0.2812500000,        5.2642822266,       -4.7760009766,      -10.2691650391
1488507322.6844930649,1488507322.6869111061,        0.6000976562,        0.0385742188,       -0.2812500000,        5.2642822266,       -4.5166015625,      -10.9710693359
1488507322.6871969700,1488507322.6897530556,        0.6000976562,        0.0385742188,       -0.2646484375,        4.2724609375,       -4.5166015625,      -10.9710693359
1488507322.6900389194,1488507322.6928679943,        0.6054687500,        0.0502929688,       -0.2646484375,        0.3662109375,       -3.6926269531,      -11.5356445312
1488507322.6931478977,1488507322.6954410076,        0.6054687500,        0.0502929688,       -0.2646484375,        2.1362304688,       -3.6926269531,      -11.5356445312
1488507322.6957199574,1488507322.6980109215,        0.6054687500,        0.0502929688,       -0.2646484375,        0.8697509766,       -3.0670166016,      -11.6882324219
1488507322.6982889175,1488507322.7005810738,        0.6162109375,        0.0644531250,       -0.2705078125,        0.8697509766,       -3.0670166016,      -11.6882324219
1488507322.7008600235,1488507322.7032439709,        0.6162109375,        0.0644531250,       -0.2705078125,        0.8697509766,       -2.5634765625,      -12.0391845703
1488507322.7035310268,1488507322.7059469223,        0.6162109375,        0.0644531250,       -0.2705078125,       -0.4119873047,       -2.5634765625,      -12.0391845703
1488507322.7062320709,1488507322.7086470127,        0.6162109375,        0.0644531250,       -0.2705078125,       -0.4119873047,       -1.1596679688,      -12.4969482422
1488507322.7089340687,1488507322.7113499641,        0.6064453125,        0.0688476562,       -0.2607421875,       -2.4261474609,       -1.1596679688,      -12.4969482422
1488507322.7116351128,1488507322.7140541077,        0.6064453125,        0.0688476562,       -0.2607421875,       -2.4261474609,       -1.3427734375,      -13.2598876953
1488507322.7143390179,1488507322.7167549133,        0.6064453125,        0.0688476562,       -0.2607421875,       -4.0740966797,       -1.3427734375,      -13.2598876953
1488507322.7170400620,1488507322.7194530964,        0.6064453125,        0.0688476562,       -0.2607421875,       -4.0740966797,       -1.3427734375,      -14.2364501953
1488507322.7197380066,1488507322.7221529484,        0.6040039062,        0.0629882812,       -0.2460937500,       -5.0354003906,       -1.1596679688,      -14.2364501953
1488507322.7224309444,1488507322.7247250080,        0.6040039062,        0.0629882812,       -0.2460937500,       -5.0354003906,       -1.1596679688,      -14.9536132812
1488507322.7250030041,1488507322.7272980213,        0.6040039062,        0.0629882812,       -0.2460937500,       -6.7596435547,       -0.9307861328,      -14.9536132812
1488507322.7276849747,1488507322.7299830914,        0.6040039062,        0.0629882812,       -0.2363281250,       -6.7596435547,       -0.9307861328,      -16.2353515625
1488507322.7302620411,1488507322.7325611115,        0.6083984375,        0.0488281250,       -0.2363281250,       -7.4768066406,       -0.9918212891,      -16.2353515625
1488507322.7328391075,1488507322.7351410389,        0.6083984375,        0.0488281250,       -0.2363281250,       -7.4768066406,       -0.9918212891,      -16.2353515625
1488507322.7354190350,1488507322.7377109528,        0.6083984375,        0.0488281250,       -0.2363281250,       -7.6904296875,       -0.7781982422,      -17.1966552734
1488507322.7379899025,1488507322.7402820587,        0.6083984375,        0.0488281250,       -0.2231445312,       -7.6904296875,       -0.7781982422,      -17.1966552734
1488507322.7405600548,1488507322.7429931164,        0.5996093750,        0.0449218750,       -0.2231445312,       -7.3852539062,       -0.8544921875,      -18.0816650391
1488507322.7432730198,1488507322.7455670834,        0.5996093750,        0.0449218750,       -0.2231445312,       -7.3852539062,       -0.8544921875,      -18.0816650391
1488507322.7458460331,1488507322.7481410503,        0.5996093750,        0.0449218750,       -0.2231445312,       -7.7972412109,       -0.5035400391,      -19.2871093750
1488507322.7484200001,1488507322.7507169247,        0.5996093750,        0.0488281250,       -0.2192382812,       -7.7972412109,       -0.5035400391,      -19.2871093750
1488507322.7509939671,1488507322.7534620762,        0.5952148438,        0.0488281250,       -0.2192382812,       -7.6446533203,       -1.0681152344,      -20.4162597656
1488507322.7537500858,1488507322.7561550140,        0.5952148438,        0.0488281250,       -0.2192382812,       -7.6446533203,       -1.0681152344,      -20.4162597656
1488507322.7564399242,1488507322.7588450909,        0.5952148438,        0.0488281250,       -0.2192382812,       -8.1176757812,       -1.1749267578,      -21.6979980469
1488507322.7591309547,1488507322.7615330219,        0.5839843750,        0.0522460938,       -0.2407226562,       -8.1176757812,       -1.1749267578,      -21.6979980469
1488507322.7618279457,1488507322.7642331123,        0.5839843750,        0.0522460938,       -0.2407226562,       -9.5520019531,       -1.3885498047,      -22.9644775391
1488507322.7645199299,1488507322.7669179440,        0.5839843750,        0.0522460938,       -0.2407226562,       -9.5520019531,       -1.3885498047,      -22.9644775391
1488507322.7672049999,1488507322.7696099281,        0.5839843750,        0.0522460938,       -0.2407226562,      -10.5590820312,       -1.3885498047,      -23.8342285156
1488507322.7698988914,1488507322.7723131180,        0.5786132812,        0.0776367188,       -0.2485351562,      -10.5590820312,       -1.3885498047,      -23.8342285156
1488507322.7726020813,1488507322.7750039101,        0.5786132812,        0.0776367188,       -0.2485351562,      -10.4370117188,       -1.5869140625,      -24.3225097656
1488507322.7752940655,1488507322.7776989937,        0.5786132812,        0.0776367188,       -0.2485351562,      -10.4370117188,       -1.5869140625,      -24.3225097656
1488507322.7779879570,1488507322.7803928852,        0.5786132812,        0.0776367188,       -0.2490234375,      -10.3454589844,       -1.5258789062,      -24.5208740234
1488507322.7806820869,1488507322.7830948830,        0.5800781250,        0.0786132812,       -0.2490234375,      -10.3454589844,       -1.5258789062,      -24.5208740234
1488507322.7833850384,1488507322.7857871056,        0.5800781250,        0.0786132812,       -0.2490234375,      -10.9100341797,       -1.3732910156,      -24.9786376953
1488507322.7860779762,1488507322.7884829044,        0.5800781250,        0.0786132812,       -0.2490234375,      -10.9100341797,       -1.3732910156,      -24.9786376953
1488507322.7887709141,1488507322.7911720276,        0.5800781250,        0.0869140625,       -0.2519531250,      -11.5203857422,       -1.4801025391,      -25.3906250000
1488507322.7915709019,1488507322.7939789295,        0.5800781250,        0.0869140625,       -0.2519531250,      -11.5203857422,       -1.4801025391,      -25.3906250000
1488507322.7942669392,1488507322.7966749668,        0.5800781250,        0.0869140625,       -0.2519531250,      -12.1154785156,       -1.5563964844,      -26.1535644531
1488507322.7969660759,1488507322.7993700504,        0.5800781250,        0.0869140625,       -0.2519531250,      -12.1154785156,       -1.5563964844,      -26.1535644531
1488507322.7996580601,1488507322.8021159172,        0.5703125000,        0.0932617188,       -0.2436523438,      -12.6953125000,       -1.7395019531,      -27.0385742188
1488507322.8024070263,1488507322.8048241138,        0.5703125000,        0.0932617188,       -0.2436523438,      -12.6953125000,       -1.7395019531,      -27.0385742188
1488507322.8051130772,1488507322.8075249195,        0.5703125000,        0.0932617188,       -0.2436523438,      -12.8173828125,       -1.9683837891,      -27.1148681641
1488507322.8078460693,1488507322.8103868961,        0.5703125000,        0.0932617188,       -0.2436523438,      -12.8173828125,       -1.9683837891,      -27.1148681641
1488507322.8106780052,1488507322.8134269714,        0.5659179688,        0.0913085938,       -0.2343750000,      -11.9781494141,       -2.2125244141,      -26.9927978516
1488507322.8137209415,1488507322.8161420822,        0.5659179688,        0.0913085938,       -0.2343750000,      -11.9781494141,       -2.2125244141,      -26.9927978516
1488507322.8164319992,1488507322.8188469410,        0.5659179688,        0.0913085938,       -0.2343750000,      -11.0778808594,       -2.4871826172,      -27.8320312500
1488507322.8191359043,1488507322.8215529919,        0.5659179688,        0.0844726562,       -0.2250976562,      -11.0778808594,       -2.4871826172,      -27.8320312500
1488507322.8218429089,1488507322.8242580891,        0.5737304688,        0.0844726562,       -0.2250976562,      -10.2081298828,       -2.9449462891,      -28.6102294922
1488507322.8245480061,1488507322.8269689083,        0.5737304688,        0.0844726562,       -0.2250976562,      -10.2081298828,       -2.9449462891,      -28.6102294922
1488507322.8272590637,1488507322.8297410011,        0.5737304688,        0.0844726562,       -0.2250976562,       -9.0942382812,       -3.1280517578,      -29.4036865234
1488507322.8300271034,1488507322.8324289322,        0.5781250000,        0.0908203125,       -0.2216796875,       -9.0942382812,       -3.1280517578,      -29.4036865234
1488507322.8327119350,1488507322.8350949287,        0.5781250000,        0.0908203125,       -0.2216796875,       -7.5531005859,       -2.9907226562,      -30.1666259766
1488507322.8353779316,1488507322.8377571106,        0.5781250000,        0.0908203125,       -0.2216796875,       -7.5531005859,       -2.9907226562,      -30.1666259766
1488507322.8380410671,1488507322.8405230045,        0.5781250000,        0.0908203125,       -0.2216796875,       -6.6986083984,       -3.7384033203,      -31.1279296875
1488507322.8408091068,1488507322.8431439400,        0.5742187500,        0.0976562500,       -0.2255859375,       -6.6986083984,       -3.7384033203,      -31.1279296875
1488507322.8434219360,1488507322.8457119465,        0.5742187500,        0.0976562500,       -0.2255859375,       -4.9591064453,       -4.5928955078,      -31.4636230469
1488507322.8459908962,1488507322.8482809067,        0.5742187500,        0.0976562500,       -0.2255859375,       -4.9591064453,       -4.5928955078,      -31.4636230469
1488507322.8485739231,1488507322.8508679867,        0.5742187500,        0.0976562500,       -0.2255859375,       -4.7454833984,       -4.8675537109,      -31.3110351562
1488507322.8511459827,1488507322.8534650803,        0.5751953125,        0.1064453125,       -0.2285156250,       -4.7454833984,       -4.8675537109,      -31.3110351562
1488507322.8537430763,1488507322.8560400009,        0.5751953125,        0.1064453125,       -0.2285156250,       -4.3640136719,       -4.9591064453,      -31.4178466797
1488507322.8564260006,1488507322.8587241173,        0.5751953125,        0.1064453125,       -0.2285156250,       -4.3640136719,       -4.9591064453,      -31.4178466797
1488507322.8590021133,1488507322.8612909317,        0.5751953125,        0.1064453125,       -0.2441406250,       -4.2114257812,       -5.0201416016,      -32.2113037109
1488507322.8615720272,1488507322.8639719486,        0.5781250000,        0.1367187500,       -0.2441406250,       -4.2114257812,       -5.0201416016,      -32.2113037109
1488507322.8642508984,1488507322.8665471077,        0.5781250000,        0.1367187500,       -0.2441406250,       -4.2114257812,       -5.2642822266,      -32.2875976562
1488507322.8668229580,1488507322.8691198826,        0.5781250000,        0.1367187500,       -0.2441406250,       -4.4860839844,       -5.2642822266,      -32.2875976562
1488507322.8693969250,1488507322.8718209267,        0.5781250000,        0.1279296875,       -0.2407226562,       -4.4860839844,       -5.2642822266,      -32.1655273438
1488507322.8721060753,1488507322.8745250702,        0.5825195312,        0.1279296875,       -0.2407226562,       -4.8065185547,       -5.6762695312,      -32.1655273438
1488507322.8748118877,1488507322.8772308826,        0.5825195312,        0.1279296875,       -0.2407226562,       -4.8065185547,       -5.6762695312,      -31.7993164062
1488507322.8775150776,1488507322.8799281120,        0.5825195312,        0.1279296875,       -0.2407226562,       -5.8135986328,       -6.0729980469,      -31.7993164062
1488507322.8802120686,1488507322.8826279640,        0.5830078125,        0.1420898438,       -0.2353515625,       -5.8135986328,       -6.0729980469,      -31.4636230469
1488507322.8829131126,1488507322.8853271008,        0.5830078125,        0.1420898438,       -0.2353515625,       -6.9122314453,       -6.3018798828,      -31.4636230469
1488507322.8856120110,1488507322.8880250454,        0.5830078125,        0.1420898438,       -0.2353515625,       -6.9122314453,       -6.3018798828,      -31.9976806641
1488507322.8883109093,1488507322.8907270432,        0.5830078125,        0.1420898438,       -0.2353515625,       -6.7749023438,       -6.4392089844,      -31.9976806641
1488507322.8910100460,1488507322.8933410645,        0.5893554688,        0.1464843750,       -0.2363281250,       -6.7749023438,       -6.4392089844,      -31.8603515625
1488507322.8936181068,1488507322.8959128857,        0.5893554688,        0.1464843750,       -0.2363281250,       -6.0272216797,       -6.7138671875,      -31.8603515625
1488507322.8961899281,1488507322.8984849453,        0.5893554688,        0.1464843750,       -0.2363281250,       -6.0272216797,       -6.7138671875,      -31.8603515625
1488507322.8987619877,1488507322.9010560513,        0.5893554688,        0.1464843750,       -0.2363281250,       -5.6915283203,       -6.6223144531,      -32.3638916016
1488507322.9013350010,1488507322.9037699699,        0.5805664062,        0.1220703125,       -0.2392578125,       -5.6915283203,       -6.6223144531,      -32.3638916016
1488507322.9040551186,1488507322.9064679146,        0.5805664062,        0.1220703125,       -0.2392578125,       -5.4016113281,       -6.7443847656,      -32.7758789062
1488507322.9067530632,1488507322.9091680050,        0.5805664062,        0.1220703125,       -0.2392578125,       -5.4016113281,       -6.7443847656,      -32.7758789062
1488507322.9094519615,1488507322.9119179249,        0.5805664062,        0.1220703125,       -0.2495117188,       -5.2947998047,       -7.0953369141,      -33.2489013672
1488507322.9122040272,1488507322.9146289825,        0.5844726562,        0.1362304688,       -0.2495117188,       -5.2947998047,       -7.0953369141,      -33.2489013672
1488507322.9149119854,1488507322.9173278809,        0.5844726562,        0.1362304688,       -0.2495117188,       -5.2795410156,       -7.4157714844,      -33.4777832031
1488507322.9176130295,1488507322.9200260639,        0.5844726562,        0.1362304688,       -0.2495117188,       -5.2795410156,       -7.4157714844,      -33.4777832031
1488507322.9204189777,1488507322.9228460789,        0.5908203125,        0.1494140625,       -0.2509765625,       -6.2561035156,       -7.6293945312,      -33.8592529297
1488507322.9231300354,1488507322.9255449772,        0.5908203125,        0.1494140625,       -0.2509765625,       -6.2561035156,       -7.6293945312,      -33.8592529297
1488507322.9258289337,1488507322.9283039570,        0.5908203125,        0.1494140625,       -0.2509765625,       -7.6751708984,       -7.1258544922,      -34.1186523438
1488507322.9285900593,1488507322.9310019016,        0.5908203125,        0.1494140625,       -0.2509765625,       -7.6751708984,       -7.1258544922,      -34.1186523438
1488507322.9317181110,1488507322.9340140820,        0.5908203125,        0.1201171875,       -0.2460937500,       -8.6975097656,       -7.6141357422,      -34.7747802734
1488507322.9342939854,1488507322.9365849495,        0.5908203125,        0.1201171875,       -0.2460937500,       -8.6975097656,       -7.6141357422,      -38.6810302734
1488507322.9368638992,1488507322.9391551018,        0.5908203125,        0.1201171875,       -0.2460937500,       -8.4381103516,       -8.0261230469,      -35.7055664062
1488507322.9394330978,1488507322.9417619705,        0.5908203125,        0.1201171875,       -0.2460937500,       -8.4381103516,       -8.0261230469,      -35.7055664062
1488507322.9420409203,1488507322.9443271160,        0.5849609375,        0.1181640625,       -0.2158203125,       -8.6669921875,       -8.8653564453,      -37.3992919922
1488507322.9446051121,1488507322.9468920231,        0.5849609375,        0.1181640625,       -0.2158203125,       -8.6669921875,       -8.8653564453,      -37.3992919922
1488507322.9471690655,1488507322.9494540691,        0.5849609375,        0.1181640625,       -0.2158203125,       -8.5449218750,       -9.2926025391,      -39.0014648438
1488507322.9497320652,1488507322.9520289898,        0.5849609375,        0.1181640625,       -0.2504882812,       -8.5449218750,       -9.2926025391,      -39.0014648438
1488507322.9523088932,1488507322.9545979500,        0.5839843750,        0.1040039062,       -0.2504882812,       -7.6293945312,       -9.7503662109,      -40.1916503906
1488507322.9548799992,1488507322.9571681023,        0.5839843750,        0.1040039062,       -0.2504882812,       -7.6293945312,       -9.7503662109,      -40.1916503906
1488507322.9574470520,1488507322.9597330093,        0.5839843750,        0.1040039062,       -0.2504882812,       -6.2255859375,      -10.2844238281,      -42.0379638672
1488507322.9600169659,1488507322.9624710083,        0.5839843750,        0.2290039062,       -0.2236328125,       -6.2255859375,      -10.2844238281,      -42.0379638672
1488507322.9627540112,1488507322.9650390148,        0.6044921875,        0.1376953125,       -0.2236328125,       -5.1574707031,      -10.6353759766,      -43.3502197266
1488507322.9653189182,1488507322.9676051140,        0.6044921875,        0.1376953125,       -0.2236328125,       -5.1574707031,      -10.6353759766,      -43.3502197266
1488507322.9678859711,1488507322.9701759815,        0.6044921875,        0.1376953125,       -0.2236328125,       -5.4626464844,      -10.6658935547,      -44.5404052734
1488507322.9704549313,1488507322.9728488922,        0.6044921875,        0.1655273438,       -0.2387695312,       -5.4626464844,      -10.6658935547,      -44.5404052734
1488507322.9731299877,1488507322.9754960537,        0.6054687500,        0.1655273438,       -0.2387695312,       -5.4626464844,      -10.7727050781,      -45.8374023438
1488507322.9757769108,1488507322.9780600071,        0.6054687500,        0.1655273438,       -0.2387695312,       -5.9356689453,      -10.7727050781,      -45.8374023438
1488507322.9783411026,1488507322.9806380272,        0.6054687500,        0.1655273438,       -0.2387695312,       -5.9356689453,      -10.7727050781,      -46.3562011719
1488507322.9809179306,1488507322.9834508896,        0.6035156250,        0.1762695312,       -0.2343750000,       -6.4239501953,      -11.0321044922,      -46.3562011719
1488507322.9838500023,1488507322.9861390591,        0.6035156250,        0.1762695312,       -0.2343750000,       -6.4239501953,      -11.0321044922,      -46.2799072266
1488507322.9864199162,1488507322.9887120724,        0.6035156250,        0.1762695312,       -0.2343750000,       -7.2021484375,      -11.5509033203,      -46.2799072266
1488507322.9889929295,1488507322.9912800789,        0.6035156250,        0.1762695312,       -0.2343750000,       -7.2021484375,      -11.5509033203,      -47.0886230469
1488507322.9915599823,1488507322.9939460754,        0.6064453125,        0.1826171875,       -0.2294921875,       -7.8735351562,      -11.7340087891,      -47.0886230469
1488507322.9942278862,1488507322.9965209961,        0.6064453125,        0.1826171875,       -0.2294921875,       -7.8735351562,      -11.7340087891,      -47.0886230469
1488507322.9968030453,1488507322.9999349117,        0.6064453125,        0.1826171875,       -0.2294921875,       -7.3394775391,      -11.6119384766,      -48.3398437500
1488507323.0002200603,1488507323.0026409626,        0.6064453125,        0.1826171875,       -0.2416992188,       -7.3394775391,      -11.1999511719,      -48.7823486328
1488507323.0029230118,1488507323.0052099228,        0.5961914062,        0.1899414062,       -0.2416992188,       -6.6833496094,      -11.1999511719,      -48.7823486328
1488507323.0054900646,1488507323.0077769756,        0.5961914062,        0.1899414062,       -0.2416992188,       -6.6833496094,      -11.1999511719,      -50.2319335938
1488507323.0080571175,1488507323.0103509426,        0.5961914062,        0.1899414062,       -0.2416992188,       -6.6528320312,      -10.9710693359,      -50.2319335938
1488507323.0106310844,1488507323.0129249096,        0.5961914062,        0.1899414062,       -0.2563476562,       -6.6528320312,      -10.9710693359,      -51.3763427734
1488507323.0132060051,1488507323.0154991150,        0.5820312500,        0.1757812500,       -0.2563476562,       -6.5612792969,      -10.8032226562,      -51.3763427734
1488507323.0157799721,1488507323.0180699825,        0.5820312500,        0.1757812500,       -0.2563476562,       -6.5612792969,      -10.8032226562,      -51.3763427734
1488507323.0183520317,1488507323.0206379890,        0.5820312500,        0.1757812500,       -0.2563476562,       -7.0953369141,      -10.4675292969,      -52.3223876953
1488507323.0209190845,1488507323.0232501030,        0.5820312500,        0.1962890625,       -0.2519531250,       -7.0953369141,      -10.4675292969,      -52.3223876953
1488507323.0235309601,1488507323.0258219242,        0.5815429688,        0.1962890625,       -0.2519531250,       -6.9885253906,      -10.0860595703,      -54.0161132812
1488507323.0261030197,1488507323.0283908844,        0.5815429688,        0.1962890625,       -0.2519531250,       -6.9885253906,      -10.0860595703,      -54.0161132812
1488507323.0286738873,1488507323.0309629440,        0.5815429688,        0.1962890625,       -0.2519531250,       -6.7138671875,      -10.0402832031,      -54.9468994141
1488507323.0312469006,1488507323.0335419178,        0.5815429688,        0.1831054688,       -0.2758789062,       -6.7138671875,      -10.0402832031,      -54.9468994141
1488507323.0338249207,1488507323.0361180305,        0.5922851562,        0.1831054688,       -0.2758789062,       -7.4615478516,       -9.4604492188,      -56.0760498047
1488507323.0363960266,1488507323.0386829376,        0.5922851562,        0.1831054688,       -0.2758789062,       -7.4615478516,       -9.4604492188,      -56.0760498047
1488507323.0389609337,1488507323.0412480831,        0.5922851562,        0.1831054688,       -0.2758789062,       -8.7280273438,       -8.8958740234,      -57.3577880859
1488507323.0415248871,1488507323.0439369678,        0.6010742188,        0.2250976562,       -0.2705078125,       -8.7280273438,       -8.8958740234,      -57.3577880859
1488507323.0442149639,1488507323.0465009212,        0.6010742188,        0.2250976562,       -0.2705078125,       -9.4757080078,       -9.2010498047,      -57.6019287109
1488507323.0468869209,1488507323.0491800308,        0.6010742188,        0.2250976562,       -0.2705078125,       -9.4757080078,       -9.2010498047,      -57.6019287109
1488507323.0494580269,1488507323.0518839359,        0.6010742188,        0.2250976562,       -0.2705078125,       -9.4757080078,       -9.5825195312,      -57.8002929688
1488507323.0521769524,1488507323.0544769764,        0.6240234375,        0.2260742188,       -0.2617187500,       -9.9029541016,       -9.5825195312,      -57.8002929688
1488507323.0547580719,1488507323.0570518970,        0.6240234375,        0.2260742188,       -0.2617187500,       -9.9029541016,       -9.3383789062,      -57.9071044922
1488507323.0573329926,1488507323.0596148968,        0.6240234375,        0.2260742188,       -0.2617187500,      -10.5438232422,       -9.3383789062,      -57.9071044922
1488507323.0598990917,1488507323.0621891022,        0.6240234375,        0.2260742188,       -0.2617187500,      -10.5438232422,       -9.3383789062,      -58.4106445312
1488507323.0624699593,1488507323.0647630692,        0.6557617188,        0.2338867188,       -0.2739257812,      -11.2457275391,       -9.0484619141,      -58.4106445312
1488507323.0650439262,1488507323.0673310757,        0.6557617188,        0.2338867188,       -0.2739257812,      -11.2457275391,       -9.0484619141,      -58.9294433594
1488507323.0676128864,1488507323.0699009895,        0.6557617188,        0.2338867188,       -0.2739257812,      -11.5509033203,       -9.1094970703,      -58.9294433594
1488507323.0701830387,1488507323.0725560188,        0.6557617188,        0.2338867188,       -0.2739257812,      -11.5509033203,       -9.1094970703,      -58.9294433594
1488507323.0728430748,1488507323.0752589703,        0.6738281250,        0.2636718750,       -0.2568359375,      -12.8326416016,       -9.1705322266,      -59.2956542969
1488507323.0755469799,1488507323.0779631138,        0.6738281250,        0.2636718750,       -0.2568359375,      -12.8326416016,       -9.1705322266,      -59.2956542969
1488507323.0782520771,1488507323.0806701183,        0.6738281250,        0.2636718750,       -0.2568359375,      -14.8925781250,       -8.7738037109,      -59.6313476562
1488507323.0809590816,1488507323.0833830833,        0.6738281250,        0.2636718750,       -0.2626953125,      -14.8925781250,       -8.7738037109,      -59.6313476562
1488507323.0836699009,1488507323.0860900879,        0.7197265625,        0.2504882812,       -0.2626953125,      -17.3492431641,       -7.8735351562,      -60.8215332031
1488507323.0863790512,1488507323.0887899399,        0.7197265625,        0.2504882812,       -0.2626953125,      -17.3492431641,       -7.8735351562,      -60.8215332031
1488507323.0890779495,1488507323.0914959908,        0.7197265625,        0.2504882812,       -0.2626953125,      -18.3868408203,       -8.9263916016,      -61.4776611328
1488507323.0917949677,1488507323.0942230225,        0.8447265625,        0.1909179688,       -0.2890625000,      -18.3868408203,       -8.9263916016,      -61.4776611328
1488507323.0945138931,1488507323.0969328880,        0.7587890625,        0.1909179688,       -0.2890625000,      -19.9890136719,      -10.7879638672,      -62.0574951172
1488507323.0972259045,1488507323.0996489525,        0.7587890625,        0.1909179688,       -0.2890625000,      -19.9890136719,      -10.7879638672,      -62.0574951172
1488507323.0999400616,1488507323.1023690701,        0.7587890625,        0.1909179688,       -0.2890625000,      -22.2473144531,      -11.4593505859,      -62.6068115234
1488507323.1026599407,1488507323.1050710678,        0.7910156250,        0.2314453125,       -0.2812500000,      -22.2473144531,      -11.4593505859,      -62.6068115234
1488507323.1053628922,1488507323.1078710556,        0.7910156250,        0.2314453125,       -0.2812500000,      -25.3448486328,      -11.3220214844,      -63.3087158203
1488507323.1081759930,1488507323.1105968952,        0.7910156250,        0.2314453125,       -0.2812500000,      -25.3448486328,      -11.3220214844,      -63.3087158203
1488507323.1109919548,1488507323.1138150692,        0.7910156250,        0.2314453125,       -0.2812500000,      -28.0761718750,      -10.9710693359,      -64.1326904297
1488507323.1141109467,1488507323.1165289879,        0.8095703125,        0.2622070312,       -0.2543945312,      -28.0761718750,      -10.9710693359,      -64.8498535156
1488507323.1168239117,1488507323.1192350388,        0.8095703125,        0.2622070312,       -0.2543945312,      -30.5328369141,      -10.5895996094,      -64.8498535156
1488507323.1195280552,1488507323.1219589710,        0.8095703125,        0.2622070312,       -0.2543945312,      -30.5328369141,      -10.5895996094,      -65.7196044922
1488507323.1222519875,1488507323.1246719360,        0.8505859375,        0.2124023438,       -0.2338867188,      -33.6608886719,      -10.0402832031,      -65.7196044922
1488507323.1249639988,1488507323.1273798943,        0.8505859375,        0.2124023438,       -0.2338867188,      -33.6608886719,      -10.0402832031,      -66.4978027344
1488507323.1276710033,1488507323.1300930977,        0.8505859375,        0.2124023438,       -0.2338867188,      -36.3311767578,       -9.2315673828,      -66.4978027344
1488507323.1303820610,1488507323.1328029633,        0.8505859375,        0.2124023438,       -0.2338867188,      -36.3311767578,       -9.2315673828,      -67.7947998047
1488507323.1330931187,1488507323.1355109215,        0.8857421875,        0.2202148438,       -0.2167968750,      -36.9110107422,       -8.7280273438,      -67.7947998047
1488507323.1357998848,1488507323.1382091045,        0.8857421875,        0.2202148438,       -0.2167968750,      -36.9110107422,       -8.7280273438,      -69.5190429688
1488507323.1384990215,1488507323.1409120560,        0.8857421875,        0.2202148438,       -0.2167968750,      -37.8265380859,       -8.0108642578,      -69.5190429688
1488507323.1412000656,1488507323.1435360909,        0.8857421875,        0.2202148438,       -0.2167968750,      -37.8265380859,       -8.0108642578,      -73.4252929688
1488507323.1438200474,1488507323.1461141109,        0.9277343750,        0.1723632812,       -0.1884765625,      -39.2913818359,       -7.1563720703,      -71.5484619141
1488507323.1463959217,1488507323.1486890316,        0.9277343750,        0.1723632812,       -0.1884765625,      -39.2913818359,       -7.1563720703,      -71.5484619141
1488507323.1489710808,1488507323.1512629986,        0.9277343750,        0.1723632812,       -0.1884765625,      -40.4357910156,       -6.7291259766,      -74.0203857422
1488507323.1515450478,1488507323.1538610458,        0.9277343750,        0.1723632812,       -0.1884765625,      -40.4357910156,       -6.7291259766,      -74.0203857422
1488507323.1541430950,1488507323.1564400196,        0.9487304688,        0.0839843750,       -0.1831054688,      -41.3513183594,       -6.2866210938,      -76.8127441406
1488507323.1567230225,1488507323.1590139866,        0.9487304688,        0.0839843750,       -0.1831054688,      -41.3513183594,       -6.2866210938,      -76.8127441406
1488507323.1592960358,1488507323.1615910530,        0.9487304688,        0.0839843750,       -0.1831054688,      -39.6575927734,       -6.4392089844,      -79.7424316406
1488507323.1620640755,1488507323.1643650532,        0.9487304688,        0.0839843750,       -0.1894531250,      -39.6575927734,       -6.4392089844,      -79.7424316406
1488507323.1646471024,1488507323.1669390202,        0.9653320312,        0.0366210938,       -0.1894531250,      -37.0941162109,       -7.2784423828,      -83.0078125000
1488507323.1672210693,1488507323.1695148945,        0.9653320312,        0.0366210938,       -0.1894531250,      -37.0941162109,       -7.2784423828,      -83.0078125000
1488507323.1697969437,1488507323.1722469330,        0.9653320312,        0.0366210938,       -0.1894531250,      -34.7137451172,       -7.6293945312,      -86.8225097656
1488507323.1725380421,1488507323.1749579906,        0.9653320312,       -0.0390625000,       -0.1855468750,      -34.7137451172,       -7.6293945312,      -86.8225097656
1488507323.1752490997,1488507323.1776750088,        0.9892578125,       -0.0390625000,       -0.1855468750,      -32.4707031250,       -7.8125000000,      -90.7440185547
1488507323.1780750751,1488507323.1804931164,        0.9892578125,       -0.0390625000,       -0.1855468750,      -32.4707031250,       -7.8125000000,      -90.7440185547
1488507323.1807839870,1488507323.1832149029,        0.9892578125,       -0.0390625000,       -0.1855468750,      -31.0363769531,       -8.2550048828,      -94.5892333984
1488507323.1835050583,1488507323.1859269142,        1.0043945312,       -0.1025390625,       -0.2128906250,      -31.0363769531,       -8.2550048828,      -94.5892333984
1488507323.1862170696,1488507323.1886320114,        1.0043945312,       -0.1025390625,       -0.2128906250,      -29.0222167969,       -9.3994140625,      -98.4954833984
1488507323.1889209747,1488507323.1913421154,        1.0043945312,       -0.1025390625,       -0.2128906250,      -29.0222167969,       -9.3994140625,      -98.4954833984
1488507323.1916310787,1488507323.1939339638,        1.0043945312,       -0.1025390625,       -0.2128906250,      -28.4118652344,      -11.5661621094,     -101.5930175781
1488507323.1942191124,1488507323.1965138912,        1.0131835938,       -0.1220703125,       -0.2387695312,      -28.4118652344,      -11.5661621094,     -101.5930175781
1488507323.1967980862,1488507323.1990931034,        1.0131835938,       -0.1220703125,       -0.2387695312,      -30.2124023438,      -14.6636962891,     -104.1259765625
1488507323.1993780136,1488507323.2017099857,        1.0131835938,       -0.1220703125,       -0.2387695312,      -30.2124023438,      -14.6636962891,     -104.1259765625
1488507323.2020030022,1488507323.2044188976,        1.0131835938,       -0.1220703125,       -0.3637695312,      -33.7677001953,      -18.0511474609,     -107.0098876953
1488507323.2047109604,1488507323.2071340084,        1.0146484375,       -0.1713867188,       -0.2573242188,      -33.7677001953,      -18.0511474609,     -107.0098876953
1488507323.2074289322,1488507323.2098488808,        1.0146484375,       -0.1713867188,       -0.2573242188,      -38.0401611328,      -21.7285156250,     -109.8480224609
1488507323.2101390362,1488507323.2125680447,        1.0146484375,       -0.1713867188,       -0.2573242188,      -38.0401611328,      -21.7285156250,     -109.8480224609
1488507323.2128601074,1488507323.2152800560,        1.0146484375,       -0.2065429688,       -0.2470703125,      -42.1752929688,      -24.6276855469,     -111.9384765625
1488507323.2155699730,1488507323.2179849148,        1.0380859375,       -0.2065429688,       -0.2470703125,      -42.1752929688,      -24.6276855469,     -111.9384765625
1488507323.2182750702,1488507323.2207009792,        1.0380859375,       -0.2065429688,       -0.2470703125,      -49.0875244141,      -27.1301269531,     -113.5253906250
1488507323.2209939957,1488507323.2234230042,        1.0380859375,       -0.2065429688,       -0.2470703125,      -49.0875244141,      -27.1301269531,     -113.5253906250
1488507323.2237160206,1488507323.2261240482,        1.0424804688,       -0.1743164062,       -0.2548828125,      -57.7087402344,      -29.5715332031,     -115.0054931641
1488507323.2264149189,1488507323.2290270329,        1.0424804688,       -0.1743164062,       -0.2548828125,      -57.7087402344,      -29.5715332031,     -115.0054931641
1488507323.2293200493,1488507323.2317399979,        1.0424804688,       -0.1743164062,       -0.2548828125,      -66.5283203125,      -31.9366455078,     -115.9057617188
1488507323.2324230671,1488507323.2348530293,        1.0424804688,       -0.1743164062,       -0.3022460938,      -66.5283203125,      -31.9366455078,     -115.9057617188
1488507323.2351469994,1488507323.2375640869,        1.0625000000,       -0.1386718750,       -0.3022460938,      -76.4923095703,      -33.9202880859,     -116.7144775391
1488507323.2378571033,1488507323.2402739525,        1.0625000000,       -0.1386718750,       -0.3022460938,      -76.4923095703,      -33.9202880859,     -116.7144775391
1488507323.2405650616,1488507323.2429420948,        1.0625000000,       -0.1386718750,       -0.3022460938,      -87.3413085938,      -35.8886718750,     -117.7978515625
1488507323.2433350086,1488507323.2456259727,        1.0625000000,       -0.1040039062,       -0.3085937500,      -87.3413085938,      -35.8886718750,     -117.7978515625
1488507323.2459130287,1488507323.2482120991,        1.1069335938,       -0.1040039062,       -0.3085937500,      -93.0023193359,      -36.3922119141,     -121.0021972656
1488507323.2484979630,1488507323.2507879734,        1.1069335938,       -0.1040039062,       -0.3085937500,      -93.0023193359,      -36.3922119141,     -121.0021972656
1488507323.2510750294,1488507323.2534189224,        1.1069335938,       -0.1040039062,       -0.3085937500,      -91.1102294922,      -33.4472656250,     -126.6632080078
1488507323.2537050247,1488507323.2560060024,        1.1489257812,       -0.1669921875,       -0.4213867188,      -91.1102294922,      -33.4472656250,     -126.6632080078
1488507323.2562890053,1488507323.2585759163,        1.1489257812,       -0.1669921875,       -0.4213867188,      -83.2977294922,      -33.5540771484,     -134.1400146484
1488507323.2588589191,1488507323.2611529827,        1.1489257812,       -0.1669921875,       -0.4213867188,      -85.8917236328,      -33.5540771484,     -134.1400146484
1488507323.2614359856,1488507323.2637341022,        1.1489257812,       -0.1669921875,       -0.4213867188,      -85.8917236328,      -37.4603271484,     -143.1732177734
1488507323.2640171051,1488507323.2663040161,        1.1308593750,       -0.2509765625,       -0.4165039062,      -77.5299072266,      -35.5377197266,     -143.1732177734
1488507323.2665901184,1488507323.2688870430,        1.1308593750,       -0.2509765625,       -0.4165039062,      -77.5299072266,      -35.5377197266,     -151.6876220703
1488507323.2691709995,1488507323.2714569569,        1.1308593750,       -0.2509765625,       -0.4165039062,      -62.8204345703,      -35.6750488281,     -151.6876220703
1488507323.2717559338,1488507323.2740449905,        1.1308593750,       -0.2509765625,       -0.4165039062,      -62.8204345703,      -35.6750488281,     -159.5001220703
1488507323.2743299007,1488507323.2766149044,        0.9926757812,       -0.3105468750,       -0.4262695312,      -45.7458496094,      -38.1317138672,     -156.7077636719
1488507323.2769019604,1488507323.2791900635,        0.9926757812,       -0.3105468750,       -0.4262695312,      -45.7458496094,      -38.1317138672,     -156.7077636719
1488507323.2794759274,1488507323.2819240093,        0.9926757812,       -0.3105468750,       -0.4262695312,      -32.9132080078,      -41.2902832031,     -155.4870605469
1488507323.2822299004,1488507323.2845330238,        0.9926757812,       -0.3105468750,       -0.4262695312,      -32.9132080078,      -41.2902832031,     -155.4870605469
1488507323.2848188877,1488507323.2871038914,        0.9291992188,       -0.1381835938,       -0.3989257812,      -24.7344970703,      -41.8548583984,     -151.7639160156
1488507323.2873880863,1488507323.2896749973,        0.9291992188,       -0.1381835938,       -0.3989257812,      -24.7344970703,      -41.8548583984,     -151.7639160156
1488507323.2899580002,1488507323.2923989296,        0.9291992188,       -0.1381835938,       -0.3989257812,      -21.3012695312,      -42.1905517578,     -147.6898193359
1488507323.2926850319,1488507323.2949709892,        0.9291992188,       -0.1381835938,       -0.3989257812,      -21.3012695312,      -42.1905517578,     -147.6898193359
1488507323.2952549458,1488507323.2975480556,        0.8789062500,       -0.1132812500,       -0.3691406250,      -27.1148681641,      -41.5191650391,     -139.7399902344
1488507323.2978329659,1488507323.3001170158,        0.8789062500,       -0.1132812500,       -0.3691406250,      -27.1148681641,      -41.5191650391,     -139.7399902344
1488507323.3004031181,1488507323.3026900291,        0.8789062500,       -0.1132812500,       -0.3691406250,      -39.7796630859,      -36.7126464844,     -128.2958984375
1488507323.3029739857,1488507323.3052649498,        0.8789062500,       -0.1132812500,       -0.2441406250,      -39.7796630859,      -36.7126464844,     -128.2958984375
1488507323.3056540489,1488507323.3079400063,        0.8774414062,        0.0083007812,       -0.2187500000,      -51.7578125000,      -28.7933349609,     -119.0795898438
1488507323.3082270622,1488507323.3105170727,        0.8774414062,        0.0083007812,       -0.2187500000,      -51.7578125000,      -28.7933349609,     -119.0795898438
1488507323.3108019829,1488507323.3131840229,        0.8774414062,        0.0083007812,       -0.2187500000,      -58.4869384766,      -21.7590332031,     -114.9902343750
1488507323.3134779930,1488507323.3158960342,        0.8774414062,        0.0083007812,       -0.1767578125,      -58.4869384766,      -21.7590332031,     -114.9902343750
1488507323.3161890507,1488507323.3186099529,        0.7827148438,        0.0898437500,       -0.1767578125,      -58.4869384766,      -19.7143554688,     -113.9526367188
1488507323.3189020157,1488507323.3213179111,        0.7827148438,        0.0898437500,       -0.1767578125,      -56.2744140625,      -19.7143554688,     -113.9526367188
1488507323.3216130733,1488507323.3239068985,        0.7827148438,        0.0898437500,       -0.1767578125,      -44.5556640625,      -23.2238769531,     -114.0441894531
1488507323.3241920471,1488507323.3264839649,        0.5288085938,        0.3291015625,       -0.3779296875,      -46.0815429688,      -23.2238769531,     -114.0441894531
1488507323.3267669678,1488507323.3290600777,        0.5288085938,        0.3291015625,       -0.3779296875,      -46.0815429688,      -31.0363769531,     -111.8469238281
1488507323.3293449879,1488507323.3316440582,        0.5288085938,        0.3291015625,       -0.3779296875,      -35.4766845703,      -30.9295654297,     -111.8469238281
1488507323.3319909573,1488507323.3342831135,        0.5288085938,        0.3291015625,       -0.3779296875,      -35.4766845703,      -30.9295654297,      -99.3194580078
1488507323.3345649242,1488507323.3368608952,        0.2197265625,        0.5224609375,       -0.5087890625,      -28.6254882812,      -42.0837402344,      -99.3194580078
1488507323.3371460438,1488507323.3394410610,        0.2197265625,        0.5224609375,       -0.5087890625,      -28.6254882812,      -42.0837402344,      -75.8819580078
1488507323.3397250175,1488507323.3420391083,        0.2197265625,        0.5224609375,       -0.5087890625,      -29.9072265625,      -53.5888671875,      -75.5462646484
1488507323.3423290253,1488507323.3447320461,        0.2197265625,        0.5224609375,       -0.5087890625,      -29.9072265625,      -53.5888671875,      -75.5462646484
1488507323.3450200558,1488507323.3474249840,        0.3037109375,        0.3686523438,       -0.4389648438,      -37.1246337891,      -60.6842041016,      -52.8106689453
1488507323.3477609158,1488507323.3502800465,        0.3037109375,        0.3686523438,       -0.4389648438,      -37.1246337891,      -60.6842041016,      -37.1856689453
1488507323.3505721092,1488507323.3532490730,        0.3037109375,        0.3686523438,       -0.4389648438,      -38.4674072266,      -64.3615722656,      -36.9262695312
1488507323.3535430431,1488507323.3559470177,        0.3037109375,        0.3686523438,       -0.3159179688,      -38.4674072266,      -64.3615722656,      -20.3399658203
1488507323.3562378883,1488507323.3586359024,        0.3559570312,       -0.0019531250,       -0.3159179688,      -41.0461425781,      -66.1010742188,      -20.3399658203
1488507323.3589279652,1488507323.3613269329,        0.3559570312,       -0.0019531250,       -0.3159179688,      -41.0461425781,      -66.1010742188,        0.7629394531
1488507323.3616158962,1488507323.3640000820,        0.3559570312,       -0.0019531250,       -0.3159179688,      -54.2449951172,      -61.3708496094,        0.7629394531
1488507323.3643109798,1488507323.3669989109,        0.3559570312,       -0.4780273438,       -0.0844726562,      -54.2449951172,      -61.3708496094,       21.7437744141
1488507323.3672928810,1488507323.3697109222,        0.3369140625,       -0.4780273438,       -0.0844726562,      -72.9675292969,      -47.6531982422,       21.7437744141
1488507323.3701229095,1488507323.3725540638,        0.3369140625,       -0.4780273438,       -0.0844726562,      -72.9675292969,      -32.0281982422,       40.4357910156
1488507323.3728458881,1488507323.3752698898,        0.3369140625,       -0.4780273438,       -0.0844726562,      -83.6181640625,      -33.6456298828,       40.4357910156
1488507323.3755640984,1488507323.3779799938,        0.2622070312,       -0.5644531250,        0.1025390625,      -83.6181640625,      -25.8331298828,       55.7403564453
1488507323.3782720566,1488507323.3806869984,        0.2622070312,       -0.5644531250,        0.1025390625,      -77.0874023438,      -24.8413085938,       55.7403564453
1488507323.3809800148,1488507323.3833310604,        0.2622070312,       -0.5644531250,        0.1025390625,      -77.0874023438,      -24.8413085938,       68.2830810547
1488507323.3836181164,1488507323.3859059811,        0.2622070312,       -0.5644531250,        0.1025390625,      -58.9447021484,      -20.8740234375,       68.2830810547
1488507323.3861920834,1488507323.3884899616,        0.1938476562,       -0.5913085938,        0.1040039062,      -58.9447021484,      -20.8740234375,       80.0018310547
1488507323.3887751102,1488507323.3910679817,        0.1938476562,       -0.5913085938,        0.1040039062,      -36.7126464844,      -19.3939208984,       79.0405273438
1488507323.3913519382,1488507323.3936669827,        0.1938476562,       -0.5913085938,        0.1040039062,      -36.7126464844,      -19.3939208984,       79.0405273438
1488507323.3939540386,1488507323.3962490559,        0.1938476562,       -0.5913085938,        0.0688476562,      -13.8092041016,      -18.9361572266,       89.1723632812
1488507323.3965330124,1488507323.3988220692,        0.1875000000,       -0.5200195312,        0.0688476562,      -13.8092041016,      -18.9361572266,       89.1723632812
1488507323.3991069794,1488507323.4013979435,        0.1875000000,       -0.5200195312,        0.0688476562,       10.9252929688,      -19.4549560547,       98.3734130859
1488507323.4018280506,1488507323.4041340351,        0.1875000000,       -0.5200195312,        0.0688476562,       10.9252929688,      -19.4549560547,       98.3734130859
1488507323.4044198990,1488507323.4067130089,        0.1875000000,       -0.3950195312,       -0.0180664062,       36.3464355469,      -20.4467773438,      107.4981689453
1488507323.4069991112,1488507323.4092969894,        0.2148437500,       -0.3779296875,       -0.0180664062,       36.3464355469,      -20.4467773438,      107.4981689453
1488507323.4095818996,1488507323.4120280743,        0.2148437500,       -0.3779296875,       -0.0180664062,       59.2956542969,      -21.7132568359,      116.2261962891
1488507323.4123229980,1488507323.4147450924,        0.2148437500,       -0.3779296875,       -0.0180664062,       59.2956542969,      -21.7132568359,      116.2261962891
1488507323.4150369167,1488507323.4174571037,        0.2983398438,       -0.2109375000,       -0.0874023438,       76.7059326172,      -21.2249755859,      125.2899169922
1488507323.4177498817,1488507323.4201700687,        0.2983398438,       -0.2109375000,       -0.0874023438,       76.7059326172,      -21.2249755859,      125.2899169922
1488507323.4204609394,1488507323.4229209423,        0.2983398438,       -0.2109375000,       -0.0874023438,       89.2791748047,      -19.2718505859,      134.9639892578
1488507323.4232130051,1488507323.4256339073,        0.2983398438,       -0.2109375000,       -0.0874023438,       89.2791748047,      -19.2718505859,      134.9639892578
1488507323.4259290695,1488507323.4283459187,        0.4028320312,       -0.0625000000,       -0.0844726562,       97.3815917969,      -15.9454345703,      145.5078125000
1488507323.4286389351,1488507323.4310569763,        0.4028320312,       -0.0625000000,       -0.0844726562,       97.3815917969,      -15.9454345703,      145.5078125000
1488507323.4313490391,1488507323.4336740971,        0.4028320312,       -0.0625000000,       -0.0844726562,      100.7080078125,      -10.5895996094,      155.6091308594
1488507323.4340689182,1488507323.4363620281,        0.4028320312,       -0.0625000000,       -0.0844726562,      100.7080078125,      -10.5895996094,      155.6091308594
1488507323.4366490841,1488507323.4389441013,        0.4663085938,        0.0253906250,       -0.0361328125,      101.0437011719,       -5.0048828125,      165.4510498047
1488507323.4392259121,1488507323.4415180683,        0.4663085938,        0.0253906250,       -0.0361328125,      101.0437011719,       -5.0048828125,      165.4510498047
1488507323.4418060780,1488507323.4442160130,        0.4663085938,        0.0253906250,       -0.0361328125,      100.0518798828,        0.1678466797,      175.5676269531
1488507323.4445080757,1488507323.4469299316,        0.4663085938,        0.0253906250,       -0.0019531250,      100.0518798828,        0.1678466797,      175.5676269531
1488507323.4472219944,1488507323.4496409893,        0.5029296875,        0.0483398438,       -0.0019531250,       98.1445312500,        5.5694580078,      185.4400634766
1488507323.4499299526,1488507323.4523630142,        0.5029296875,        0.0483398438,       -0.0019531250,       98.1445312500,        5.5694580078,      185.4400634766
1488507323.4526529312,1488507323.4550650120,        0.5029296875,        0.0483398438,       -0.0019531250,       94.8333740234,       11.5814208984,      194.9005126953
1488507323.4553589821,1488507323.4577789307,        0.5029296875,        0.0327148438,        0.0209960938,       94.8333740234,       11.5814208984,      194.9005126953
1488507323.4580719471,1488507323.4604940414,        0.5341796875,        0.0327148438,        0.0209960938,       91.9799804688,       16.4489746094,      203.4912109375
1488507323.4607861042,1488507323.4632160664,        0.5341796875,        0.0327148438,        0.0209960938,       91.9799804688,       16.4489746094,      203.4912109375
1488507323.4635090828,1488507323.4659318924,        0.5341796875,        0.0327148438,        0.0209960938,       90.1184082031,       21.6217041016,      211.8682861328
1488507323.4662230015,1488507323.4688110352,        0.5620117188,       -0.0063476562,       -0.0034179688,       90.1184082031,       21.6217041016,      211.8682861328
1488507323.4691059589,1488507323.4715108871,        0.5620117188,       -0.0063476562,       -0.0034179688,       87.1276855469,       25.4516601562,      220.6573486328
1488507323.4722049236,1488507323.4745030403,        0.5620117188,       -0.0063476562,       -0.0034179688,       87.1276855469,       25.4516601562,      220.6573486328
1488507323.4747920036,1488507323.4770851135,        0.5620117188,       -0.0063476562,       -0.0883789062,       82.5653076172,       29.2053222656,      229.3701171875
1488507323.4773700237,1488507323.4796609879,        0.5805664062,        0.0009765625,       -0.0883789062,       82.5653076172,       29.2053222656,      229.3701171875
1488507323.4799458981,1488507323.4823238850,        0.5805664062,        0.0009765625,       -0.0883789062,       75.8209228516,       33.3404541016,      238.5711669922
1488507323.4826180935,1488507323.4850370884,        0.5805664062,        0.0009765625,       -0.0883789062,       75.8209228516,       33.3404541016,      238.5711669922
1488507323.4853301048,1488507323.4877500534,        0.5805664062,        0.0463867188,       -0.1591796875,       66.4520263672,       37.6739501953,      247.3144531250
1488507323.4880449772,1488507323.4904611111,        0.6416015625,        0.0463867188,       -0.1591796875,       66.4520263672,       37.6739501953,      247.3144531250
1488507323.4907519817,1488507323.4931840897,        0.6416015625,        0.0463867188,       -0.1591796875,       56.4880371094,       42.2973632812,      255.2795410156
1488507323.4934759140,1488507323.4958970547,        0.6416015625,        0.0463867188,       -0.1591796875,       56.4880371094,       42.2973632812,      255.2795410156
1488507323.4961879253,1488507323.4986040592,        0.6972656250,        0.0991210938,       -0.1743164062,       48.3551025391,       45.2880859375,      263.0157470703
1488507323.4990079403,1488507323.5014240742,        0.6972656250,        0.0991210938,       -0.1743164062,       48.3551025391,       45.2880859375,      263.0157470703
1488507323.5017259121,1488507323.5040209293,        0.6972656250,        0.0991210938,       -0.1743164062,       41.1224365234,       46.8292236328,      270.5078125000
1488507323.5043060780,1488507323.5065970421,        0.6972656250,        0.0991210938,       -0.1743164062,       41.1224365234,       46.8292236328,      270.5078125000
1488507323.5068809986,1488507323.5091800690,        0.7792968750,        0.1450195312,       -0.1430664062,       36.0717773438,       48.5076904297,      276.8096923828
1488507323.5094640255,1488507323.5117559433,        0.7792968750,        0.1450195312,       -0.1430664062,       36.0717773438,       48.5076904297,      276.8096923828
1488507323.5120420456,1488507323.5143289566,        0.7792968750,        0.1450195312,       -0.1430664062,       32.1655273438,       51.4221191406,      281.3110351562
1488507323.5146129131,1488507323.5169129372,        0.7792968750,        0.1450195312,       -0.1430664062,       31.9671630859,       51.4221191406,      281.3110351562
1488507323.5171968937,1488507323.5194880962,        0.8437500000,        0.2041015625,       -0.1547851562,       31.9671630859,       51.4221191406,      285.0646972656
1488507323.5197720528,1488507323.5222129822,        0.8437500000,        0.2041015625,       -0.1547851562,       27.8778076172,       53.9855957031,      285.0646972656
1488507323.5224959850,1488507323.5247969627,        0.8437500000,        0.2041015625,       -0.1547851562,       27.8778076172,       53.9855957031,      289.2150878906
1488507323.5250809193,1488507323.5273730755,        0.8437500000,        0.2041015625,       -0.1547851562,       21.7437744141,       55.2062988281,      289.2150878906
1488507323.5276589394,1488507323.5299539566,        0.8950195312,        0.2133789062,       -0.1967773438,       21.7437744141,       55.2062988281,      293.1213378906
1488507323.5302379131,1488507323.5326681137,        0.8950195312,        0.2133789062,       -0.1967773438,       14.9841308594,       56.1523437500,      293.7774658203
1488507323.5329608917,1488507323.5353620052,        0.8950195312,        0.2133789062,       -0.1967773438,       14.9841308594,       56.1523437500,      297.6837158203
1488507323.5356519222,1488507323.5380620956,        0.8950195312,        0.2133789062,       -0.2373046875,        9.2315673828,       57.3120117188,      298.5382080078
1488507323.5383489132,1488507323.5407509804,        0.9804687500,        0.1899414062,       -0.2373046875,        9.2315673828,       57.3120117188,      302.4444580078
1488507323.5410389900,1488507323.5434880257,        0.9804687500,        0.1899414062,       -0.2373046875,        6.1492919922,       58.4106445312,      302.7496337891
1488507323.5437760353,1488507323.5461781025,        0.9804687500,        0.1899414062,       -0.2373046875,        6.1492919922,       58.4106445312,      302.7496337891
1488507323.5464649200,1488507323.5488600731,        1.0605468750,        0.1806640625,       -0.2255859375,        6.0119628906,       59.2803955078,      306.7321777344
1488507323.5491468906,1488507323.5515570641,        1.0605468750,        0.1806640625,       -0.2255859375,        6.0119628906,       59.2803955078,      306.7321777344
1488507323.5518429279,1488507323.5542469025,        1.0605468750,        0.1806640625,       -0.2255859375,        8.0108642578,       60.1959228516,      309.9365234375
1488507323.5545339584,1488507323.5569379330,        1.0605468750,        0.1806640625,       -0.2255859375,        8.0108642578,       60.1959228516,      309.9365234375
1488507323.5572240353,1488507323.5596330166,        1.0903320312,        0.2167968750,       -0.2055664062,       11.9323730469,       61.3403320312,      312.7136230469
1488507323.5599250793,1488507323.5623369217,        1.0903320312,        0.2167968750,       -0.2055664062,       11.9323730469,       61.3403320312,      312.7136230469
1488507323.5627350807,1488507323.5651350021,        1.0903320312,        0.2167968750,       -0.2055664062,       16.4489746094,       61.9964599609,      314.9108886719
1488507323.5654239655,1488507323.5678279400,        1.0903320312,        0.2167968750,       -0.2055664062,       16.4489746094,       61.9964599609,      314.9108886719
1488507323.5681180954,1488507323.5705170631,        1.0888671875,        0.2250976562,       -0.2207031250,       20.1416015625,       61.8133544922,      316.6198730469
1488507323.5708060265,1488507323.5732181072,        1.0888671875,        0.2250976562,       -0.2207031250,       20.1416015625,       61.8133544922,      316.6198730469
1488507323.5735099316,1488507323.5759129524,        1.0888671875,        0.2250976562,       -0.2207031250,       25.0091552734,       61.7370605469,      318.8171386719
1488507323.5762019157,1488507323.5786080360,        1.0888671875,        0.1713867188,       -0.2236328125,       25.0091552734,       61.7370605469,      318.8171386719
1488507323.5788960457,1488507323.5813040733,        1.1391601562,        0.1713867188,       -0.2236328125,       32.4859619141,       61.7828369141,      320.5718994141
1488507323.5815930367,1488507323.5840179920,        1.1391601562,        0.1713867188,       -0.2236328125,       32.4859619141,       61.7828369141,      320.5718994141
1488507323.5843091011,1488507323.5867230892,        1.1391601562,        0.1713867188,       -0.2236328125,       41.4886474609,       62.0117187500,      320.9533691406
1488507323.5870161057,1488507323.5896470547,        1.2182617188,        0.1953125000,       -0.2446289062,       41.4886474609,       62.0117187500,      320.9533691406
1488507323.5899419785,1488507323.5923559666,        1.2182617188,        0.1953125000,       -0.2446289062,       49.5758056641,       61.8133544922,      320.1141357422
1488507323.5934000015,1488507323.5956950188,        1.2182617188,        0.1953125000,       -0.2446289062,       49.5758056641,       61.8133544922,      318.4967041016
1488507323.5959820747,1488507323.5982689857,        1.2182617188,        0.1953125000,       -0.2573242188,       56.7779541016,       61.3708496094,      318.4967041016
1488507323.5985538960,1488507323.6008489132,        1.3032226562,        0.3090820312,       -0.2573242188,       56.7779541016,       61.3708496094,      317.0166015625
1488507323.6011331081,1488507323.6034998894,        1.3032226562,        0.3090820312,       -0.2573242188,       62.5305175781,       61.9049072266,      317.0166015625
1488507323.6037828922,1488507323.6060750484,        1.3032226562,        0.3090820312,       -0.2573242188,       62.5305175781,       61.9049072266,      313.1103515625
1488507323.6063590050,1488507323.6086509228,        1.3032226562,        0.4340820312,       -0.2753906250,       66.5435791016,       62.7746582031,      313.9495849609
1488507323.6089351177,1488507323.6112248898,        1.3149414062,        0.4331054688,       -0.2753906250,       66.5435791016,       62.7746582031,      313.9495849609
1488507323.6115109921,1488507323.6138520241,        1.3149414062,        0.4331054688,       -0.2753906250,       68.8934326172,       63.5528564453,      308.5174560547
1488507323.6141359806,1488507323.6164329052,        1.3149414062,        0.4331054688,       -0.2753906250,       68.8934326172,       63.5528564453,      308.5174560547
1488507323.6167159081,1488507323.6190099716,        1.3149414062,        0.5224609375,       -0.2661132812,       71.2738037109,       64.4683837891,      300.8575439453
1488507323.6192948818,1488507323.6215860844,        1.2895507812,        0.5224609375,       -0.2661132812,       71.2738037109,       64.4683837891,      300.8575439453
1488507323.6219389439,1488507323.6242280006,        1.2895507812,        0.5224609375,       -0.2661132812,       75.9887695312,       65.5212402344,      291.2597656250
1488507323.6245119572,1488507323.6268029213,        1.2895507812,        0.5224609375,       -0.2661132812,       75.9887695312,       65.5212402344,      291.2597656250
1488507323.6272010803,1488507323.6294949055,        1.3369140625,        0.4946289062,       -0.3081054688,       84.3048095703,       65.1855468750,      281.9824218750
1488507323.6297769547,1488507323.6321649551,        1.3369140625,        0.4946289062,       -0.3081054688,       84.3048095703,       65.1855468750,      281.9824218750
1488507323.6324510574,1488507323.6347448826,        1.3369140625,        0.4946289062,       -0.3081054688,       92.1325683594,       64.5599365234,      269.1192626953
1488507323.6350290775,1488507323.6373219490,        1.3369140625,        0.4946289062,       -0.3081054688,       92.1325683594,       64.5599365234,      269.1192626953
1488507323.6376070976,1488507323.6398940086,        1.3520507812,        0.6391601562,       -0.3012695312,       99.8535156250,       66.5740966797,      248.4741210938
1488507323.6401789188,1488507323.6426520348,        1.3520507812,        0.6391601562,       -0.3012695312,       99.8535156250,       66.5740966797,      248.4741210938
1488507323.6429409981,1488507323.6452369690,        1.3520507812,        0.6391601562,       -0.3012695312,      110.7788085938,       68.4356689453,      227.5238037109
1488507323.6455230713,1488507323.6478190422,        1.3520507812,        0.6391601562,       -0.3012695312,      110.7788085938,       68.4356689453,      227.5238037109
1488507323.6481039524,1488507323.6504058838,        1.1591796875,        0.6748046875,       -0.4155273438,      110.7788085938,       68.1610107422,      210.7696533203
1488507323.6506900787,1488507323.6532509327,        1.1591796875,        0.6748046875,       -0.4155273438,      123.6724853516,       68.1610107422,      210.7696533203
1488507323.6535439491,1488507323.6559300423,        1.1591796875,        0.6748046875,       -0.4155273438,      135.3912353516,       61.2945556641,      196.8231201172
1488507323.6562190056,1488507323.6586089134,        1.1591796875,        0.6748046875,       -0.5405273438,      134.5367431641,       61.2945556641,      196.8231201172
1488507323.6588990688,1488507323.6614658833,        0.8906250000,        0.6831054688,       -0.6157226562,      134.5367431641,       49.1485595703,      181.4575195312
1488507323.6617810726,1488507323.6641891003,        0.8906250000,        0.6831054688,       -0.6157226562,      142.5323486328,       49.1485595703,      181.4575195312
1488507323.6644821167,1488507323.6668620110,        0.8906250000,        0.6831054688,       -0.6157226562,      142.5323486328,       37.1246337891,      163.6657714844
1488507323.6671528816,1488507323.6695339680,        0.8906250000,        1.0517578125,       -0.7553710938,      143.5241699219,       37.1246337891,      163.6657714844
1488507323.6698250771,1488507323.6722700596,        0.6606445312,        1.0517578125,       -0.7553710938,      143.5241699219,       28.2135009766,      142.9595947266
1488507323.6725549698,1488507323.6748449802,        0.6606445312,        1.0517578125,       -0.7553710938,      135.3912353516,       28.2135009766,      142.9595947266
1488507323.6751270294,1488507323.6774189472,        0.6606445312,        1.0517578125,       -0.7553710938,      135.3912353516,       16.4947509766,      120.6512451172
1488507323.6777029037,1488507323.6799979210,        0.5234375000,        1.4916992188,       -0.7314453125,      118.9270019531,       18.2952880859,      120.6512451172
1488507323.6802830696,1488507323.6826360226,        0.5234375000,        1.4916992188,       -0.7314453125,      118.9270019531,       18.2952880859,       96.8017578125
1488507323.6829280853,1488507323.6853499413,        0.5234375000,        1.4916992188,       -0.7314453125,       96.9085693359,        7.5378417969,       96.8017578125
1488507323.6856379509,1488507323.6880500317,        0.5234375000,        1.4916992188,       -0.7314453125,       96.9085693359,        7.5378417969,       70.7092285156
1488507323.6883380413,1488507323.6907489300,        0.4780273438,        1.5488281250,       -0.7456054688,       73.5015869141,       -1.4648437500,       70.7092285156
1488507323.6911470890,1488507323.6935861111,        0.4780273438,        1.5488281250,       -0.7456054688,       73.5015869141,       -1.4648437500,       42.2668457031
1488507323.6938760281,1488507323.6962881088,        0.4780273438,        1.5488281250,       -0.7456054688,       52.1392822266,       -9.0637207031,       42.2668457031
1488507323.6965780258,1488507323.6989951134,        0.4780273438,        1.5488281250,       -0.7456054688,       52.1392822266,       -9.0637207031,       12.9394531250
1488507323.6992819309,1488507323.7017099857,        0.4643554688,        1.4267578125,       -0.7270507812,       36.2396240234,      -16.0522460938,       12.9394531250
1488507323.7020020485,1488507323.7044200897,        0.4643554688,        1.4267578125,       -0.7270507812,       36.2396240234,      -16.0522460938,      -15.1824951172
1488507323.7047109604,1488507323.7071340084,        0.4643554688,        1.4267578125,       -0.7270507812,       26.7028808594,      -22.2473144531,      -15.1824951172
1488507323.7074251175,1488507323.7098848820,        0.4643554688,        1.2856445312,       -0.7246093750,       26.7028808594,      -22.2473144531,      -41.7327880859
1488507323.7101800442,1488507323.7130100727,        0.4873046875,        1.2856445312,       -0.7246093750,       22.4304199219,      -28.0761718750,      -41.7327880859
1488507323.7133030891,1488507323.7157280445,        0.4873046875,        1.2856445312,       -0.7246093750,       22.4304199219,      -34.6374511719,      -66.8487548828
1488507323.7160201073,1488507323.7184441090,        0.4873046875,        1.2856445312,       -0.7246093750,       22.2473144531,      -34.6374511719,      -66.8487548828
1488507323.7187359333,1488507323.7211549282,        0.4790039062,        1.1406250000,       -0.6860351562,       22.2473144531,      -41.2597656250,      -89.1265869141
1488507323.7214469910,1488507323.7237920761,        0.4790039062,        1.1406250000,       -0.6860351562,       24.2309570312,      -41.2597656250,      -89.1265869141
1488507323.7240779400,1488507323.7263669968,        0.4790039062,        1.1406250000,       -0.6860351562,       24.2309570312,      -49.0722656250,     -109.4055175781
1488507323.7266540527,1488507323.7289528847,        0.4790039062,        1.1406250000,       -0.6860351562,       27.7404785156,      -49.0570068359,     -109.4055175781
1488507323.7292339802,1488507323.7315349579,        0.5195312500,        0.9897460938,       -0.6381835938,       27.7404785156,      -49.0570068359,     -125.4577636719
1488507323.7318251133,1488507323.7342441082,        0.5195312500,        0.9897460938,       -0.6381835938,       34.0728759766,      -56.5185546875,     -125.4577636719
1488507323.7345359325,1488507323.7369570732,        0.5195312500,        0.9897460938,       -0.6381835938,       34.0728759766,      -56.5185546875,     -129.5013427734
1488507323.7372500896,1488507323.7396640778,        0.5195312500,        0.9897460938,       -0.5024414062,       41.5802001953,      -64.7125244141,     -129.5013427734
1488507323.7399570942,1488507323.7423660755,        0.7832031250,        0.5488281250,       -0.5024414062,       41.5802001953,      -64.7125244141,     -136.0626220703
1488507323.7426528931,1488507323.7449479103,        0.7832031250,        0.5488281250,       -0.5024414062,       36.5600585938,      -65.8416748047,     -136.0626220703
1488507323.7452321053,1488507323.7475230694,        0.7832031250,        0.5488281250,       -0.5024414062,       36.5600585938,      -65.8416748047,     -136.0626220703
1488507323.7478089333,1488507323.7501089573,        0.7832031250,        0.1489257812,       -0.2666015625,       38.7420654297,      -62.9730224609,     -148.8342285156
1488507323.7503919601,1488507323.7527000904,        0.8310546875,        0.1489257812,       -0.2666015625,       38.7420654297,      -62.9730224609,     -148.8342285156
1488507323.7529819012,1488507323.7552769184,        0.8310546875,        0.1489257812,       -0.2666015625,       47.2564697266,      -57.0831298828,     -146.7132568359
1488507323.7556619644,1488507323.7579638958,        0.8310546875,        0.1489257812,       -0.2666015625,       47.2564697266,      -57.0831298828,     -146.7132568359
1488507323.7582490444,1488507323.7605469227,        1.0439453125,       -1.1918945312,        0.2890625000,       42.5415039062,      -42.1752929688,     -127.4261474609
1488507323.7608311176,1488507323.7632730007,        1.0439453125,       -1.1918945312,        0.2890625000,       42.5415039062,      -42.1752929688,     -127.4261474609
1488507323.7635591030,1488507323.7658510208,        1.0439453125,       -1.1918945312,        0.2890625000,       29.5562744141,      -32.6538085938,     -101.0894775391
1488507323.7661340237,1488507323.7684280872,        1.0439453125,       -1.1918945312,        0.2890625000,       29.5562744141,      -32.6538085938,     -101.0894775391
1488507323.7687120438,1488507323.7710080147,        1.1220703125,       -1.3066406250,        0.5424804688,       34.3475341797,      -26.7028808594,      -90.4235839844
1488507323.7712900639,1488507323.7738370895,        1.1220703125,       -1.3066406250,        0.5424804688,       34.3475341797,      -26.7028808594,      -90.4235839844
1488507323.7741289139,1488507323.7765409946,        1.1220703125,       -1.3066406250,        0.5424804688,       72.4029541016,      -25.1922607422,     -102.5543212891
1488507323.7768330574,1488507323.7792539597,        1.1220703125,       -1.3066406250,        0.5424804688,       72.4029541016,      -25.1922607422,     -102.5543212891
1488507323.7795469761,1488507323.7819719315,        1.0537109375,       -0.2563476562,        0.1679687500,      103.8055419922,      -24.8718261719,     -122.1771240234
1488507323.7822649479,1488507323.7846839428,        1.0537109375,       -0.2563476562,        0.1679687500,      103.8055419922,      -24.8718261719,     -122.1771240234
1488507323.7849750519,1488507323.7873868942,        1.0537109375,       -0.2563476562,        0.1679687500,      126.8768310547,      -28.3508300781,     -139.5874023438
1488507323.7876780033,1488507323.7900938988,        1.0537109375,       -0.2563476562,       -0.2387695312,      126.8768310547,      -28.3508300781,     -139.5874023438
1488507323.7903859615,1488507323.7928180695,        0.9028320312,        0.6420898438,       -0.2387695312,      127.4719238281,      -36.7889404297,     -147.9492187500
1488507323.7931120396,1488507323.7955279350,        0.9028320312,        0.6420898438,       -0.2387695312,      127.4719238281,      -36.7889404297,     -147.9492187500
1488507323.7958190441,1488507323.7982339859,        0.9028320312,        0.6420898438,       -0.2387695312,      107.6507568359,      -45.4711914062,     -150.9246826172
1488507323.7985260487,1488507323.8009479046,        1.1528320312,        0.9594726562,       -0.1958007812,      107.6507568359,      -45.4711914062,     -150.9246826172
1488507323.8012390137,1488507323.8035969734,        1.1772460938,        0.9594726562,       -0.1958007812,       79.9102783203,      -52.8106689453,     -151.9775390625
1488507323.8038818836,1488507323.8061790466,        1.1772460938,        0.9594726562,       -0.1958007812,       79.9102783203,      -52.8106689453,     -151.9775390625
1488507323.8064639568,1488507323.8087549210,        1.1772460938,        0.9594726562,       -0.1958007812,       45.6237792969,      -50.7507324219,     -143.3563232422
1488507323.8090391159,1488507323.8113300800,        1.2583007812,        0.7202148438,       -0.0341796875,       45.6237792969,      -50.7507324219,     -143.3563232422
1488507323.8116140366,1488507323.8141269684,        1.2583007812,        0.7202148438,       -0.0341796875,       20.7366943359,      -46.1730957031,     -130.8746337891
1488507323.8144109249,1488507323.8166968822,        1.2583007812,        0.7202148438,       -0.0341796875,       20.7366943359,      -46.1730957031,     -130.8746337891
1488507323.8169810772,1488507323.8192720413,        1.2583007812,        0.7202148438,       -0.0341796875,        5.1116943359,      -44.7082519531,     -121.9787597656
1488507323.8195550442,1488507323.8219339848,        0.8857421875,        0.5024414062,       -0.1674804688,        6.6986083984,      -44.7082519531,     -121.9787597656
1488507323.8223268986,1488507323.8247220516,        0.8857421875,        0.5024414062,       -0.1674804688,        2.7923583984,      -47.2412109375,     -116.5618896484
1488507323.8250100613,1488507323.8274168968,        0.8857421875,        0.5024414062,       -0.1674804688,        0.8697509766,      -47.2412109375,     -116.5618896484
1488507323.8277649879,1488507323.8303120136,        0.8857421875,        0.5024414062,       -0.1674804688,       -3.1585693359,      -48.6755371094,     -113.0371093750
1488507323.8306019306,1488507323.8333039284,        0.7480468750,        0.4155273438,       -0.2236328125,       -3.1585693359,      -48.6755371094,     -113.0371093750
1488507323.8335909843,1488507323.8359959126,        0.7480468750,        0.4155273438,       -0.2236328125,       -6.6833496094,      -47.9431152344,     -109.1766357422
1488507323.8362860680,1488507323.8386890888,        0.7480468750,        0.4155273438,       -0.2236328125,       -6.6833496094,      -47.9431152344,     -109.1766357422
1488507323.8389770985,1488507323.8413829803,        0.7480468750,        0.2246093750,       -0.1884765625,       -8.3618164062,      -45.3643798828,     -104.0344238281
1488507323.8417100906,1488507323.8441140652,        0.6635742188,        0.2246093750,       -0.1884765625,       -8.3618164062,      -45.3643798828,     -104.0344238281
1488507323.8444030285,1488507323.8467979431,        0.6635742188,        0.2246093750,       -0.1884765625,       -8.2397460938,      -43.8537597656,      -97.9614257812
1488507323.8470849991,1488507323.8494920731,        0.6635742188,        0.2246093750,       -0.1884765625,       -8.2397460938,      -43.8537597656,      -97.9614257812
1488507323.8497800827,1488507323.8521680832,        0.5205078125,        0.2192382812,       -0.2856445312,       -8.1787109375,      -43.6401367188,      -90.7592773438
1488507323.8524510860,1488507323.8547399044,        0.5205078125,        0.2192382812,       -0.2856445312,       -8.1787109375,      -43.6401367188,      -90.7592773438
1488507323.8550200462,1488507323.8573169708,        0.5205078125,        0.2192382812,       -0.2856445312,       -8.1787109375,      -43.0908203125,      -83.8165283203
1488507323.8575959206,1488507323.8598930836,        0.5205078125,        0.2192382812,       -0.2856445312,      -11.2609863281,      -43.0908203125,      -83.8165283203
1488507323.8601760864,1488507323.8625600338,        0.4365234375,        0.2827148438,       -0.4497070312,      -11.2609863281,      -39.1845703125,      -78.2318115234
1488507323.8628439903,1488507323.8651449680,        0.4365234375,        0.2827148438,       -0.4497070312,      -16.5557861328,      -42.8009033203,      -78.2318115234
1488507323.8654289246,1488507323.8677248955,        0.4365234375,        0.2827148438,       -0.4497070312,      -16.5557861328,      -42.8009033203,      -73.9440917969
1488507323.8680100441,1488507323.8703050613,        0.4365234375,        0.2827148438,       -0.4497070312,      -23.8800048828,      -43.6401367188,      -73.9440917969
1488507323.8705930710,1488507323.8728919029,        0.5039062500,        0.2553710938,       -0.5468750000,      -23.8800048828,      -43.6401367188,      -70.0378417969
1488507323.8731780052,1488507323.8754720688,        0.5039062500,        0.2553710938,       -0.5468750000,      -29.1442871094,      -44.1589355469,      -69.2901611328
1488507323.8757569790,1488507323.8780560493,        0.5039062500,        0.2553710938,       -0.5468750000,      -29.1442871094,      -44.1589355469,      -69.2901611328
1488507323.8783409595,1488507323.8806359768,        0.5039062500,        0.2553710938,       -0.5468750000,      -33.2031250000,      -43.4722900391,      -65.1550292969
1488507323.8809208870,1488507323.8833699226,        0.6542968750,        0.1918945312,       -0.5468750000,      -33.2031250000,      -43.4722900391,      -65.1550292969
1488507323.8836541176,1488507323.8859469891,        0.6542968750,        0.1918945312,       -0.5468750000,      -34.5458984375,      -43.6859130859,      -62.6831054688
1488507323.8863430023,1488507323.8886411190,        0.6542968750,        0.1918945312,       -0.5468750000,      -34.5458984375,      -43.6859130859,      -62.6831054688
1488507323.8889229298,1488507323.8912189007,        0.6542968750,        0.1918945312,       -0.5004882812,      -34.2254638672,      -43.2891845703,      -61.3098144531
1488507323.8915019035,1488507323.8940470219,        0.7670898438,        0.2250976562,       -0.5004882812,      -34.2254638672,      -43.2891845703,      -61.3098144531
1488507323.8943390846,1488507323.8967590332,        0.7670898438,        0.2250976562,       -0.5004882812,      -37.1704101562,      -41.2445068359,      -59.1278076172
1488507323.8970510960,1488507323.8994739056,        0.7670898438,        0.2250976562,       -0.5004882812,      -37.1704101562,      -41.2445068359,      -59.1278076172
1488507323.8997659683,1488507323.9021780491,        0.7895507812,        0.1484375000,       -0.3046875000,      -41.4123535156,      -35.3851318359,      -56.1065673828
