time_stamp before, time_stamp after, Acceleration x, Acceleration y, Acceleration z, Gyro x, Gyro y, Gyro z
1488507271.0167260170,1488507271.0255820751,        0.5820312500,        0.1699218750,       -0.0820312500,        2.9449462891,       -0.3662109375,       -9.8419189453
1488507271.0258879662,1488507271.0286159515,        0.5820312500,        0.1699218750,       -0.0820312500,        3.1127929688,       -0.3814697266,       -9.6740722656
1488507271.0289189816,1488507271.0314419270,        0.5820312500,        0.1630859375,       -0.1083984375,        3.1127929688,       -0.3814697266,       -9.6740722656
1488507271.0317380428,1488507271.0341570377,        0.5756835938,        0.1630859375,       -0.1083984375,        3.3569335938,       -0.1373291016,      -10.2691650391
1488507271.0344419479,1488507271.0368618965,        0.5756835938,        0.1630859375,       -0.1083984375,        3.3569335938,       -0.1373291016,      -10.2691650391
1488507271.0371460915,1488507271.0395588875,        0.5756835938,        0.1630859375,       -0.1083984375,        3.6468505859,       -0.9002685547,      -10.3454589844
1488507271.0398440361,1488507271.0422968864,        0.5795898438,        0.1552734375,       -0.1235351562,        3.6468505859,       -0.9002685547,      -10.3454589844
1488507271.0425739288,1488507271.0448648930,        0.5795898438,        0.1552734375,       -0.1235351562,        3.9367675781,       -0.9765625000,      -10.6048583984
1488507271.0451419353,1488507271.0474300385,        0.5795898438,        0.1552734375,       -0.1235351562,        3.9367675781,       -0.9765625000,      -10.6048583984
1488507271.0477070808,1488507271.0500009060,        0.5795898438,        0.1552734375,       -0.1235351562,        3.9978027344,       -1.1291503906,      -11.1389160156
1488507271.0502779484,1488507271.0525710583,        0.5791015625,        0.1499023438,       -0.1289062500,        3.9978027344,       -1.1291503906,      -11.1389160156
1488507271.0528459549,1488507271.0551340580,        0.5791015625,        0.1499023438,       -0.1289062500,        4.2419433594,       -1.4495849609,      -11.5509033203
1488507271.0554089546,1488507271.0577011108,        0.5791015625,        0.1499023438,       -0.1289062500,        4.2419433594,       -1.4495849609,      -11.5509033203
1488507271.0579750538,1488507271.0608029366,        0.5791015625,        0.1499023438,       -0.1289062500,        3.9215087891,       -2.0751953125,      -11.9934082031
1488507271.0610840321,1488507271.0634241104,        0.5893554688,        0.1518554688,       -0.1372070312,        3.9215087891,       -2.0751953125,      -11.9934082031
1488507271.0637009144,1488507271.0659921169,        0.5893554688,        0.1518554688,       -0.1372070312,        3.6773681641,       -2.4108886719,      -12.0086669922
1488507271.0662670135,1488507271.0685539246,        0.5893554688,        0.1518554688,       -0.1372070312,        3.6773681641,       -2.4108886719,      -12.0086669922
1488507271.0688290596,1488507271.0711209774,        0.5893554688,        0.1518554688,       -0.1469726562,        3.6773681641,       -3.0212402344,      -12.3443603516
1488507271.0713980198,1488507271.0738129616,        0.6010742188,        0.1591796875,       -0.1469726562,        2.5329589844,       -3.0212402344,      -12.3443603516
1488507271.0740990639,1488507271.0765140057,        0.6010742188,        0.1591796875,       -0.1469726562,        2.5329589844,       -3.7689208984,      -12.6800537109
1488507271.0767979622,1488507271.0792129040,        0.6010742188,        0.1591796875,       -0.1469726562,        2.3040771484,       -3.7689208984,      -12.6800537109
1488507271.0794980526,1488507271.0819299221,        0.6010742188,        0.1601562500,       -0.1850585938,        2.3040771484,       -4.4860839844,      -12.3748779297
1488507271.0822169781,1488507271.0846419334,        0.6020507812,        0.1601562500,       -0.1850585938,        2.5329589844,       -4.4860839844,      -12.3748779297
1488507271.0849270821,1488507271.0873479843,        0.6020507812,        0.1601562500,       -0.1850585938,        2.5329589844,       -6.3629150391,      -11.8408203125
1488507271.0877919197,1488507271.0902070999,        0.6020507812,        0.1601562500,       -0.1850585938,        3.2043457031,       -6.3629150391,      -11.8408203125
1488507271.0904920101,1488507271.0928599834,        0.6142578125,        0.1025390625,       -0.1538085938,        3.2043457031,       -7.5836181641,      -10.8489990234
1488507271.0931398869,1488507271.0954339504,        0.6142578125,        0.1025390625,       -0.1538085938,        3.4179687500,       -7.5836181641,      -10.8489990234
1488507271.0957119465,1488507271.0980041027,        0.6142578125,        0.1025390625,       -0.1538085938,        3.4179687500,      -11.4898681641,      -11.8560791016
1488507271.0982880592,1488507271.1005799770,        0.6142578125,        0.1025390625,       -0.1538085938,        3.0822753906,       -8.2855224609,      -11.8560791016
1488507271.1008601189,1488507271.1032168865,        0.5771484375,        0.1264648438,       -0.1733398438,        3.0822753906,       -8.2855224609,      -15.2893066406
1488507271.1034948826,1488507271.1057920456,        0.5771484375,        0.1264648438,       -0.1733398438,        2.1820068359,       -8.3160400391,      -15.2893066406
1488507271.1060690880,1488507271.1083641052,        0.5771484375,        0.1264648438,       -0.1733398438,        2.1820068359,       -8.3160400391,      -15.2893066406
1488507271.1086421013,1488507271.1109390259,        0.5771484375,        0.1264648438,       -0.1733398438,        2.1667480469,       -9.1705322266,      -18.7988281250
1488507271.1112170219,1488507271.1136240959,        0.5732421875,        0.1196289062,       -0.1503906250,        2.1667480469,       -9.1705322266,      -18.7988281250
1488507271.1139049530,1488507271.1161930561,        0.5732421875,        0.1196289062,       -0.1503906250,        3.6010742188,       -9.7198486328,      -21.1029052734
1488507271.1164729595,1488507271.1187670231,        0.5732421875,        0.1196289062,       -0.1503906250,        3.6010742188,       -9.7198486328,      -21.1029052734
1488507271.1190440655,1488507271.1213390827,        0.5732421875,        0.1196289062,       -0.1503906250,        4.3182373047,      -10.0708007812,      -23.2086181641
1488507271.1216208935,1488507271.1240050793,        0.5981445312,        0.1264648438,       -0.1708984375,        4.3182373047,      -10.0708007812,      -23.2086181641
1488507271.1242918968,1488507271.1266729832,        0.5981445312,        0.1264648438,       -0.1708984375,        4.7607421875,      -10.3302001953,      -25.4821777344
1488507271.1269609928,1488507271.1293458939,        0.5981445312,        0.1264648438,       -0.1708984375,        4.7607421875,      -10.3302001953,      -25.4821777344
1488507271.1296319962,1488507271.1320209503,        0.5981445312,        0.1264648438,       -0.1411132812,        4.8065185547,      -10.1928710938,      -27.5268554688
1488507271.1323099136,1488507271.1347270012,        0.6191406250,        0.1508789062,       -0.1411132812,        4.8065185547,      -10.1928710938,      -27.5268554688
1488507271.1350159645,1488507271.1374258995,        0.6191406250,        0.1508789062,       -0.1411132812,        3.7231445312,      -10.6811523438,      -28.8085937500
1488507271.1377139091,1488507271.1401290894,        0.6191406250,        0.1508789062,       -0.1411132812,        3.7231445312,      -10.6811523438,      -28.8085937500
1488507271.1404180527,1488507271.1428329945,        0.6308593750,        0.1611328125,       -0.1284179688,        2.1667480469,      -11.0473632812,      -29.8309326172
1488507271.1431219578,1488507271.1455430984,        0.6308593750,        0.1611328125,       -0.1284179688,        2.1667480469,      -11.0473632812,      -29.8309326172
1488507271.1458299160,1488507271.1482529640,        0.6308593750,        0.1611328125,       -0.1284179688,       -0.4577636719,      -10.0860595703,      -30.6243896484
1488507271.1485419273,1488507271.1509549618,        0.6308593750,        0.1611328125,       -0.1284179688,       -0.4577636719,      -10.0860595703,      -30.6243896484
1488507271.1513550282,1488507271.1537859440,        0.6372070312,        0.1811523438,       -0.1181640625,       -1.7242431641,       -9.2773437500,      -31.3415527344
1488507271.1540730000,1488507271.1564879417,        0.6372070312,        0.1811523438,       -0.1181640625,       -1.7242431641,       -9.2773437500,      -31.3415527344
1488507271.1567730904,1488507271.1591908932,        0.6372070312,        0.1811523438,       -0.1181640625,       -2.5024414062,       -9.1247558594,      -31.7993164062
1488507271.1594769955,1488507271.1618978977,        0.6372070312,        0.1811523438,       -0.1181640625,       -2.5024414062,       -9.1247558594,      -31.7993164062
1488507271.1621770859,1488507271.1644709110,        0.6396484375,        0.1845703125,       -0.1132812500,       -3.9215087891,       -8.5754394531,      -31.9061279297
1488507271.1647500992,1488507271.1670420170,        0.6396484375,        0.1845703125,       -0.1132812500,       -3.9215087891,       -8.5754394531,      -31.9061279297
1488507271.1673200130,1488507271.1696550846,        0.6396484375,        0.1845703125,       -0.1132812500,       -6.0424804688,       -8.4075927734,      -31.8908691406
1488507271.1699349880,1488507271.1722810268,        0.6396484375,        0.1845703125,       -0.1220703125,       -6.0424804688,       -8.4075927734,      -31.8908691406
1488507271.1725590229,1488507271.1748600006,        0.6391601562,        0.1855468750,       -0.1220703125,       -8.6059570312,       -7.8735351562,      -30.6243896484
1488507271.1751389503,1488507271.1774299145,        0.6391601562,        0.1855468750,       -0.1220703125,       -8.6059570312,       -7.8735351562,      -30.6243896484
1488507271.1777091026,1488507271.1799979210,        0.6391601562,        0.1855468750,       -0.1220703125,       -8.6059570312,       -7.1258544922,      -29.0679931641
1488507271.1802780628,1488507271.1825768948,        0.6391601562,        0.1284179688,       -0.1215820312,      -11.0626220703,       -7.1258544922,      -29.0679931641
1488507271.1828610897,1488507271.1851460934,        0.6259765625,        0.1284179688,       -0.1215820312,      -11.0626220703,       -7.1258544922,      -26.3061523438
1488507271.1854290962,1488507271.1877129078,        0.6259765625,        0.1284179688,       -0.1215820312,      -12.9699707031,       -6.3018798828,      -26.3061523438
1488507271.1879940033,1488507271.1902830601,        0.6259765625,        0.1284179688,       -0.1215820312,      -12.9699707031,       -6.3018798828,      -23.3612060547
1488507271.1905651093,1488507271.1929199696,        0.6259765625,        0.0781250000,       -0.1157226562,      -13.3514404297,       -5.9356689453,      -23.3612060547
1488507271.1932029724,1488507271.1954939365,        0.6152343750,        0.0781250000,       -0.1157226562,      -13.3514404297,       -5.9356689453,      -23.3612060547
1488507271.1957750320,1488507271.1980578899,        0.6152343750,        0.0781250000,       -0.1157226562,      -13.6108398438,       -5.4321289062,      -20.1263427734
1488507271.1983389854,1488507271.2006280422,        0.6152343750,        0.0781250000,       -0.1157226562,      -13.6108398438,       -5.4321289062,      -20.1263427734
1488507271.2009110451,1488507271.2032730579,        0.6083984375,        0.0708007812,       -0.1337890625,      -12.9852294922,       -5.0811767578,      -17.1203613281
1488507271.2035560608,1488507271.2058370113,        0.6083984375,        0.0708007812,       -0.1337890625,      -12.9852294922,       -5.0811767578,      -17.1203613281
1488507271.2061190605,1488507271.2084059715,        0.6083984375,        0.0708007812,       -0.1337890625,      -12.5732421875,       -4.5776367188,      -13.8702392578
1488507271.2086880207,1488507271.2109730244,        0.6083984375,        0.0708007812,       -0.1337890625,      -12.5732421875,       -4.5776367188,      -13.8702392578
1488507271.2112550735,1488507271.2135798931,        0.5952148438,        0.0356445312,       -0.1411132812,      -12.4053955078,       -3.6926269531,      -10.4370117188
1488507271.2139739990,1488507271.2162659168,        0.5952148438,        0.0356445312,       -0.1411132812,      -12.4053955078,       -3.6926269531,      -10.4370117188
1488507271.2165479660,1488507271.2188360691,        0.5952148438,        0.0356445312,       -0.1411132812,      -10.9405517578,       -3.6621093750,       -7.6599121094
1488507271.2191140652,1488507271.2214028835,        0.5952148438,        0.0356445312,       -0.1411132812,      -10.9405517578,       -3.6621093750,       -7.6599121094
1488507271.2218079567,1488507271.2241001129,        0.5976562500,       -0.0273437500,       -0.1630859375,       -7.7362060547,       -3.9825439453,       -5.0048828125
1488507271.2243740559,1488507271.2268168926,        0.5976562500,       -0.0273437500,       -0.1630859375,       -7.7362060547,       -3.9825439453,       -5.0048828125
1488507271.2270920277,1488507271.2293789387,        0.5976562500,       -0.0273437500,       -0.1630859375,       -3.2958984375,       -3.0517578125,       -4.4250488281
1488507271.2296500206,1488507271.2320890427,        0.5976562500,       -0.0273437500,       -0.1630859375,       -3.2958984375,       -3.0517578125,       -4.4250488281
1488507271.2323698997,1488507271.2347490788,        0.6484375000,       -0.0527343750,       -0.1762695312,        2.2888183594,       -2.7313232422,       -4.3182373047
1488507271.2350280285,1488507271.2375171185,        0.6484375000,       -0.0527343750,       -0.1762695312,        2.2888183594,       -2.7313232422,       -4.3182373047
1488507271.2377951145,1488507271.2401740551,        0.6484375000,       -0.0527343750,       -0.1762695312,        9.4909667969,       -3.7994384766,       -4.0283203125
1488507271.2404520512,1488507271.2432088852,        0.6484375000,       -0.0527343750,       -0.1918945312,        9.4909667969,       -3.7994384766,       -4.0283203125
1488507271.2434868813,1488507271.2457759380,        0.6967773438,       -0.1313476562,       -0.1918945312,       17.1508789062,       -4.8522949219,       -3.5552978516
1488507271.2460539341,1488507271.2483460903,        0.6967773438,       -0.1313476562,       -0.1918945312,       17.1508789062,       -4.8522949219,       -3.5552978516
1488507271.2486219406,1488507271.2509090900,        0.6967773438,       -0.1313476562,       -0.1918945312,       24.9633789062,       -4.9591064453,       -2.6092529297
1488507271.2511880398,1488507271.2535688877,        0.6967773438,       -0.2128906250,       -0.1586914062,       24.0631103516,       -4.9591064453,       -2.6092529297
1488507271.2538480759,1488507271.2561380863,        0.7021484375,       -0.2128906250,       -0.1586914062,       24.0631103516,       -5.1116943359,       -1.5869140625
1488507271.2564160824,1488507271.2587089539,        0.7021484375,       -0.2128906250,       -0.1586914062,       30.0292968750,       -5.1116943359,       -1.5869140625
1488507271.2589869499,1488507271.2612709999,        0.7021484375,       -0.2128906250,       -0.1586914062,       30.0292968750,       -5.1116943359,       -0.7019042969
1488507271.2615499496,1488507271.2638471127,        0.6708984375,       -0.2163085938,       -0.1401367188,       35.8886718750,       -6.2408447266,       -0.7019042969
1488507271.2641260624,1488507271.2664120197,        0.6708984375,       -0.2163085938,       -0.1401367188,       35.8886718750,       -6.2408447266,        3.2043457031
1488507271.2666890621,1488507271.2689740658,        0.6708984375,       -0.2163085938,       -0.1401367188,       41.0308837891,       -7.0190429688,        0.5187988281
1488507271.2692511082,1488507271.2715430260,        0.6708984375,       -0.2163085938,       -0.1401367188,       41.0308837891,       -7.0190429688,        0.5187988281
1488507271.2718210220,1488507271.2741119862,        0.6469726562,       -0.1835937500,       -0.1372070312,       45.4864501953,       -8.2550048828,        2.0294189453
1488507271.2743918896,1488507271.2766819000,        0.6469726562,       -0.1835937500,       -0.1372070312,       45.4864501953,       -8.2550048828,        2.0294189453
1488507271.2770700455,1488507271.2793569565,        0.6469726562,       -0.1835937500,       -0.1372070312,       48.4619140625,       -9.2926025391,        4.7454833984
1488507271.2796380520,1488507271.2819550037,        0.6469726562,       -0.1835937500,       -0.1372070312,       48.4619140625,       -9.2926025391,        4.7454833984
1488507271.2822339535,1488507271.2845211029,        0.6328125000,       -0.1713867188,       -0.1459960938,       50.2319335938,      -10.6353759766,        8.1481933594
1488507271.2848019600,1488507271.2870900631,        0.6328125000,       -0.1713867188,       -0.1459960938,       50.2319335938,      -10.6353759766,        8.1481933594
1488507271.2873721123,1488507271.2896599770,        0.6328125000,       -0.1713867188,       -0.1459960938,       51.2847900391,      -12.0391845703,       12.3291015625
1488507271.2899460793,1488507271.2924039364,        0.6328125000,       -0.1713867188,       -0.1459960938,       51.2847900391,      -12.0391845703,       12.3291015625
1488507271.2926890850,1488507271.2949810028,        0.6289062500,       -0.1689453125,       -0.1372070312,       52.2460937500,      -13.3361816406,       16.9677734375
1488507271.2952649593,1488507271.2975521088,        0.6289062500,       -0.1689453125,       -0.1372070312,       52.2460937500,      -13.3361816406,       16.9677734375
1488507271.2978351116,1488507271.3001229763,        0.6289062500,       -0.1689453125,       -0.1372070312,       52.7648925781,      -14.3737792969,       22.5372314453
1488507271.3004069328,1488507271.3028221130,        0.6289062500,       -0.1689453125,       -0.1372070312,       52.7648925781,      -14.3737792969,       22.5372314453
1488507271.3031089306,1488507271.3053920269,        0.6093750000,       -0.1611328125,       -0.1152343750,       53.1158447266,      -15.1977539062,       27.3590087891
1488507271.3056769371,1488507271.3079628944,        0.6093750000,       -0.1611328125,       -0.1152343750,       53.1158447266,      -15.1977539062,       27.3590087891
1488507271.3082480431,1488507271.3105349541,        0.6093750000,       -0.1611328125,       -0.1152343750,       53.1158447266,      -15.8691406250,       32.8979492188
1488507271.3108201027,1488507271.3131210804,        0.6093750000,       -0.1611328125,       -0.1152343750,       53.1005859375,      -15.8691406250,       32.8979492188
1488507271.3134050369,1488507271.3156909943,        0.5771484375,       -0.1752929688,       -0.0805664062,       53.1005859375,      -15.8691406250,       38.0401611328
1488507271.3159759045,1488507271.3182640076,        0.5771484375,       -0.1752929688,       -0.0805664062,       52.0782470703,      -16.6778564453,       38.0401611328
1488507271.3185470104,1488507271.3208360672,        0.5771484375,       -0.1752929688,       -0.0805664062,       52.0782470703,      -16.6778564453,       45.8526611328
1488507271.3211219311,1488507271.3235359192,        0.5771484375,       -0.1752929688,       -0.0732421875,       51.6967773438,      -16.5100097656,       43.4112548828
1488507271.3238270283,1488507271.3262100220,        0.5527343750,       -0.1689453125,       -0.0732421875,       51.6967773438,      -16.5100097656,       47.3175048828
1488507271.3265020847,1488507271.3288850784,        0.5527343750,       -0.1689453125,       -0.0732421875,       51.7425537109,      -17.0135498047,       48.8281250000
1488507271.3291749954,1488507271.3315579891,        0.5527343750,       -0.1689453125,       -0.0732421875,       51.7425537109,      -17.0135498047,       48.8281250000
1488507271.3319129944,1488507271.3343269825,        0.5527343750,       -0.1601562500,       -0.0678710938,       51.6357421875,      -16.8304443359,       54.2602539062
1488507271.3346180916,1488507271.3370320797,        0.5698242188,       -0.1601562500,       -0.0678710938,       51.6357421875,      -16.8304443359,       62.0727539062
1488507271.3373250961,1488507271.3397400379,        0.5698242188,       -0.1601562500,       -0.0678710938,       52.1087646484,      -16.5252685547,       58.7921142578
1488507271.3401510715,1488507271.3425779343,        0.5698242188,       -0.1601562500,       -0.0678710938,       52.1087646484,      -16.5252685547,       62.6983642578
1488507271.3428690434,1488507271.3452858925,        0.5786132812,       -0.1645507812,       -0.0673828125,       52.8106689453,      -15.6707763672,       63.6749267578
1488507271.3455779552,1488507271.3479909897,        0.5786132812,       -0.1645507812,       -0.0673828125,       52.8106689453,      -15.6707763672,       67.5811767578
1488507271.3482820988,1488507271.3506939411,        0.5786132812,       -0.1645507812,       -0.0673828125,       54.3212890625,      -15.3198242188,       68.0847167969
1488507271.3509869576,1488507271.3533260822,        0.5786132812,       -0.1645507812,       -0.0673828125,       54.3212890625,      -15.3198242188,       68.0847167969
1488507271.3536119461,1488507271.3559060097,        0.5957031250,       -0.1708984375,       -0.0522460938,       56.2591552734,      -14.3280029297,       71.6247558594
1488507271.3561909199,1488507271.3586590290,        0.5957031250,       -0.1708984375,       -0.0522460938,       56.2591552734,      -14.3280029297,       71.6247558594
1488507271.3589448929,1488507271.3612411022,        0.5957031250,       -0.1708984375,       -0.0522460938,       57.8765869141,      -13.1530761719,       74.4628906250
1488507271.3615260124,1488507271.3638548851,        0.5957031250,       -0.1708984375,       -0.0273437500,       57.8765869141,      -13.1530761719,       74.4628906250
1488507271.3641400337,1488507271.3664240837,        0.5976562500,       -0.1254882812,       -0.0273437500,       59.8602294922,      -11.7340087891,       77.2857666016
1488507271.3667089939,1488507271.3690009117,        0.5976562500,       -0.1254882812,       -0.0273437500,       59.8602294922,      -11.7340087891,       77.2857666016
1488507271.3692851067,1488507271.3715739250,        0.5976562500,       -0.1254882812,       -0.0273437500,       59.6160888672,       -9.9487304688,       79.1320800781
1488507271.3719310760,1488507271.3742198944,        0.5976562500,       -0.0004882812,       -0.0224609375,       59.6160888672,       -9.9487304688,       79.1320800781
1488507271.3745040894,1488507271.3767960072,        0.6284179688,       -0.0297851562,       -0.0224609375,       56.9000244141,       -6.6528320312,       81.3140869141
1488507271.3770790100,1488507271.3793680668,        0.6284179688,       -0.0297851562,       -0.0224609375,       56.9000244141,       -6.6528320312,       81.3140869141
1488507271.3796501160,1488507271.3819460869,        0.6284179688,       -0.0297851562,       -0.0224609375,       52.0629882812,       -3.0670166016,       83.4808349609
1488507271.3822290897,1488507271.3845269680,        0.6284179688,        0.0004882812,       -0.0112304688,       52.0629882812,       -3.0670166016,       83.4808349609
1488507271.3848090172,1488507271.3870968819,        0.6342773438,        0.0004882812,       -0.0112304688,       45.5322265625,       -0.0610351562,       86.1968994141
1488507271.3873779774,1488507271.3896720409,        0.6342773438,        0.0004882812,       -0.0112304688,       45.5322265625,       -0.0610351562,       86.1968994141
1488507271.3899528980,1488507271.3923039436,        0.6342773438,        0.0004882812,       -0.0112304688,       45.5322265625,        2.3956298828,       88.6993408203
1488507271.3925850391,1488507271.3948750496,        0.6342773438,       -0.0234375000,        0.0053710938,       39.6118164062,        2.3956298828,       88.6993408203
1488507271.3951580524,1488507271.3974471092,        0.6635742188,       -0.0234375000,        0.0053710938,       39.6118164062,        6.3018798828,       89.8590087891
1488507271.3977310658,1488507271.4000179768,        0.6635742188,       -0.0234375000,        0.0053710938,       35.3546142578,        4.8675537109,       89.8590087891
1488507271.4003019333,1488507271.4027769566,        0.6635742188,       -0.0234375000,        0.0053710938,       35.3546142578,        4.8675537109,       90.4541015625
1488507271.4031629562,1488507271.4054610729,        0.6762695312,       -0.0527343750,        0.0009765625,       32.6995849609,        7.3547363281,       90.4541015625
1488507271.4057440758,1488507271.4080350399,        0.6762695312,       -0.0527343750,        0.0009765625,       32.6995849609,        7.3547363281,       90.8508300781
1488507271.4083158970,1488507271.4106140137,        0.6762695312,       -0.0527343750,        0.0009765625,       30.6396484375,        9.3841552734,       90.8508300781
1488507271.4108951092,1488507271.4134280682,        0.6762695312,       -0.0527343750,        0.0009765625,       30.6396484375,        9.3841552734,       91.6290283203
1488507271.4137170315,1488507271.4161369801,        0.6909179688,       -0.0483398438,       -0.0288085938,       28.6712646484,       11.0321044922,       91.6290283203
1488507271.4164309502,1488507271.4188520908,        0.6909179688,       -0.0483398438,       -0.0288085938,       28.6712646484,       11.0321044922,       91.6290283203
1488507271.4191439152,1488507271.4215610027,        0.6909179688,       -0.0483398438,       -0.0288085938,       27.3742675781,       12.2985839844,       92.0715332031
1488507271.4218540192,1488507271.4242699146,        0.6909179688,       -0.0483398438,       -0.0288085938,       27.3742675781,       12.2985839844,       92.0715332031
1488507271.4245619774,1488507271.4269900322,        0.6918945312,       -0.0532226562,       -0.0571289062,       26.0162353516,       13.6718750000,       92.4835205078
1488507271.4272809029,1488507271.4297010899,        0.6918945312,       -0.0532226562,       -0.0571289062,       26.0162353516,       13.6718750000,       92.4835205078
1488507271.4299929142,1488507271.4324209690,        0.6918945312,       -0.0532226562,       -0.0571289062,       25.0701904297,       14.2669677734,       93.1396484375
1488507271.4327130318,1488507271.4351649284,        0.6918945312,       -0.0493164062,       -0.0556640625,       25.0701904297,       14.2669677734,       93.1396484375
1488507271.4354510307,1488507271.4377460480,        0.6962890625,       -0.0493164062,       -0.0556640625,       24.3988037109,       14.5874023438,       93.5821533203
1488507271.4380309582,1488507271.4403250217,        0.6962890625,       -0.0493164062,       -0.0556640625,       24.3988037109,       14.5874023438,       93.5821533203
1488507271.4406099319,1488507271.4430899620,        0.6962890625,       -0.0493164062,       -0.0556640625,       23.8037109375,       15.3045654297,       93.5363769531
1488507271.4433810711,1488507271.4457609653,        0.7177734375,       -0.0454101562,       -0.0693359375,       23.8037109375,       15.3045654297,       93.5363769531
1488507271.4460530281,1488507271.4485421181,        0.7177734375,       -0.0454101562,       -0.0693359375,       23.3612060547,       15.8691406250,       93.6584472656
1488507271.4488329887,1488507271.4512150288,        0.7177734375,       -0.0454101562,       -0.0693359375,       23.3612060547,       15.8691406250,       93.6584472656
1488507271.4519259930,1488507271.4542250633,        0.7177734375,       -0.0454101562,       -0.0693359375,       23.1323242188,       16.1895751953,       93.6279296875
1488507271.4545109272,1488507271.4568049908,        0.7436523438,       -0.0590820312,       -0.0600585938,       23.1323242188,       16.1895751953,       93.6279296875
1488507271.4570920467,1488507271.4593861103,        0.7436523438,       -0.0590820312,       -0.0600585938,       22.9644775391,       16.3726806641,       93.6279296875
1488507271.4596719742,1488507271.4619910717,        0.7436523438,       -0.0590820312,       -0.0600585938,       22.9644775391,       16.3726806641,       93.6279296875
1488507271.4622828960,1488507271.4647009373,        0.7436523438,       -0.0590820312,       -0.0600585938,       23.0102539062,       16.7083740234,       93.6279296875
1488507271.4649920464,1488507271.4674019814,        0.7504882812,       -0.0791015625,       -0.0703125000,       23.0102539062,       16.7083740234,       93.6279296875
1488507271.4676949978,1488507271.4701149464,        0.7504882812,       -0.0791015625,       -0.0703125000,       23.6206054688,       16.9830322266,       93.6279296875
1488507271.4705140591,1488507271.4729440212,        0.7504882812,       -0.0791015625,       -0.0703125000,       23.6206054688,       16.9830322266,       93.6279296875
1488507271.4732360840,1488507271.4756510258,        0.7504882812,       -0.0947265625,       -0.0781250000,       25.7263183594,       17.3339843750,       93.5821533203
1488507271.4759430885,1488507271.4783558846,        0.7578125000,       -0.0947265625,       -0.0781250000,       25.7263183594,       17.3339843750,       93.5821533203
1488507271.4786489010,1488507271.4810678959,        0.7578125000,       -0.0947265625,       -0.0781250000,       27.8778076172,       17.8375244141,       93.1243896484
1488507271.4813621044,1488507271.4836909771,        0.7578125000,       -0.0947265625,       -0.0781250000,       27.8778076172,       17.8375244141,       93.1243896484
1488507271.4839770794,1488507271.4862689972,        0.7519531250,       -0.0864257812,       -0.0927734375,       30.4718017578,       19.4091796875,       92.0257568359
1488507271.4865550995,1488507271.4888451099,        0.7519531250,       -0.0864257812,       -0.0927734375,       30.4718017578,       19.4091796875,       92.0257568359
1488507271.4891290665,1488507271.4914219379,        0.7519531250,       -0.0864257812,       -0.0927734375,       33.2489013672,       19.6838378906,       89.9658203125
1488507271.4917299747,1488507271.4940259457,        0.7519531250,       -0.0864257812,       -0.0927734375,       33.2489013672,       19.6838378906,       89.9658203125
1488507271.4943099022,1488507271.4966030121,        0.7460937500,       -0.0483398438,       -0.1108398438,       35.8276367188,       19.0734863281,       87.3260498047
1488507271.4968900681,1488507271.4991810322,        0.7460937500,       -0.0483398438,       -0.1108398438,       35.8276367188,       19.0734863281,       87.3260498047
1488507271.4994668961,1488507271.5018780231,        0.7460937500,       -0.0483398438,       -0.1108398438,       39.6728515625,       18.4478759766,       84.7778320312
1488507271.5021829605,1488507271.5044870377,        0.7460937500,       -0.0483398438,       -0.1108398438,       39.6728515625,       18.4478759766,       84.7778320312
1488507271.5047750473,1488507271.5070679188,        0.7539062500,       -0.0380859375,       -0.1069335938,       42.8314208984,       19.0429687500,       82.5653076172
1488507271.5073540211,1488507271.5096459389,        0.7539062500,       -0.0380859375,       -0.1069335938,       42.8314208984,       19.0429687500,       82.5653076172
1488507271.5099339485,1488507271.5124239922,        0.7539062500,       -0.0380859375,       -0.1069335938,       44.6166992188,       18.9666748047,       80.6884765625
1488507271.5127170086,1488507271.5151350498,        0.7539062500,       -0.0380859375,       -0.1069335938,       44.6166992188,       18.9666748047,       80.6884765625
1488507271.5154271126,1488507271.5178420544,        0.7514648438,       -0.0673828125,       -0.0869140625,       45.8526611328,       18.7988281250,       79.3457031250
1488507271.5181329250,1488507271.5205481052,        0.7514648438,       -0.0673828125,       -0.0869140625,       45.8526611328,       18.7988281250,       79.3457031250
1488507271.5208399296,1488507271.5233030319,        0.7514648438,       -0.0673828125,       -0.0869140625,       45.3033447266,       19.4396972656,       78.2928466797
1488507271.5235970020,1488507271.5260140896,        0.7514648438,       -0.1000976562,       -0.0820312500,       45.3033447266,       19.4396972656,       78.2928466797
1488507271.5263080597,1488507271.5287230015,        0.7539062500,       -0.1000976562,       -0.0820312500,       45.3948974609,       19.8364257812,       77.6672363281
1488507271.5290169716,1488507271.5314331055,        0.7539062500,       -0.1000976562,       -0.0820312500,       45.3948974609,       19.8364257812,       77.6672363281
1488507271.5317358971,1488507271.5341529846,        0.7539062500,       -0.1000976562,       -0.0820312500,       46.1273193359,       19.4854736328,       76.8585205078
1488507271.5345571041,1488507271.5369710922,        0.7363281250,       -0.1367187500,       -0.0585937500,       46.1273193359,       19.4854736328,       76.8585205078
1488507271.5372629166,1488507271.5396769047,        0.7363281250,       -0.1367187500,       -0.0585937500,       46.1578369141,       19.2871093750,       75.1953125000
1488507271.5399689674,1488507271.5423719883,        0.7363281250,       -0.1367187500,       -0.0585937500,       46.1578369141,       19.2871093750,       75.1953125000
1488507271.5426568985,1488507271.5449500084,        0.7363281250,       -0.1367187500,       -0.0585937500,       47.5006103516,       18.7072753906,       73.1048583984
1488507271.5452361107,1488507271.5475308895,        0.7236328125,       -0.1274414062,       -0.0541992188,       47.5006103516,       18.7072753906,       73.1048583984
1488507271.5478160381,1488507271.5501110554,        0.7236328125,       -0.1274414062,       -0.0541992188,       47.5006103516,       18.6614990234,       70.8312988281
1488507271.5503959656,1488507271.5527679920,        0.7236328125,       -0.1274414062,       -0.0541992188,       49.8962402344,       18.6614990234,       70.8312988281
1488507271.5530600548,1488507271.5554780960,        0.7236328125,       -0.1274414062,       -0.0541992188,       49.8962402344,       19.0734863281,       68.1304931641
1488507271.5557699203,1488507271.5581870079,        0.7265625000,       -0.1489257812,       -0.0415039062,       52.5817871094,       19.0734863281,       68.1304931641
1488507271.5584781170,1488507271.5608959198,        0.7265625000,       -0.1489257812,       -0.0415039062,       52.5817871094,       19.0734863281,       65.5670166016
1488507271.5611889362,1488507271.5636169910,        0.7265625000,       -0.1489257812,       -0.0415039062,       54.1687011719,       19.0734863281,       65.5670166016
1488507271.5639100075,1488507271.5663230419,        0.7265625000,       -0.1489257812,       -0.0205078125,       54.1687011719,       19.0734863281,       63.2781982422
1488507271.5666129589,1488507271.5691809654,        0.7143554688,       -0.1757812500,       -0.0205078125,       55.2673339844,       19.1192626953,       63.2781982422
1488507271.5694749355,1488507271.5719211102,        0.7143554688,       -0.1757812500,       -0.0205078125,       55.2673339844,       19.5007324219,       61.5234375000
1488507271.5729489326,1488507271.5757539272,        0.7143554688,       -0.1757812500,       -0.0205078125,       56.9458007812,       19.5007324219,       61.5234375000
1488507271.5760440826,1488507271.5783300400,        0.6933593750,       -0.1704101562,       -0.0258789062,       59.8297119141,       20.2178955078,       59.7534179688
1488507271.5786149502,1488507271.5809109211,        0.6933593750,       -0.1704101562,       -0.0258789062,       59.8297119141,       20.2178955078,       59.7534179688
1488507271.5811951160,1488507271.5835959911,        0.6933593750,       -0.1704101562,       -0.0258789062,       62.0574951172,       20.3857421875,       58.2122802734
1488507271.5838820934,1488507271.5861649513,        0.6933593750,       -0.1704101562,       -0.0307617188,       62.0574951172,       20.3857421875,       58.2122802734
1488507271.5864489079,1488507271.5887410641,        0.6621093750,       -0.1572265625,       -0.0307617188,       63.2934570312,       20.3552246094,       56.7474365234
1488507271.5890269279,1488507271.5913119316,        0.6621093750,       -0.1572265625,       -0.0307617188,       63.2934570312,       20.3552246094,       56.7474365234
1488507271.5915980339,1488507271.5938909054,        0.6621093750,       -0.1572265625,       -0.0307617188,       64.6972656250,       20.4315185547,       55.2978515625
1488507271.5941760540,1488507271.5964679718,        0.6621093750,       -0.1572265625,       -0.0375976562,       64.6972656250,       20.4315185547,       55.2978515625
1488507271.5967528820,1488507271.5990409851,        0.6499023438,       -0.1313476562,       -0.0375976562,       64.6972656250,       20.5383300781,       54.3212890625
1488507271.5994329453,1488507271.6017670631,        0.6499023438,       -0.1313476562,       -0.0375976562,       65.8721923828,       20.5383300781,       54.3212890625
1488507271.6020529270,1488507271.6043410301,        0.6499023438,       -0.1313476562,       -0.0375976562,       65.8721923828,       20.5383300781,       53.4210205078
1488507271.6046259403,1488507271.6069190502,        0.6499023438,       -0.1074218750,       -0.0556640625,       67.1234130859,       20.2484130859,       53.4210205078
1488507271.6072049141,1488507271.6094989777,        0.6264648438,       -0.1074218750,       -0.0556640625,       67.1234130859,       20.2484130859,       52.5970458984
1488507271.6097838879,1488507271.6121389866,        0.6264648438,       -0.1074218750,       -0.0556640625,       67.7185058594,       20.6298828125,       52.5970458984
1488507271.6124238968,1488507271.6147129536,        0.6264648438,       -0.1074218750,       -0.0556640625,       67.7185058594,       20.6298828125,       52.5970458984
1488507271.6149981022,1488507271.6172909737,        0.6157226562,       -0.1059570312,       -0.0541992188,       67.6727294922,       20.7519531250,       51.7883300781
1488507271.6175770760,1488507271.6198649406,        0.6157226562,       -0.1059570312,       -0.0541992188,       67.6727294922,       20.7519531250,       51.7883300781
1488507271.6201488972,1488507271.6225979328,        0.6157226562,       -0.1059570312,       -0.0541992188,       68.4814453125,       21.3165283203,       50.9338378906
1488507271.6228830814,1488507271.6251740456,        0.6157226562,       -0.1059570312,       -0.0541992188,       68.4814453125,       21.3165283203,       50.9338378906
1488507271.6254599094,1488507271.6277489662,        0.6005859375,       -0.0947265625,       -0.0659179688,       68.4814453125,       20.8740234375,       50.4150390625
1488507271.6280319691,1488507271.6303279400,        0.6005859375,       -0.0947265625,       -0.0659179688,       68.4814453125,       20.8740234375,       50.4150390625
1488507271.6306149960,1488507271.6330111027,        0.6005859375,       -0.0947265625,       -0.0659179688,       68.2678222656,       20.4772949219,       49.6520996094
1488507271.6332979202,1488507271.6355869770,        0.6005859375,       -0.0947265625,       -0.0659179688,       68.2678222656,       20.4772949219,       49.6520996094
1488507271.6358718872,1488507271.6381618977,        0.5903320312,       -0.0727539062,       -0.0683593750,       67.7642822266,       20.5383300781,       49.4537353516
1488507271.6384480000,1488507271.6407330036,        0.5903320312,       -0.0727539062,       -0.0683593750,       67.7642822266,       20.5383300781,       49.4537353516
1488507271.6410169601,1488507271.6433169842,        0.5903320312,       -0.0727539062,       -0.0683593750,       67.2302246094,       20.2026367188,       49.6063232422
1488507271.6436018944,1488507271.6458880901,        0.5903320312,       -0.0727539062,       -0.0683593750,       67.2302246094,       20.2026367188,       49.6063232422
1488507271.6461720467,1488507271.6484599113,        0.5849609375,       -0.0683593750,       -0.0878906250,       66.0400390625,       20.3247070312,       50.0030517578
1488507271.6487441063,1488507271.6510341167,        0.5849609375,       -0.0683593750,       -0.0878906250,       66.0400390625,       20.3247070312,       50.0030517578
1488507271.6513199806,1488507271.6537730694,        0.5849609375,       -0.0683593750,       -0.0878906250,       66.0400390625,       20.3857421875,       50.6439208984
1488507271.6540660858,1488507271.6564779282,        0.5849609375,       -0.0683593750,       -0.0878906250,       63.5223388672,       20.3857421875,       50.6439208984
1488507271.6567718983,1488507271.6591939926,        0.5605468750,       -0.0688476562,       -0.0839843750,       59.6160888672,       20.2941894531,       51.1169433594
1488507271.6594851017,1488507271.6619169712,        0.5605468750,       -0.0688476562,       -0.0839843750,       60.0433349609,       20.2941894531,       51.1169433594
1488507271.6623189449,1488507271.6647419930,        0.5605468750,       -0.0688476562,       -0.0839843750,       56.8847656250,       19.9127197266,       51.0711669922
1488507271.6650350094,1488507271.6674499512,        0.5605468750,       -0.0527343750,       -0.0898437500,       56.8847656250,       19.9127197266,       51.0711669922
1488507271.6677410603,1488507271.6701560020,        0.5444335938,       -0.0527343750,       -0.0898437500,       53.6499023438,       19.1955566406,       50.7812500000
1488507271.6704471111,1488507271.6729159355,        0.5444335938,       -0.0527343750,       -0.0898437500,       53.6499023438,       19.1955566406,       50.7812500000
1488507271.6732079983,1488507271.6756289005,        0.5444335938,       -0.0527343750,       -0.0898437500,       49.7894287109,       18.6920166016,       50.3234863281
1488507271.6759200096,1488507271.6783339977,        0.5297851562,       -0.0263671875,       -0.1005859375,       49.7894287109,       18.6920166016,       50.3234863281
1488507271.6786270142,1488507271.6810500622,        0.5297851562,       -0.0263671875,       -0.1005859375,       46.0510253906,       17.9290771484,       49.7589111328
1488507271.6813440323,1488507271.6837670803,        0.5297851562,       -0.0263671875,       -0.1005859375,       46.0510253906,       17.9290771484,       49.7589111328
1488507271.6840579510,1488507271.6864778996,        0.5297851562,       -0.0263671875,       -0.1005859375,       42.5262451172,       16.7388916016,       48.8281250000
1488507271.6867699623,1488507271.6892650127,        0.5146484375,       -0.0009765625,       -0.1254882812,       42.5262451172,       16.7388916016,       48.8281250000
1488507271.6895570755,1488507271.6919670105,        0.5146484375,       -0.0009765625,       -0.1254882812,       38.4826660156,       15.4724121094,       47.8973388672
1488507271.6926789284,1488507271.6949748993,        0.5146484375,       -0.0009765625,       -0.1254882812,       38.4826660156,       15.4724121094,       47.8973388672
1488507271.6952619553,1488507271.6975519657,        0.5146484375,        0.1240234375,       -0.1435546875,       33.5998535156,       14.0838623047,       46.6613769531
1488507271.6978371143,1488507271.7001368999,        0.5175781250,        0.0253906250,       -0.1435546875,       33.5998535156,       14.0838623047,       46.6613769531
1488507271.7004210949,1488507271.7027890682,        0.5175781250,        0.0253906250,       -0.1435546875,       29.6936035156,       13.1988525391,       45.0134277344
1488507271.7030799389,1488507271.7054979801,        0.5175781250,        0.0253906250,       -0.1435546875,       29.5715332031,       13.1988525391,       45.0134277344
1488507271.7057900429,1488507271.7082118988,        0.5175781250,        0.0405273438,       -0.1660156250,       25.6652832031,       11.9323730469,       43.5333251953
1488507271.7085039616,1488507271.7109189034,        0.5185546875,        0.0405273438,       -0.1660156250,       25.1922607422,       11.9323730469,       43.5333251953
1488507271.7112081051,1488507271.7136330605,        0.5185546875,        0.0405273438,       -0.1660156250,       21.2860107422,       10.5438232422,       40.8325195312
1488507271.7139270306,1488507271.7163488865,        0.5185546875,        0.0405273438,       -0.1660156250,       20.4772949219,       10.5438232422,       40.8325195312
1488507271.7166399956,1488507271.7190589905,        0.5004882812,        0.0561523438,       -0.1704101562,       16.5710449219,        8.5601806641,       37.8265380859
1488507271.7193489075,1488507271.7217800617,        0.5004882812,        0.0561523438,       -0.1704101562,       16.3726806641,        8.5601806641,       37.8265380859
1488507271.7220630646,1488507271.7243540287,        0.5004882812,        0.0561523438,       -0.1704101562,       12.4664306641,        6.9427490234,       34.3933105469
1488507271.7246339321,1488507271.7269279957,        0.5004882812,        0.0561523438,       -0.1704101562,       14.0380859375,        6.9427490234,       34.3933105469
1488507271.7273209095,1488507271.7296190262,        0.4697265625,        0.0712890625,       -0.1787109375,       14.0380859375,        6.9427490234,       31.7993164062
1488507271.7299010754,1488507271.7322030067,        0.4697265625,        0.0712890625,       -0.1787109375,       11.4288330078,        4.5776367188,       31.7993164062
1488507271.7324860096,1488507271.7347888947,        0.4697265625,        0.0712890625,       -0.1787109375,       11.4288330078,        4.5776367188,       29.6020507812
1488507271.7350699902,1488507271.7373750210,        0.4697265625,        0.0712890625,       -0.1787109375,        8.4075927734,        2.6092529297,       29.6020507812
1488507271.7376539707,1488507271.7399458885,        0.4667968750,        0.0610351562,       -0.1738281250,        8.4075927734,        2.6092529297,       29.6020507812
1488507271.7402238846,1488507271.7426109314,        0.4667968750,        0.0610351562,       -0.1738281250,        5.4473876953,        1.3122558594,       27.8015136719
1488507271.7428898811,1488507271.7451870441,        0.4667968750,        0.0610351562,       -0.1738281250,        5.4473876953,        1.3122558594,       27.8015136719
1488507271.7454659939,1488507271.7477579117,        0.4667968750,        0.0610351562,       -0.1713867188,        2.9144287109,       -0.3051757812,       26.0620117188
1488507271.7480380535,1488507271.7503349781,        0.4609375000,        0.0463867188,       -0.1713867188,        2.9144287109,       -0.3051757812,       26.0620117188
1488507271.7506129742,1488507271.7530639172,        0.4609375000,        0.0463867188,       -0.1713867188,        1.4648437500,       -1.8768310547,       23.5137939453
1488507271.7533519268,1488507271.7557699680,        0.4609375000,        0.0463867188,       -0.1713867188,        1.4648437500,       -1.8768310547,       23.5137939453
1488507271.7560570240,1488507271.7584791183,        0.4609375000,        0.0581054688,       -0.1704101562,        0.5187988281,       -2.7923583984,       21.5148925781
1488507271.7587649822,1488507271.7611780167,        0.4487304688,        0.0581054688,       -0.1704101562,        0.5187988281,       -2.7923583984,       21.5148925781
1488507271.7614641190,1488507271.7639288902,        0.4487304688,        0.0581054688,       -0.1704101562,       -0.2593994141,       -3.6010742188,       19.5312500000
1488507271.7642149925,1488507271.7666339874,        0.4487304688,        0.0581054688,       -0.1704101562,       -0.2593994141,       -3.6010742188,       19.5312500000
1488507271.7669188976,1488507271.7693319321,        0.4414062500,        0.0751953125,       -0.1704101562,       -0.7781982422,       -5.0811767578,       17.6544189453
1488507271.7696199417,1488507271.7720420361,        0.4414062500,        0.0751953125,       -0.1704101562,       -0.7781982422,       -5.0811767578,       17.6544189453
1488507271.7723278999,1488507271.7747449875,        0.4414062500,        0.0751953125,       -0.1704101562,       -1.9989013672,       -6.5460205078,       15.7470703125
1488507271.7750310898,1488507271.7774488926,        0.4414062500,        0.0751953125,       -0.1704101562,       -1.9989013672,       -6.5460205078,       15.7470703125
1488507271.7777349949,1488507271.7801549435,        0.4384765625,        0.1010742188,       -0.1914062500,       -3.8146972656,       -9.1552734375,       14.1601562500
1488507271.7804410458,1488507271.7828419209,        0.4384765625,        0.1010742188,       -0.1914062500,       -3.8146972656,       -9.1552734375,       14.1601562500
1488507271.7831220627,1488507271.7854170799,        0.4384765625,        0.1010742188,       -0.1914062500,       -7.1716308594,      -11.7492675781,       12.3443603516
1488507271.7856979370,1488507271.7879920006,        0.4384765625,        0.1010742188,       -0.1914062500,       -7.1716308594,      -11.7492675781,       12.3443603516
1488507271.7882750034,1488507271.7905619144,        0.4423828125,        0.1157226562,       -0.2241210938,      -11.1236572266,      -13.5803222656,       11.2304687500
1488507271.7909569740,1488507271.7933590412,        0.4423828125,        0.1157226562,       -0.2241210938,      -11.1236572266,      -13.5803222656,       11.2304687500
1488507271.7936511040,1488507271.7960550785,        0.4423828125,        0.1157226562,       -0.2241210938,      -13.7786865234,      -15.2740478516,       10.0097656250
1488507271.7963459492,1488507271.7987480164,        0.4423828125,        0.1621093750,       -0.2202148438,      -13.7786865234,      -15.2740478516,       10.0097656250
1488507271.7990388870,1488507271.8014469147,        0.4291992188,        0.1621093750,       -0.2202148438,      -15.4876708984,      -17.5323486328,        7.3699951172
1488507271.8017449379,1488507271.8041510582,        0.4291992188,        0.1621093750,       -0.2202148438,      -15.4876708984,      -17.5323486328,        7.3699951172
1488507271.8044400215,1488507271.8068430424,        0.4291992188,        0.1621093750,       -0.2202148438,      -16.1743164062,      -19.1650390625,        3.1280517578
1488507271.8071310520,1488507271.8097369671,        0.4267578125,        0.2460937500,       -0.2739257812,      -16.1743164062,      -19.1650390625,        3.1280517578
1488507271.8100249767,1488507271.8127501011,        0.4267578125,        0.2460937500,       -0.2739257812,      -17.3492431641,      -21.0571289062,       -2.0141601562
1488507271.8130419254,1488507271.8154540062,        0.4267578125,        0.2460937500,       -0.2739257812,      -17.3492431641,      -21.0571289062,       -2.0141601562
1488507271.8157439232,1488507271.8181428909,        0.4267578125,        0.2460937500,       -0.2739257812,      -19.3634033203,      -23.2849121094,       -8.9874267578
1488507271.8184320927,1488507271.8208398819,        0.4404296875,        0.3183593750,       -0.3046875000,      -19.3634033203,      -23.2849121094,       -8.9874267578
1488507271.8211278915,1488507271.8235440254,        0.4404296875,        0.3183593750,       -0.3046875000,      -22.4304199219,      -26.3824462891,      -16.6320800781
1488507271.8238339424,1488507271.8262379169,        0.4404296875,        0.3183593750,       -0.3046875000,      -22.4304199219,      -26.3824462891,      -16.6320800781
1488507271.8265290260,1488507271.8289320469,        0.4404296875,        0.3183593750,       -0.3388671875,      -26.1993408203,      -29.5410156250,      -23.7426757812
1488507271.8292250633,1488507271.8316280842,        0.4633789062,        0.3403320312,       -0.3388671875,      -26.1993408203,      -29.5410156250,      -23.7426757812
1488507271.8319690228,1488507271.8344490528,        0.4633789062,        0.3403320312,       -0.3388671875,      -31.4025878906,      -32.0281982422,      -29.4036865234
1488507271.8347430229,1488507271.8371620178,        0.4633789062,        0.3403320312,       -0.3388671875,      -31.4025878906,      -32.0281982422,      -29.4036865234
1488507271.8374540806,1488507271.8398699760,        0.4941406250,        0.2919921875,       -0.3408203125,      -36.4074707031,      -34.2407226562,      -34.5611572266
1488507271.8401620388,1488507271.8425550461,        0.4941406250,        0.2919921875,       -0.3408203125,      -36.4074707031,      -34.2407226562,      -34.5611572266
1488507271.8428399563,1488507271.8451271057,        0.4941406250,        0.2919921875,       -0.3408203125,      -41.1834716797,      -36.8347167969,      -38.9556884766
1488507271.8454110622,1488507271.8477001190,        0.4941406250,        0.2919921875,       -0.3408203125,      -41.1834716797,      -36.8347167969,      -38.9556884766
1488507271.8479850292,1488507271.8502850533,        0.5048828125,        0.2661132812,       -0.3437500000,      -45.3186035156,      -39.5050048828,      -42.8924560547
1488507271.8505680561,1488507271.8528990746,        0.5048828125,        0.2661132812,       -0.3437500000,      -45.3186035156,      -39.5050048828,      -42.8924560547
1488507271.8531830311,1488507271.8554749489,        0.5048828125,        0.2661132812,       -0.3437500000,      -48.3245849609,      -42.2973632812,      -46.6461181641
1488507271.8558659554,1488507271.8581678867,        0.5048828125,        0.2661132812,       -0.3437500000,      -48.3245849609,      -42.2973632812,      -46.6461181641
1488507271.8584520817,1488507271.8607358932,        0.4926757812,        0.2529296875,       -0.3627929688,      -50.3540039062,      -45.3796386719,      -50.8422851562
1488507271.8610200882,1488507271.8634090424,        0.4926757812,        0.2529296875,       -0.3627929688,      -50.3540039062,      -45.3796386719,      -50.8422851562
1488507271.8636939526,1488507271.8659880161,        0.4926757812,        0.2529296875,       -0.3627929688,      -54.2602539062,      -48.6907958984,      -54.8706054688
1488507271.8662719727,1488507271.8685638905,        0.4926757812,        0.2529296875,       -0.3627929688,      -52.2460937500,      -48.6907958984,      -54.8706054688
1488507271.8688459396,1488507271.8711431026,        0.4980468750,        0.2456054688,       -0.3725585938,      -52.2460937500,      -52.5970458984,      -58.9447021484
1488507271.8714270592,1488507271.8739190102,        0.4980468750,        0.2456054688,       -0.3725585938,      -53.1616210938,      -51.3153076172,      -58.9447021484
1488507271.8742120266,1488507271.8766260147,        0.4980468750,        0.2456054688,       -0.3725585938,      -53.1616210938,      -51.3153076172,      -62.5305175781
1488507271.8769180775,1488507271.8793408871,        0.4980468750,        0.2456054688,       -0.3510742188,      -53.3142089844,      -53.5430908203,      -62.5305175781
1488507271.8796319962,1488507271.8820929527,        0.5224609375,        0.2382812500,       -0.3510742188,      -53.3142089844,      -57.4493408203,      -64.9566650391
1488507271.8823850155,1488507271.8848090172,        0.5224609375,        0.2382812500,       -0.3510742188,      -52.5360107422,      -55.1300048828,      -64.9566650391
1488507271.8850998878,1488507271.8875160217,        0.5224609375,        0.2382812500,       -0.3510742188,      -52.5360107422,      -55.1300048828,      -65.4449462891
1488507271.8878090382,1488507271.8902249336,        0.5590820312,       -0.0205078125,       -0.3735351562,      -50.5676269531,      -56.5032958984,      -65.4449462891
1488507271.8905179501,1488507271.8928899765,        0.5590820312,       -0.0205078125,       -0.3735351562,      -50.5676269531,      -56.5032958984,      -54.8095703125
1488507271.8931748867,1488507271.8954699039,        0.5590820312,       -0.0205078125,       -0.3735351562,      -40.2984619141,      -57.1746826172,      -54.8095703125
1488507271.8957560062,1488507271.8980460167,        0.5590820312,       -0.0205078125,       -0.3735351562,      -40.2984619141,      -57.1746826172,      -39.1235351562
1488507271.8983321190,1488507271.9006240368,        0.8681640625,       -0.8115234375,        0.1264648438,      -46.3104248047,      -48.2482910156,      -39.1235351562
1488507271.9009089470,1488507271.9033160210,        0.8681640625,       -0.8115234375,        0.1264648438,      -46.3104248047,      -48.2482910156,      -27.4047851562
1488507271.9036059380,1488507271.9060161114,        0.8681640625,       -0.8115234375,        0.1264648438,      -53.2531738281,      -35.7666015625,      -29.7088623047
1488507271.9063069820,1488507271.9087059498,        0.8681640625,       -0.8115234375,        0.1264648438,      -53.2531738281,      -35.7666015625,      -14.0838623047
1488507271.9089961052,1488507271.9114010334,        0.9458007812,       -1.5766601562,        0.5517578125,      -45.7153320312,      -25.4211425781,      -12.6647949219
1488507271.9117031097,1488507271.9141690731,        0.9458007812,       -1.5766601562,        0.5517578125,      -45.7153320312,      -25.4211425781,        6.8664550781
1488507271.9144570827,1488507271.9168560505,        0.9458007812,       -1.5766601562,        0.5517578125,      -40.6494140625,      -12.4664306641,        5.3710937500
1488507271.9171419144,1488507271.9195408821,        0.9458007812,       -1.5766601562,        0.7905273438,      -40.6494140625,      -12.4664306641,       13.1835937500
1488507271.9199430943,1488507271.9223620892,        1.0024414062,       -1.7421875000,        0.7905273438,      -18.1427001953,       -9.2620849609,       11.8865966797
1488507271.9226469994,1488507271.9250469208,        1.0024414062,       -1.7421875000,        0.7905273438,      -18.1427001953,       -9.2620849609,       -3.7384033203
1488507271.9253299236,1488507271.9277739525,        1.0024414062,       -1.7421875000,        0.7905273438,       27.3437500000,       -7.3699951172,       -2.4566650391
1488507271.9281890392,1488507271.9305939674,        1.1166992188,       -0.6718750000,        0.2080078125,       27.3437500000,       -7.3699951172,      -34.4390869141
1488507271.9308810234,1488507271.9334681034,        1.1166992188,       -0.6718750000,        0.2080078125,       83.6029052734,       -7.0495605469,      -34.4390869141
1488507271.9337608814,1488507271.9361839294,        1.1166992188,       -0.6718750000,        0.2080078125,       83.6029052734,       -7.0495605469,      -63.5833740234
1488507271.9364740849,1488507271.9388899803,        1.1166992188,       -0.6718750000,        0.2080078125,      123.8708496094,      -10.7574462891,      -63.5833740234
1488507271.9391820431,1488507271.9416010380,        0.9799804688,        0.2177734375,       -0.1870117188,      123.8708496094,      -10.7574462891,      -81.6802978516
1488507271.9419419765,1488507271.9442300797,        0.9799804688,        0.2177734375,       -0.1870117188,      140.0451660156,      -18.6614990234,      -81.6802978516
1488507271.9445159435,1488507271.9468109608,        0.9799804688,        0.2177734375,       -0.1870117188,      140.0451660156,      -18.6614990234,      -93.3990478516
1488507271.9470949173,1488507271.9493970871,        0.9799804688,        0.2177734375,       -0.1870117188,      141.7083740234,      -31.7230224609,      -89.9505615234
1488507271.9496829510,1488507271.9520010948,        0.8837890625,        0.5654296875,       -0.3139648438,      141.7083740234,      -31.7230224609,      -89.9505615234
1488507271.9522960186,1488507271.9547181129,        0.8837890625,        0.5654296875,       -0.3139648438,      122.9095458984,      -41.2597656250,      -89.1723632812
1488507271.9550120831,1488507271.9574289322,        0.8837890625,        0.5654296875,       -0.3139648438,      122.9095458984,      -41.2597656250,      -89.1723632812
1488507271.9577209949,1488507271.9601430893,        0.8837890625,        0.4404296875,       -0.0175781250,       92.7276611328,      -44.6166992188,      -82.0159912109
1488507271.9604349136,1488507271.9628438950,        0.9428710938,        0.4091796875,       -0.0175781250,       92.7276611328,      -44.6166992188,      -82.0159912109
1488507271.9631299973,1488507271.9654219151,        0.9428710938,        0.4091796875,       -0.0175781250,       66.2231445312,      -45.0439453125,      -75.1800537109
1488507271.9657089710,1488507271.9680070877,        0.9428710938,        0.4091796875,       -0.0175781250,       66.2231445312,      -45.0439453125,      -75.1800537109
1488507271.9682929516,1488507271.9705920219,        0.9428710938,        0.3125000000,        0.0917968750,       49.4689941406,      -45.3796386719,      -71.8994140625
1488507271.9708769321,1488507271.9732220173,        0.8793945312,        0.3125000000,        0.0917968750,       49.4689941406,      -45.3796386719,      -71.8994140625
1488507271.9735100269,1488507271.9757978916,        0.8793945312,        0.3125000000,        0.0917968750,       39.6728515625,      -46.5698242188,      -71.7773437500
1488507271.9760820866,1488507271.9783771038,        0.8793945312,        0.3125000000,        0.0917968750,       39.6728515625,      -46.5698242188,      -71.7773437500
1488507271.9786620140,1488507271.9809589386,        0.7978515625,        0.1279296875,       -0.0117187500,       34.0423583984,      -47.4853515625,      -71.7315673828
1488507271.9812419415,1488507271.9835898876,        0.7978515625,        0.1279296875,       -0.0117187500,       34.0423583984,      -47.4853515625,      -71.7315673828
1488507271.9839890003,1488507271.9862771034,        0.7978515625,        0.1279296875,       -0.0117187500,       29.9224853516,      -47.0428466797,      -71.6094970703
1488507271.9865620136,1488507271.9888539314,        0.7978515625,        0.1279296875,       -0.0117187500,       29.9224853516,      -47.0428466797,      -71.6094970703
1488507271.9891378880,1488507271.9914319515,        0.7324218750,        0.0180664062,       -0.0830078125,       25.1464843750,      -45.0439453125,      -72.4334716797
1488507271.9918479919,1488507271.9941389561,        0.7324218750,        0.0180664062,       -0.0830078125,       25.1464843750,      -45.0439453125,      -72.4334716797
1488507271.9944250584,1488507271.9967150688,        0.7324218750,        0.0180664062,       -0.0830078125,       17.1051025391,      -42.4194335938,      -73.7152099609
1488507271.9970018864,1488507271.9992959499,        0.7324218750,        0.0180664062,       -0.0830078125,       17.1051025391,      -42.4194335938,      -73.7152099609
1488507271.9995820522,1488507272.0019230843,        0.6220703125,        0.0229492188,       -0.1572265625,       17.1051025391,      -40.5883789062,      -73.0133056641
1488507272.0022099018,1488507272.0045080185,        0.6220703125,        0.0229492188,       -0.1572265625,        7.9498291016,      -40.5883789062,      -73.0133056641
1488507272.0047900677,1488507272.0070769787,        0.6220703125,        0.0229492188,       -0.1572265625,        7.9498291016,      -36.6821289062,      -71.0144042969
1488507272.0073580742,1488507272.0096430779,        0.6220703125,        0.0229492188,       -0.1572265625,       -2.0599365234,      -39.0625000000,      -71.0144042969
1488507272.0099239349,1488507272.0123069286,        0.4946289062,        0.0708007812,       -0.2983398438,       -2.0599365234,      -39.0625000000,      -66.6809082031
1488507272.0125880241,1488507272.0148739815,        0.4946289062,        0.0708007812,       -0.2983398438,      -10.0250244141,      -38.5742187500,      -66.6809082031
1488507272.0151588917,1488507272.0174500942,        0.4946289062,        0.0708007812,       -0.2983398438,      -10.0250244141,      -38.5742187500,      -66.6809082031
1488507272.0177350044,1488507272.0200300217,        0.4946289062,        0.0708007812,       -0.2983398438,      -13.5345458984,      -40.6951904297,      -62.6220703125
1488507272.0203149319,1488507272.0227129459,        0.4067382812,        0.1318359375,       -0.5483398438,      -13.5345458984,      -40.6951904297,      -62.6220703125
1488507272.0230040550,1488507272.0254259109,        0.4067382812,        0.1318359375,       -0.5483398438,      -12.1154785156,      -44.9829101562,      -60.4553222656
1488507272.0257179737,1488507272.0281341076,        0.4067382812,        0.1318359375,       -0.5483398438,      -12.1154785156,      -44.9829101562,      -60.4553222656
1488507272.0284249783,1488507272.0308420658,        0.4067382812,        0.0068359375,       -0.6088867188,      -10.9405517578,      -48.0804443359,      -59.1735839844
1488507272.0311338902,1488507272.0335628986,        0.5600585938,        0.0629882812,       -0.6088867188,      -10.9405517578,      -48.0804443359,      -59.1735839844
1488507272.0338559151,1488507272.0362749100,        0.5600585938,        0.0629882812,       -0.6088867188,      -10.6658935547,      -46.4172363281,      -57.3883056641
1488507272.0365660191,1488507272.0389859676,        0.5600585938,        0.0629882812,       -0.6088867188,      -10.6658935547,      -46.4172363281,      -57.3883056641
1488507272.0392808914,1488507272.0417079926,        0.6669921875,       -0.0053710938,       -0.3500976562,      -10.7421875000,      -42.7093505859,      -54.9926757812
1488507272.0419940948,1488507272.0442891121,        0.6669921875,       -0.0053710938,       -0.3500976562,      -10.7421875000,      -42.7093505859,      -54.9926757812
1488507272.0445749760,1488507272.0468730927,        0.6669921875,       -0.0053710938,       -0.3500976562,       -9.7045898438,      -38.2537841797,      -51.3763427734
1488507272.0472619534,1488507272.0497300625,        0.6669921875,       -0.0053710938,       -0.3500976562,       -9.7045898438,      -38.2537841797,      -51.3763427734
1488507272.0500140190,1488507272.0525848866,        0.6474609375,        0.0927734375,       -0.1791992188,       -7.9193115234,      -35.7666015625,      -47.6226806641
1488507272.0528779030,1488507272.0552940369,        0.6474609375,        0.0927734375,       -0.1791992188,       -7.9193115234,      -35.7666015625,      -47.6226806641
1488507272.0555849075,1488507272.0580000877,        0.6474609375,        0.0927734375,       -0.1791992188,       -7.5683593750,      -34.0728759766,      -45.1812744141
1488507272.0582890511,1488507272.0607070923,        0.6474609375,        0.0927734375,       -0.1791992188,       -7.5683593750,      -34.0728759766,      -45.1812744141
1488507272.0609951019,1488507272.0634250641,        0.6455078125,        0.1528320312,       -0.1835937500,       -8.2397460938,      -32.5469970703,      -43.1365966797
1488507272.0637149811,1488507272.0661289692,        0.6455078125,        0.1528320312,       -0.1835937500,       -8.2397460938,      -32.5469970703,      -43.1365966797
1488507272.0664169788,1488507272.0688390732,        0.6455078125,        0.1528320312,       -0.1835937500,       -9.9334716797,      -31.9519042969,      -40.7409667969
1488507272.0691258907,1488507272.0715401173,        0.6455078125,        0.0815429688,       -0.1855468750,       -9.9334716797,      -31.9519042969,      -40.7409667969
1488507272.0718328953,1488507272.0742609501,        0.7099609375,        0.0815429688,       -0.1855468750,      -12.2070312500,      -30.7922363281,      -39.2761230469
1488507272.0745539665,1488507272.0769689083,        0.7099609375,        0.0815429688,       -0.1855468750,      -12.2070312500,      -30.7922363281,      -39.2761230469
1488507272.0772600174,1488507272.0796830654,        0.7099609375,        0.0815429688,       -0.1855468750,      -13.9007568359,      -29.1290283203,      -37.9486083984
1488507272.0799748898,1488507272.0823819637,        0.7006835938,       -0.0136718750,       -0.1279296875,      -13.9007568359,      -29.1290283203,      -37.9486083984
1488507272.0826649666,1488507272.0849549770,        0.7006835938,       -0.0136718750,       -0.1279296875,      -12.1917724609,      -28.1677246094,      -37.1398925781
1488507272.0852410793,1488507272.0875310898,        0.7006835938,       -0.0136718750,       -0.1279296875,      -12.1917724609,      -28.1677246094,      -37.1398925781
1488507272.0878169537,1488507272.0901110172,        0.7006835938,       -0.0136718750,       -0.1279296875,       -8.0566406250,      -28.1982421875,      -36.3616943359
1488507272.0903930664,1488507272.0926990509,        0.6328125000,       -0.0117187500,       -0.1279296875,       -8.0566406250,      -28.1982421875,      -36.3616943359
1488507272.0929811001,1488507272.0952761173,        0.6328125000,       -0.0117187500,       -0.1279296875,       -3.4942626953,      -28.4576416016,      -35.8276367188
1488507272.0955579281,1488507272.0978519917,        0.6328125000,       -0.0117187500,       -0.1279296875,       -3.4942626953,      -28.4576416016,      -35.8276367188
1488507272.0981318951,1488507272.1004240513,        0.6328125000,       -0.0117187500,       -0.1279296875,        0.2288818359,      -29.2205810547,      -35.0341796875
1488507272.1007070541,1488507272.1031761169,        0.6049804688,        0.0317382812,       -0.1464843750,        0.2288818359,      -29.2205810547,      -35.0341796875
1488507272.1034588814,1488507272.1057529449,        0.6049804688,        0.0317382812,       -0.1464843750,        0.9155273438,      -30.1055908203,      -34.1033935547
1488507272.1060349941,1488507272.1083290577,        0.6049804688,        0.0317382812,       -0.1464843750,        0.9155273438,      -30.1055908203,      -34.1033935547
1488507272.1086099148,1488507272.1109139919,        0.6049804688,        0.0317382812,       -0.1464843750,       -2.9907226562,      -30.1971435547,      -32.5622558594
1488507272.1112990379,1488507272.1138339043,        0.6157226562,        0.0195312500,       -0.1538085938,       -0.2136230469,      -30.1971435547,      -32.5622558594
1488507272.1141240597,1488507272.1165471077,        0.6157226562,        0.0195312500,       -0.1538085938,       -2.0446777344,      -29.7088623047,      -30.8837890625
1488507272.1168351173,1488507272.1192510128,        0.6157226562,        0.0195312500,       -0.1538085938,       -2.0446777344,      -29.7088623047,      -30.8837890625
1488507272.1195399761,1488507272.1219680309,        0.6157226562,        0.0366210938,       -0.1772460938,       -4.8980712891,      -29.7851562500,      -29.7546386719
1488507272.1222579479,1488507272.1246759892,        0.6108398438,        0.0366210938,       -0.1772460938,       -4.8980712891,      -29.7851562500,      -29.7546386719
1488507272.1249680519,1488507272.1273798943,        0.6108398438,        0.0366210938,       -0.1772460938,       -8.8043212891,      -31.0668945312,      -28.4118652344
1488507272.1276679039,1488507272.1300830841,        0.6108398438,        0.0366210938,       -0.1772460938,       -9.5062255859,      -31.0668945312,      -28.4118652344
1488507272.1303730011,1488507272.1328101158,        0.6176757812,        0.0502929688,       -0.1777343750,      -13.4124755859,      -31.5856933594,      -26.5655517578
1488507272.1331019402,1488507272.1355140209,        0.6176757812,        0.0502929688,       -0.1777343750,      -15.3503417969,      -31.5856933594,      -26.5655517578
1488507272.1358048916,1488507272.1382279396,        0.6176757812,        0.0502929688,       -0.1777343750,      -23.1628417969,      -30.7464599609,      -24.2004394531
1488507272.1385219097,1488507272.1409370899,        0.6176757812,        0.0502929688,       -0.1777343750,      -22.9034423828,      -30.7464599609,      -24.2004394531
1488507272.1412279606,1488507272.1435430050,        0.6069335938,        0.0727539062,       -0.2202148438,      -34.6221923828,      -29.7393798828,      -21.9573974609
1488507272.1438269615,1488507272.1461250782,        0.6069335938,        0.0727539062,       -0.2202148438,      -32.4859619141,      -29.7393798828,      -21.9573974609
1488507272.1464090347,1488507272.1486999989,        0.6069335938,        0.0727539062,       -0.2202148438,      -32.4859619141,      -29.7393798828,      -19.9279785156
1488507272.1489839554,1488507272.1512770653,        0.6069335938,        0.0727539062,       -0.2202148438,      -41.2750244141,      -28.9001464844,      -19.9279785156
1488507272.1515610218,1488507272.1539869308,        0.6123046875,        0.0712890625,       -0.2104492188,      -41.2750244141,      -28.9001464844,      -18.9666748047
1488507272.1542799473,1488507272.1566979885,        0.6123046875,        0.0712890625,       -0.2104492188,      -46.0205078125,      -27.9693603516,      -18.9666748047
1488507272.1569910049,1488507272.1594140530,        0.6123046875,        0.0712890625,       -0.2104492188,      -46.0205078125,      -27.9693603516,      -17.6544189453
1488507272.1597080231,1488507272.1621389389,        0.6123046875,       -0.0537109375,       -0.2241210938,      -48.7213134766,      -26.7028808594,      -17.6544189453
1488507272.1624310017,1488507272.1648480892,        0.6123046875,       -0.0170898438,       -0.2241210938,      -48.7213134766,      -26.7028808594,      -17.7154541016
1488507272.1651420593,1488507272.1675639153,        0.6123046875,       -0.0170898438,       -0.2241210938,      -48.9196777344,      -26.2145996094,      -17.7154541016
1488507272.1679470539,1488507272.1704359055,        0.6123046875,       -0.0170898438,       -0.2241210938,      -48.9196777344,      -26.2145996094,      -17.6391601562
1488507272.1707310677,1488507272.1735649109,        0.5996093750,       -0.0581054688,       -0.2387695312,      -47.3327636719,      -25.4669189453,      -17.6391601562
1488507272.1738579273,1488507272.1762769222,        0.5996093750,       -0.0581054688,       -0.2387695312,      -43.4265136719,      -25.2990722656,      -17.7154541016
1488507272.1765708923,1488507272.1789929867,        0.5996093750,       -0.0581054688,       -0.2387695312,      -44.9218750000,      -25.2990722656,      -17.7154541016
1488507272.1793920994,1488507272.1818161011,        0.5996093750,       -0.0581054688,       -0.2387695312,      -44.9218750000,      -25.1159667969,      -18.6157226562
1488507272.1821100712,1488507272.1845319271,        0.5795898438,       -0.0532226562,       -0.2270507812,      -43.0603027344,      -25.1159667969,      -18.6157226562
1488507272.1848239899,1488507272.1872389317,        0.5795898438,       -0.0532226562,       -0.2270507812,      -39.1540527344,      -25.3448486328,      -18.7683105469
1488507272.1875319481,1488507272.1899559498,        0.5795898438,       -0.0532226562,       -0.2270507812,      -40.3900146484,      -25.3448486328,      -18.7683105469
1488507272.1902489662,1488507272.1926550865,        0.5795898438,       -0.0502929688,       -0.2148437500,      -36.4837646484,      -25.7110595703,      -19.2260742188
1488507272.1929399967,1488507272.1952369213,        0.5810546875,       -0.0502929688,       -0.2148437500,      -37.3382568359,      -25.7110595703,      -19.2260742188
1488507272.1955211163,1488507272.1978139877,        0.5810546875,       -0.0502929688,       -0.2148437500,      -37.3382568359,      -25.6042480469,      -19.6533203125
1488507272.1980969906,1488507272.2003889084,        0.5810546875,       -0.0502929688,       -0.2148437500,      -36.0412597656,      -25.6042480469,      -19.6533203125
1488507272.2006740570,1488507272.2029819489,        0.5810546875,       -0.0390625000,       -0.1953125000,      -36.0412597656,      -25.6042480469,      -20.4467773438
1488507272.2032680511,1488507272.2055630684,        0.5908203125,       -0.0390625000,       -0.1953125000,      -35.7513427734,      -25.5432128906,      -20.4467773438
1488507272.2058460712,1488507272.2081398964,        0.5908203125,       -0.0390625000,       -0.1953125000,      -35.7513427734,      -25.5432128906,      -20.4467773438
1488507272.2084250450,1488507272.2107191086,        0.5908203125,       -0.0390625000,       -0.1953125000,      -36.3464355469,      -24.7192382812,      -20.4315185547
1488507272.2110040188,1488507272.2133181095,        0.5996093750,       -0.0156250000,       -0.2055664062,      -36.3464355469,      -24.7192382812,      -20.4315185547
1488507272.2136030197,1488507272.2159049511,        0.5996093750,       -0.0156250000,       -0.2055664062,      -36.1480712891,      -24.8260498047,      -20.5841064453
1488507272.2161910534,1488507272.2184810638,        0.5996093750,       -0.0156250000,       -0.2055664062,      -36.1480712891,      -24.8260498047,      -20.5841064453
1488507272.2187650204,1488507272.2210569382,        0.5996093750,       -0.0156250000,       -0.2055664062,      -37.0941162109,      -26.1535644531,      -21.2402343750
1488507272.2213408947,1488507272.2237761021,        0.6206054688,       -0.0517578125,       -0.2270507812,      -37.0941162109,      -26.1535644531,      -21.2402343750
1488507272.2240610123,1488507272.2263579369,        0.6206054688,       -0.0517578125,       -0.2270507812,      -39.5812988281,      -25.6958007812,      -21.4538574219
1488507272.2266430855,1488507272.2289319038,        0.6206054688,       -0.0517578125,       -0.2270507812,      -39.5812988281,      -25.6958007812,      -21.4538574219
1488507272.2292180061,1488507272.2315149307,        0.6206054688,       -0.0517578125,       -0.2270507812,      -41.9311523438,      -23.5443115234,      -21.2097167969
1488507272.2318298817,1488507272.2342550755,        0.6093750000,       -0.0473632812,       -0.2456054688,      -41.9311523438,      -23.5443115234,      -21.2097167969
1488507272.2345480919,1488507272.2369720936,        0.6093750000,       -0.0473632812,       -0.2456054688,      -42.5720214844,      -22.9949951172,      -21.6827392578
1488507272.2372651100,1488507272.2396819592,        0.6093750000,       -0.0473632812,       -0.2456054688,      -42.5720214844,      -22.9949951172,      -21.6827392578
1488507272.2399740219,1488507272.2423710823,        0.6093750000,       -0.0473632812,       -0.2456054688,      -40.9698486328,      -23.1933593750,      -23.2696533203
1488507272.2427630424,1488507272.2450621128,        0.5991210938,       -0.0283203125,       -0.2421875000,      -40.9698486328,      -23.1933593750,      -23.2696533203
1488507272.2453479767,1488507272.2476410866,        0.5991210938,       -0.0283203125,       -0.2421875000,      -38.1011962891,      -23.2849121094,      -24.9786376953
1488507272.2479290962,1488507272.2502241135,        0.5991210938,       -0.0283203125,       -0.2421875000,      -38.1011962891,      -23.2849121094,      -24.9786376953
1488507272.2505080700,1488507272.2529270649,        0.5991210938,       -0.0283203125,       -0.2690429688,      -36.6058349609,      -21.9116210938,      -26.2603759766
1488507272.2532200813,1488507272.2556378841,        0.6000976562,       -0.0146484375,       -0.2690429688,      -36.6058349609,      -21.9116210938,      -26.2603759766
1488507272.2559289932,1488507272.2583489418,        0.6000976562,       -0.0146484375,       -0.2690429688,      -35.8581542969,      -20.4925537109,      -27.1606445312
1488507272.2586419582,1488507272.2610599995,        0.6000976562,       -0.0146484375,       -0.2690429688,      -35.8581542969,      -20.4925537109,      -27.1606445312
1488507272.2613511086,1488507272.2637760639,        0.6000976562,       -0.0097656250,       -0.2543945312,      -35.6597900391,      -20.4620361328,      -28.0303955078
1488507272.2640690804,1488507272.2664918900,        0.6005859375,       -0.0097656250,       -0.2543945312,      -35.6597900391,      -20.4620361328,      -28.0303955078
1488507272.2667849064,1488507272.2691950798,        0.6005859375,       -0.0097656250,       -0.2543945312,      -35.5072021484,      -20.4620361328,      -28.6407470703
1488507272.2694869041,1488507272.2719130516,        0.6005859375,       -0.0097656250,       -0.2543945312,      -35.5072021484,      -20.4620361328,      -28.6407470703
1488507272.2722029686,1488507272.2746250629,        0.6259765625,       -0.0615234375,       -0.2451171875,      -36.7431640625,      -18.9361572266,      -28.6560058594
1488507272.2749168873,1488507272.2773330212,        0.6259765625,       -0.0615234375,       -0.2451171875,      -36.7431640625,      -18.9361572266,      -28.6560058594
1488507272.2776269913,1488507272.2800490856,        0.6259765625,       -0.0615234375,       -0.2451171875,      -35.2325439453,      -18.4020996094,      -29.8156738281
1488507272.2803409100,1488507272.2827649117,        0.6259765625,       -0.0615234375,       -0.2451171875,      -35.2325439453,      -18.4020996094,      -29.8156738281
1488507272.2830560207,1488507272.2854690552,        0.6269531250,        0.0014648438,       -0.2099609375,      -33.2031250000,      -17.3034667969,      -30.9906005859
1488507272.2857599258,1488507272.2884070873,        0.6269531250,        0.0014648438,       -0.2099609375,      -33.2031250000,      -17.3034667969,      -30.9906005859
1488507272.2887039185,1488507272.2911059856,        0.6269531250,        0.0014648438,       -0.2099609375,      -30.5786132812,      -17.2729492188,      -31.4025878906
1488507272.2918460369,1488507272.2941489220,        0.6318359375,        0.0668945312,       -0.2197265625,      -30.5786132812,      -17.2729492188,      -31.4025878906
1488507272.2944369316,1488507272.2967319489,        0.6318359375,        0.0668945312,       -0.2197265625,      -27.7557373047,      -17.2119140625,      -31.9213867188
1488507272.2970170975,1488507272.2993149757,        0.6318359375,        0.0668945312,       -0.2197265625,      -27.7557373047,      -17.2119140625,      -31.9213867188
1488507272.2995989323,1488507272.3019499779,        0.6318359375,        0.0668945312,       -0.2197265625,      -26.1230468750,      -16.7694091797,      -32.1960449219
1488507272.3022410870,1488507272.3046600819,        0.6142578125,        0.0361328125,       -0.2265625000,      -26.1230468750,      -16.7694091797,      -32.1960449219
1488507272.3049519062,1488507272.3073709011,        0.6142578125,        0.0361328125,       -0.2265625000,      -25.0396728516,      -16.5100097656,      -33.0200195312
1488507272.3077709675,1488507272.3101940155,        0.6142578125,        0.0361328125,       -0.2265625000,      -25.0396728516,      -16.5100097656,      -33.0200195312
1488507272.3104870319,1488507272.3129189014,        0.6142578125,        0.0361328125,       -0.2265625000,      -23.7579345703,      -16.2658691406,      -33.5388183594
1488507272.3132100105,1488507272.3156321049,        0.6044921875,        0.0449218750,       -0.2407226562,      -23.7579345703,      -16.2658691406,      -33.5388183594
1488507272.3159248829,1488507272.3183450699,        0.6044921875,        0.0449218750,       -0.2407226562,      -22.0947265625,      -15.9912109375,      -34.3170166016
1488507272.3186380863,1488507272.3210539818,        0.6044921875,        0.0449218750,       -0.2407226562,      -22.0947265625,      -15.9912109375,      -34.3170166016
1488507272.3213460445,1488507272.3236730099,        0.6044921875,        0.0449218750,       -0.2416992188,      -21.1029052734,      -15.2282714844,      -34.2712402344
1488507272.3239569664,1488507272.3262500763,        0.6005859375,        0.0644531250,       -0.2416992188,      -21.1029052734,      -15.2282714844,      -34.2712402344
1488507272.3265359402,1488507272.3288259506,        0.6005859375,        0.0644531250,       -0.2416992188,      -19.8669433594,      -14.8468017578,      -34.3017578125
1488507272.3291089535,1488507272.3314030170,        0.6005859375,        0.0644531250,       -0.2416992188,      -19.8669433594,      -14.8468017578,      -34.3017578125
1488507272.3317210674,1488507272.3340098858,        0.6005859375,        0.0947265625,       -0.2500000000,      -19.8669433594,      -15.1062011719,      -34.2102050781
1488507272.3342969418,1488507272.3365950584,        0.5996093750,        0.0947265625,       -0.2500000000,      -19.9584960938,      -15.1062011719,      -34.2102050781
1488507272.3368809223,1488507272.3391759396,        0.5996093750,        0.0947265625,       -0.2500000000,      -19.9584960938,      -15.1062011719,      -33.8287353516
1488507272.3394610882,1488507272.3418300152,        0.5996093750,        0.0947265625,       -0.2500000000,      -20.3247070312,      -15.0909423828,      -33.8287353516
1488507272.3421330452,1488507272.3444468975,        0.5996093750,        0.1123046875,       -0.2543945312,      -20.3247070312,      -15.0909423828,      -32.7148437500
1488507272.3447320461,1488507272.3470289707,        0.5976562500,        0.1123046875,       -0.2543945312,      -21.3165283203,      -14.7399902344,      -32.7148437500
1488507272.3473138809,1488507272.3496088982,        0.5976562500,        0.1123046875,       -0.2543945312,      -21.3165283203,      -14.7399902344,      -32.7148437500
1488507272.3498940468,1488507272.3522889614,        0.5976562500,        0.1123046875,       -0.2543945312,      -22.0794677734,      -14.8773193359,      -31.4178466797
1488507272.3525810242,1488507272.3549981117,        0.5898437500,        0.1103515625,       -0.2539062500,      -22.0794677734,      -14.8773193359,      -27.5115966797
1488507272.3552899361,1488507272.3577070236,        0.5898437500,        0.1103515625,       -0.2539062500,      -22.3693847656,      -14.8925781250,      -31.0516357422
1488507272.3579990864,1488507272.3604118824,        0.5898437500,        0.1103515625,       -0.2539062500,      -22.3693847656,      -14.8925781250,      -31.0516357422
1488507272.3607048988,1488507272.3631350994,        0.5898437500,        0.1103515625,       -0.2539062500,      -22.3388671875,      -14.8773193359,      -30.7312011719
1488507272.3634269238,1488507272.3658440113,        0.6035156250,        0.1025390625,       -0.2465820312,      -22.3388671875,      -14.8773193359,      -30.7312011719
1488507272.3661360741,1488507272.3685529232,        0.6035156250,        0.1025390625,       -0.2465820312,      -22.0642089844,      -14.7399902344,      -29.6936035156
1488507272.3688449860,1488507272.3712599277,        0.6035156250,        0.1025390625,       -0.2465820312,      -22.0642089844,      -14.7399902344,      -29.6936035156
1488507272.3717000484,1488507272.3739979267,        0.6035156250,        0.1025390625,       -0.2597656250,      -20.9197998047,      -14.7552490234,      -29.0374755859
1488507272.3742830753,1488507272.3765769005,        0.6005859375,        0.1044921875,       -0.2597656250,      -20.9197998047,      -14.7552490234,      -29.0374755859
1488507272.3768620491,1488507272.3791561127,        0.6005859375,        0.1044921875,       -0.2597656250,      -20.4467773438,      -14.4195556641,      -28.5339355469
1488507272.3794400692,1488507272.3817648888,        0.6005859375,        0.1044921875,       -0.2597656250,      -20.4467773438,      -14.4195556641,      -28.5339355469
1488507272.3820500374,1488507272.3843359947,        0.6005859375,        0.1044921875,       -0.2695312500,      -20.5230712891,      -14.3737792969,      -28.3203125000
1488507272.3846209049,1488507272.3869149685,        0.5971679688,        0.1093750000,       -0.2695312500,      -20.5230712891,      -14.3737792969,      -28.3203125000
1488507272.3872010708,1488507272.3894839287,        0.5971679688,        0.1093750000,       -0.2695312500,      -20.5383300781,      -14.4500732422,      -28.0761718750
1488507272.3897690773,1488507272.3921580315,        0.5971679688,        0.1093750000,       -0.2695312500,      -20.5383300781,      -14.4500732422,      -28.0761718750
1488507272.3924429417,1488507272.3947360516,        0.5971679688,        0.1152343750,       -0.2729492188,      -20.6909179688,      -14.1754150391,      -27.6641845703
1488507272.3950209618,1488507272.3973069191,        0.5810546875,        0.1152343750,       -0.2729492188,      -20.6909179688,      -14.1754150391,      -27.6641845703
1488507272.3975920677,1488507272.3998820782,        0.5810546875,        0.1152343750,       -0.2729492188,      -21.7437744141,      -13.8702392578,      -27.1453857422
1488507272.4001660347,1488507272.4025239944,        0.5810546875,        0.1152343750,       -0.2729492188,      -21.7437744141,      -13.8702392578,      -27.1453857422
1488507272.4028089046,1488507272.4050989151,        0.5727539062,        0.1093750000,       -0.2709960938,      -23.1323242188,      -13.9160156250,      -27.1759033203
1488507272.4053859711,1488507272.4076750278,        0.5727539062,        0.1093750000,       -0.2709960938,      -23.1323242188,      -13.9160156250,      -27.1759033203
1488507272.4081668854,1488507272.4104719162,        0.5727539062,        0.1093750000,       -0.2709960938,      -23.8800048828,      -13.4887695312,      -27.7862548828
1488507272.4107599258,1488507272.4132299423,        0.5727539062,        0.1093750000,       -0.2709960938,      -23.8800048828,      -13.4887695312,      -27.7862548828
1488507272.4135179520,1488507272.4158079624,        0.5629882812,        0.0703125000,       -0.2714843750,      -23.8800048828,      -13.6718750000,      -28.5034179688
1488507272.4160931110,1488507272.4183769226,        0.5629882812,        0.0703125000,       -0.2714843750,      -24.7192382812,      -13.6718750000,      -28.5034179688
1488507272.4186611176,1488507272.4209539890,        0.5629882812,        0.0703125000,       -0.2714843750,      -24.7192382812,      -13.6718750000,      -28.9611816406
1488507272.4212379456,1488507272.4236359596,        0.5629882812,        0.0703125000,       -0.2714843750,      -25.0396728516,      -14.0228271484,      -28.9611816406
1488507272.4239280224,1488507272.4263420105,        0.5673828125,        0.0512695312,       -0.2749023438,      -25.0396728516,      -14.0228271484,      -30.3649902344
1488507272.4266350269,1488507272.4290530682,        0.5673828125,        0.0512695312,       -0.2749023438,      -25.0701904297,      -14.0838623047,      -30.3649902344
1488507272.4293479919,1488507272.4317789078,        0.5673828125,        0.0512695312,       -0.2749023438,      -25.0701904297,      -14.0838623047,      -32.2113037109
1488507272.4320719242,1488507272.4344959259,        0.5673828125,        0.0512695312,       -0.2749023438,      -24.4445800781,      -14.9688720703,      -32.2113037109
1488507272.4348978996,1488507272.4373180866,        0.5791015625,        0.0322265625,       -0.2705078125,      -24.4445800781,      -14.9688720703,      -33.5998535156
1488507272.4376111031,1488507272.4400250912,        0.5791015625,        0.0322265625,       -0.2705078125,      -23.5900878906,      -15.0146484375,      -33.5998535156
1488507272.4403181076,1488507272.4426999092,        0.5791015625,        0.0322265625,       -0.2705078125,      -23.5900878906,      -15.0146484375,      -34.4848632812
1488507272.4429850578,1488507272.4452779293,        0.5791015625,        0.0605468750,       -0.2617187500,      -22.6593017578,      -14.9688720703,      -34.4848632812
1488507272.4455618858,1488507272.4478569031,        0.6000976562,        0.0605468750,       -0.2617187500,      -22.6593017578,      -14.9688720703,      -35.9497070312
1488507272.4481410980,1488507272.4504408836,        0.6000976562,        0.0605468750,       -0.2617187500,      -22.0336914062,      -15.4113769531,      -35.9497070312
1488507272.4507250786,1488507272.4530799389,        0.6000976562,        0.0605468750,       -0.2617187500,      -22.0336914062,      -15.4113769531,      -35.9497070312
1488507272.4533660412,1488507272.4556651115,        0.6054687500,        0.0883789062,       -0.2402343750,      -21.7895507812,      -15.7165527344,      -37.2924804688
1488507272.4559500217,1488507272.4582450390,        0.6054687500,        0.0883789062,       -0.2402343750,      -21.7895507812,      -15.7165527344,      -37.2924804688
1488507272.4585309029,1488507272.4608259201,        0.6054687500,        0.0883789062,       -0.2402343750,      -22.0184326172,      -16.0522460938,      -38.3300781250
1488507272.4611120224,1488507272.4635601044,        0.6054687500,        0.0883789062,       -0.2402343750,      -22.0184326172,      -16.0522460938,      -38.3300781250
1488507272.4638459682,1488507272.4661428928,        0.6245117188,        0.0751953125,       -0.2353515625,      -22.0489501953,      -16.4031982422,      -39.5050048828
1488507272.4664270878,1488507272.4687190056,        0.6245117188,        0.0751953125,       -0.2353515625,      -22.0489501953,      -16.4031982422,      -39.5050048828
1488507272.4690039158,1488507272.4713020325,        0.6245117188,        0.0751953125,       -0.2353515625,      -20.7366943359,      -16.8914794922,      -40.6494140625
1488507272.4715859890,1488507272.4740850925,        0.6245117188,        0.0751953125,       -0.2353515625,      -20.7366943359,      -16.8914794922,      -40.6494140625
1488507272.4743781090,1488507272.4768059254,        0.6147460938,        0.0737304688,       -0.2294921875,      -19.7601318359,      -17.6849365234,      -41.7938232422
1488507272.4770979881,1488507272.4795200825,        0.6147460938,        0.0737304688,       -0.2294921875,      -19.7601318359,      -17.6849365234,      -41.7938232422
1488507272.4798119068,1488507272.4822320938,        0.6147460938,        0.0737304688,       -0.2294921875,      -19.5922851562,      -18.2342529297,      -42.9534912109
1488507272.4825239182,1488507272.4849400520,        0.6147460938,        0.0737304688,       -0.2294921875,      -19.5922851562,      -18.2342529297,      -42.9534912109
1488507272.4852321148,1488507272.4876480103,        0.6186523438,        0.0966796875,       -0.2338867188,      -19.2718505859,      -17.3034667969,      -44.3420410156
1488507272.4879400730,1488507272.4905030727,        0.6186523438,        0.0966796875,       -0.2338867188,      -19.2718505859,      -17.3034667969,      -44.3420410156
1488507272.4907910824,1488507272.4931700230,        0.6186523438,        0.0966796875,       -0.2338867188,      -19.5312500000,      -17.1508789062,      -45.7458496094
1488507272.4934549332,1488507272.4957489967,        0.7436523438,        0.0747070312,       -0.2221679688,      -19.5312500000,      -17.1508789062,      -45.7458496094
1488507272.4960329533,1488507272.4991400242,        0.6298828125,        0.0747070312,       -0.2221679688,      -18.3258056641,      -17.8527832031,      -47.5006103516
1488507272.4995379448,1488507272.5018320084,        0.6298828125,        0.0747070312,       -0.2221679688,      -18.3258056641,      -17.8527832031,      -47.5006103516
1488507272.5021181107,1488507272.5044090748,        0.6298828125,        0.0747070312,       -0.2221679688,      -17.0745849609,      -17.9595947266,      -48.5534667969
1488507272.5046949387,1488507272.5069849491,        0.6455078125,        0.0478515625,       -0.2377929688,      -17.0745849609,      -17.9595947266,      -48.5534667969
1488507272.5072700977,1488507272.5095570087,        0.6455078125,        0.0478515625,       -0.2377929688,      -15.8538818359,      -18.0969238281,      -50.2624511719
1488507272.5098400116,1488507272.5121328831,        0.6455078125,        0.0478515625,       -0.2377929688,      -15.8538818359,      -18.0969238281,      -50.2624511719
1488507272.5124170780,1488507272.5147030354,        0.6455078125,        0.0478515625,       -0.2377929688,      -15.1214599609,      -18.3868408203,      -52.5207519531
1488507272.5149860382,1488507272.5172760487,        0.6450195312,        0.0864257812,       -0.2270507812,      -15.1214599609,      -18.3868408203,      -52.5207519531
1488507272.5175600052,1488507272.5198490620,        0.6450195312,        0.0864257812,       -0.2270507812,      -14.4195556641,      -18.5394287109,      -53.9093017578
1488507272.5201339722,1488507272.5224719048,        0.6450195312,        0.0864257812,       -0.2270507812,      -14.4195556641,      -18.5394287109,      -53.9093017578
1488507272.5227560997,1488507272.5250430107,        0.6450195312,        0.0864257812,       -0.2270507812,      -14.2364501953,      -18.3410644531,      -54.8706054688
1488507272.5253291130,1488507272.5276169777,        0.6699218750,        0.1191406250,       -0.2377929688,      -14.2364501953,      -18.3410644531,      -54.8706054688
1488507272.5279009342,1488507272.5301890373,        0.6699218750,        0.1191406250,       -0.2377929688,      -14.3737792969,      -18.3258056641,      -56.5795898438
1488507272.5304739475,1488507272.5327670574,        0.6699218750,        0.1191406250,       -0.2377929688,      -14.3737792969,      -18.3258056641,      -56.5795898438
1488507272.5330529213,1488507272.5353369713,        0.6699218750,        0.1191406250,       -0.2377929688,      -14.3737792969,      -18.1579589844,      -58.4411621094
1488507272.5356218815,1488507272.5379109383,        0.6835937500,        0.1103515625,       -0.2343750000,      -16.1895751953,      -18.1579589844,      -58.4411621094
1488507272.5381948948,1488507272.5404849052,        0.6835937500,        0.1103515625,       -0.2343750000,      -16.1895751953,      -18.1579589844,      -60.2874755859
1488507272.5407691002,1488507272.5431969166,        0.6835937500,        0.1103515625,       -0.2343750000,      -17.0745849609,      -17.9595947266,      -60.2874755859
1488507272.5434811115,1488507272.5457689762,        0.6835937500,        0.1103515625,       -0.2543945312,      -17.0745849609,      -17.9595947266,      -62.2558593750
1488507272.5460529327,1488507272.5483410358,        0.6918945312,        0.0942382812,       -0.2543945312,      -18.1274414062,      -18.0664062500,      -62.2558593750
1488507272.5486259460,1488507272.5509219170,        0.6918945312,        0.0942382812,       -0.2543945312,      -18.1274414062,      -18.0664062500,      -62.2558593750
1488507272.5512070656,1488507272.5545120239,        0.6918945312,        0.0942382812,       -0.2543945312,      -18.9056396484,      -17.6696777344,      -64.1174316406
1488507272.5548169613,1488507272.5584440231,        0.7001953125,        0.0737304688,       -0.2500000000,      -19.1192626953,      -18.0358886719,      -66.4215087891
1488507272.5587639809,1488507272.5611898899,        0.7001953125,        0.0737304688,       -0.2500000000,      -19.1192626953,      -18.0358886719,      -66.4215087891
1488507272.5614850521,1488507272.5639169216,        0.7001953125,        0.0737304688,       -0.2500000000,      -19.4549560547,      -18.5852050781,      -68.4356689453
1488507272.5643620491,1488507272.5667769909,        0.7084960938,        0.0449218750,       -0.2534179688,      -19.4549560547,      -18.5852050781,      -68.4356689453
1488507272.5670700073,1488507272.5694839954,        0.7084960938,        0.0449218750,       -0.2534179688,      -19.6380615234,      -18.7072753906,      -70.9075927734
1488507272.5697779655,1488507272.5722050667,        0.7084960938,        0.0449218750,       -0.2534179688,      -19.6380615234,      -18.7072753906,      -70.9075927734
1488507272.5724980831,1488507272.5749149323,        0.7084960938,        0.0449218750,       -0.2534179688,      -19.9890136719,      -18.4631347656,      -73.4863281250
1488507272.5752060413,1488507272.5776190758,        0.7241210938,        0.0541992188,       -0.2783203125,      -19.9890136719,      -18.4631347656,      -73.4863281250
1488507272.5779099464,1488507272.5803289413,        0.7241210938,        0.0541992188,       -0.2783203125,      -20.9045410156,      -18.0511474609,      -76.0345458984
1488507272.5806210041,1488507272.5830409527,        0.7241210938,        0.0541992188,       -0.2783203125,      -20.9045410156,      -18.0511474609,      -76.0345458984
1488507272.5833370686,1488507272.5857529640,        0.7241210938,        0.0541992188,       -0.2783203125,      -21.5454101562,      -17.4102783203,      -77.6062011719
1488507272.5860469341,1488507272.5884621143,        0.7495117188,        0.0771484375,       -0.2832031250,      -21.5454101562,      -17.4102783203,      -77.6062011719
1488507272.5887539387,1488507272.5911719799,        0.7495117188,        0.0771484375,       -0.2832031250,      -21.8963623047,      -17.6544189453,      -79.5745849609
1488507272.5914640427,1488507272.5940060616,        0.7495117188,        0.0771484375,       -0.2832031250,      -21.8963623047,      -17.6544189453,      -79.5745849609
1488507272.5942978859,1488507272.5967099667,        0.7495117188,        0.0668945312,       -0.2768554688,      -23.0560302734,      -18.2952880859,      -81.5734863281
1488507272.5970029831,1488507272.5994288921,        0.7543945312,        0.0668945312,       -0.2768554688,      -23.0560302734,      -18.2952880859,      -81.5734863281
1488507272.5997209549,1488507272.6021571159,        0.7543945312,        0.0668945312,       -0.2768554688,      -25.5432128906,      -18.0206298828,      -84.0911865234
1488507272.6024489403,1488507272.6048660278,        0.7543945312,        0.0668945312,       -0.2768554688,      -25.5432128906,      -18.0206298828,      -84.0911865234
1488507272.6051590443,1488507272.6075809002,        0.7680664062,        0.0429687500,       -0.2812500000,      -27.8472900391,      -18.0206298828,      -86.0290527344
1488507272.6080040932,1488507272.6104340553,        0.7680664062,        0.0429687500,       -0.2812500000,      -27.8472900391,      -18.0206298828,      -86.0290527344
1488507272.6107270718,1488507272.6137969494,        0.7680664062,        0.0429687500,       -0.2812500000,      -28.5797119141,      -17.9443359375,      -88.1500244141
1488507272.6140871048,1488507272.6163771152,        0.7680664062,        0.0429687500,       -0.2504882812,      -28.5797119141,      -17.9443359375,      -92.0562744141
1488507272.6166620255,1488507272.6189520359,        0.7954101562,        0.0229492188,       -0.2504882812,      -29.4647216797,      -17.7001953125,      -90.1794433594
1488507272.6192369461,1488507272.6215269566,        0.7954101562,        0.0229492188,       -0.2504882812,      -29.4647216797,      -17.7001953125,      -90.1794433594
1488507272.6218190193,1488507272.6241059303,        0.7954101562,        0.0229492188,       -0.2504882812,      -30.6396484375,      -17.5476074219,      -92.8497314453
1488507272.6243920326,1488507272.6266860962,        0.7954101562,       -0.1020507812,       -0.2514648438,      -30.6396484375,      -17.5476074219,      -92.8497314453
1488507272.6269719601,1488507272.6292560101,        0.8369140625,       -0.0019531250,       -0.2514648438,      -31.9671630859,      -17.7154541016,      -96.4813232422
1488507272.6296510696,1488507272.6319611073,        0.8369140625,       -0.0019531250,       -0.2514648438,      -31.9671630859,      -17.7154541016,      -96.4813232422
1488507272.6322460175,1488507272.6345410347,        0.8369140625,       -0.0019531250,       -0.2514648438,      -33.7524414062,      -17.7154541016,      -99.8840332031
1488507272.6348280907,1488507272.6371159554,        0.8369140625,       -0.0283203125,       -0.2446289062,      -33.7524414062,      -17.7154541016,      -99.8840332031
1488507272.6374030113,1488507272.6396980286,        0.8603515625,       -0.0283203125,       -0.2446289062,      -36.6821289062,      -18.9056396484,     -102.9968261719
1488507272.6399850845,1488507272.6423161030,        0.8603515625,       -0.0283203125,       -0.2446289062,      -36.6821289062,      -18.9056396484,     -102.9968261719
1488507272.6426010132,1488507272.6448929310,        0.8603515625,       -0.0283203125,       -0.2446289062,      -41.1376953125,      -20.2331542969,     -105.5145263672
1488507272.6451790333,1488507272.6474668980,        0.8818359375,       -0.0488281250,       -0.2329101562,      -41.1376953125,      -20.2331542969,     -105.5145263672
1488507272.6477510929,1488507272.6500360966,        0.8818359375,       -0.0488281250,       -0.2329101562,      -46.8750000000,      -21.5759277344,     -108.5662841797
1488507272.6503190994,1488507272.6526889801,        0.8818359375,       -0.0488281250,       -0.2329101562,      -46.8750000000,      -21.5759277344,     -108.5662841797
1488507272.6529729366,1488507272.6552619934,        0.8818359375,       -0.0488281250,       -0.2329101562,      -54.6875000000,      -22.8729248047,     -111.4807128906
1488507272.6555459499,1488507272.6578340530,        0.9189453125,       -0.0834960938,       -0.2202148438,      -54.3823242188,      -22.8729248047,     -111.4807128906
1488507272.6581199169,1488507272.6604049206,        0.9189453125,       -0.0834960938,       -0.2202148438,      -54.3823242188,      -26.7791748047,     -113.6322021484
1488507272.6606900692,1488507272.6631610394,        0.9189453125,       -0.0834960938,       -0.2202148438,      -62.0880126953,      -24.5513916016,     -113.6322021484
1488507272.6634480953,1488507272.6657409668,        0.9189453125,       -0.0834960938,       -0.2202148438,      -62.0880126953,      -28.4576416016,     -115.4327392578
1488507272.6660249233,1488507272.6683149338,        0.9731445312,       -0.1137695312,       -0.1962890625,      -70.1599121094,      -27.5421142578,     -115.4327392578
1488507272.6686019897,1488507272.6708910465,        0.9731445312,       -0.1137695312,       -0.1962890625,      -70.1599121094,      -27.5421142578,     -116.4398193359
1488507272.6711769104,1488507272.6735630035,        0.9731445312,       -0.1137695312,       -0.1962890625,      -78.3386230469,      -30.7006835938,     -116.4398193359
1488507272.6738491058,1488507272.6761379242,        0.9731445312,       -0.1137695312,       -0.1962890625,      -78.3386230469,      -30.7006835938,     -120.3460693359
1488507272.6764240265,1488507272.6787130833,        1.0600585938,       -0.1430664062,       -0.1826171875,      -87.8295898438,      -33.0810546875,     -118.1945800781
1488507272.6789979935,1488507272.6812880039,        1.0600585938,       -0.1430664062,       -0.1826171875,      -87.8295898438,      -33.0810546875,     -118.1945800781
1488507272.6815741062,1488507272.6838650703,        1.0600585938,       -0.1430664062,       -0.1826171875,      -98.4191894531,      -35.2478027344,     -119.2474365234
1488507272.6841509342,1488507272.6864330769,        1.0600585938,       -0.1430664062,       -0.1826171875,      -98.4191894531,      -35.2478027344,     -119.2474365234
1488507272.6867179871,1488507272.6890070438,        1.1381835938,       -0.1171875000,       -0.1572265625,     -110.6567382812,      -39.1693115234,     -118.3319091797
1488507272.6892929077,1488507272.6915791035,        1.1381835938,       -0.1171875000,       -0.1572265625,     -110.6567382812,      -39.1693115234,     -118.3319091797
1488507272.6920409203,1488507272.6944580078,        1.1381835938,       -0.1171875000,       -0.1572265625,     -123.0621337891,      -43.0908203125,     -116.5924072266
1488507272.6947500706,1488507272.6971750259,        1.1381835938,       -0.1171875000,       -0.1816406250,     -123.0621337891,      -43.0908203125,     -116.5924072266
1488507272.6974608898,1488507272.6997499466,        1.2446289062,       -0.1552734375,       -0.1816406250,     -134.2468261719,      -44.4335937500,     -116.4245605469
1488507272.7000350952,1488507272.7024390697,        1.2446289062,       -0.1552734375,       -0.1816406250,     -134.2468261719,      -44.4335937500,     -116.4245605469
1488507272.7027308941,1488507272.7051138878,        1.2446289062,       -0.1552734375,       -0.1816406250,     -142.2424316406,      -43.2739257812,     -119.8730468750
1488507272.7054030895,1488507272.7083420753,        1.2446289062,       -0.2998046875,       -0.1938476562,     -142.2424316406,      -43.2739257812,     -119.8730468750
1488507272.7086269855,1488507272.7109210491,        1.2822265625,       -0.2998046875,       -0.1938476562,     -139.1448974609,      -40.6799316406,     -127.9449462891
1488507272.7112050056,1488507272.7136869431,        1.2822265625,       -0.2998046875,       -0.1938476562,     -139.1448974609,      -40.6799316406,     -127.9449462891
1488507272.7139720917,1488507272.7162690163,        1.2822265625,       -0.2998046875,       -0.1938476562,     -124.4812011719,      -39.9017333984,     -139.2974853516
1488507272.7165551186,1488507272.7188460827,        1.1069335938,       -0.3247070312,       -0.2651367188,     -124.4812011719,      -39.9017333984,     -139.2974853516
1488507272.7191319466,1488507272.7214169502,        1.1069335938,       -0.3247070312,       -0.2651367188,     -101.9744873047,      -42.7856445312,     -151.4587402344
1488507272.7217309475,1488507272.7240290642,        1.1069335938,       -0.3247070312,       -0.2651367188,     -101.9744873047,      -42.7856445312,     -151.4587402344
1488507272.7243139744,1488507272.7265999317,        1.1069335938,       -0.3247070312,       -0.2651367188,      -74.1729736328,      -46.6918945312,     -160.6445312500
1488507272.7268838882,1488507272.7291729450,        1.0336914062,       -0.2788085938,       -0.3979492188,      -74.1729736328,      -46.6918945312,     -160.6445312500
1488507272.7294559479,1488507272.7317509651,        1.0336914062,       -0.2788085938,       -0.3979492188,      -50.6744384766,      -46.1120605469,     -163.8031005859
1488507272.7320361137,1488507272.7343270779,        1.0336914062,       -0.2788085938,       -0.3979492188,      -50.6744384766,      -46.1120605469,     -163.8031005859
1488507272.7346110344,1488507272.7369079590,        1.0336914062,       -0.2788085938,       -0.3979492188,      -38.9556884766,      -44.0521240234,     -165.0390625000
1488507272.7371919155,1488507272.7394869328,        1.0141601562,       -0.0737304688,       -0.4111328125,      -38.5131835938,      -44.0521240234,     -165.0390625000
1488507272.7397699356,1488507272.7421159744,        1.0141601562,       -0.0737304688,       -0.4111328125,      -38.5131835938,      -44.0521240234,     -163.2690429688
1488507272.7424008846,1488507272.7446949482,        1.0141601562,       -0.0737304688,       -0.4111328125,      -36.2091064453,      -43.3044433594,     -163.2690429688
1488507272.7449779510,1488507272.7472689152,        1.0141601562,       -0.0737304688,       -0.4111328125,      -36.2091064453,      -43.3044433594,     -156.3568115234
1488507272.7475531101,1488507272.7498359680,        1.0268554688,        0.1406250000,       -0.3505859375,      -41.6717529297,      -41.3055419922,     -156.3568115234
1488507272.7501220703,1488507272.7525780201,        1.0268554688,        0.1406250000,       -0.3505859375,      -41.6717529297,      -41.3055419922,     -145.7672119141
1488507272.7528619766,1488507272.7551510334,        1.0268554688,        0.1406250000,       -0.3505859375,      -52.1697998047,      -37.9028320312,     -145.7672119141
1488507272.7555370331,1488507272.7578260899,        1.0268554688,        0.1406250000,       -0.2666015625,      -52.1697998047,      -37.9028320312,     -137.9547119141
1488507272.7581100464,1488507272.7604060173,        0.9877929688,        0.1342773438,       -0.2666015625,      -62.9119873047,      -33.2031250000,     -137.2070312500
1488507272.7606899738,1488507272.7631409168,        0.9877929688,        0.1342773438,       -0.2666015625,      -62.9119873047,      -33.2031250000,     -137.2070312500
1488507272.7634251118,1488507272.7657189369,        0.9877929688,        0.1342773438,       -0.2666015625,      -70.0988769531,      -27.9083251953,     -133.2702636719
1488507272.7660019398,1488507272.7682878971,        0.9877929688,        0.0522460938,       -0.1752929688,      -70.0988769531,      -27.9083251953,     -133.2702636719
1488507272.7685749531,1488507272.7708640099,        0.8579101562,        0.0522460938,       -0.1752929688,      -69.7326660156,      -22.9339599609,     -131.2103271484
1488507272.7711501122,1488507272.7734630108,        0.8579101562,        0.0522460938,       -0.1752929688,      -69.7326660156,      -22.9339599609,     -131.2103271484
1488507272.7737491131,1488507272.7760369778,        0.8579101562,        0.0522460938,       -0.1752929688,      -60.0280761719,      -18.0511474609,     -130.0811767578
1488507272.7763240337,1488507272.7786149979,        0.7329101562,        0.1518554688,       -0.1528320312,      -60.0280761719,      -18.0511474609,     -130.0811767578
1488507272.7788989544,1488507272.7811939716,        0.6835937500,        0.1518554688,       -0.1528320312,      -42.6635742188,      -16.3574218750,     -130.2337646484
1488507272.7814779282,1488507272.7839369774,        0.6835937500,        0.1518554688,       -0.1528320312,      -42.6635742188,      -16.3574218750,     -130.2337646484
1488507272.7842280865,1488507272.7866499424,        0.6835937500,        0.1518554688,       -0.1528320312,      -22.9797363281,      -21.9421386719,     -125.7019042969
1488507272.7869429588,1488507272.7893590927,        0.3046875000,        0.3989257812,       -0.3320312500,      -22.9797363281,      -21.9421386719,     -125.7019042969
1488507272.7896521091,1488507272.7920930386,        0.3046875000,        0.3989257812,       -0.3320312500,      -11.7950439453,      -33.0810546875,     -112.0910644531
1488507272.7923800945,1488507272.7946789265,        0.3046875000,        0.3989257812,       -0.3320312500,      -11.7950439453,      -33.0810546875,     -112.0910644531
1488507272.7949650288,1488507272.7972600460,        0.3046875000,        0.3989257812,       -0.3320312500,       -5.3100585938,      -42.9840087891,      -91.2170410156
1488507272.7977180481,1488507272.8000149727,        0.1743164062,        0.3715820312,       -0.5141601562,       -5.3100585938,      -42.9840087891,      -91.2170410156
1488507272.8002970219,1488507272.8026559353,        0.1743164062,        0.3715820312,       -0.5141601562,       -7.8430175781,      -44.9676513672,      -66.8640136719
1488507272.8029379845,1488507272.8052279949,        0.1743164062,        0.3715820312,       -0.5141601562,       -7.8430175781,      -44.9676513672,      -66.8640136719
1488507272.8055078983,1488507272.8080310822,        0.1743164062,        0.3715820312,       -0.5141601562,      -17.3797607422,      -41.9464111328,      -43.4112548828
1488507272.8083360195,1488507272.8106400967,        0.2719726562,        0.1704101562,       -0.3598632812,      -17.3797607422,      -41.9464111328,      -43.4112548828
1488507272.8109269142,1488507272.8132870197,        0.2719726562,        0.1704101562,       -0.3598632812,      -23.4222412109,      -41.7633056641,      -25.4058837891
1488507272.8135719299,1488507272.8158640862,        0.2719726562,        0.1704101562,       -0.3598632812,      -23.4222412109,      -41.7633056641,      -25.4058837891
1488507272.8161470890,1488507272.8184299469,        0.2719726562,       -0.2045898438,       -0.2939453125,      -23.4222412109,      -42.1905517578,       -9.9334716797
1488507272.8187110424,1488507272.8210020065,        0.2968750000,       -0.1347656250,       -0.2939453125,      -27.5726318359,      -42.1905517578,       -9.9334716797
1488507272.8213930130,1488507272.8236899376,        0.2968750000,       -0.1347656250,       -0.2939453125,      -27.5726318359,      -38.2843017578,        6.0424804688
1488507272.8239710331,1488507272.8262600899,        0.2968750000,       -0.1347656250,       -0.2939453125,      -34.6984863281,      -35.4461669922,        6.0424804688
1488507272.8265409470,1488507272.8288290501,        0.2968750000,       -0.3911132812,       -0.1147460938,      -34.6984863281,      -35.4461669922,       21.3928222656
1488507272.8291149139,1488507272.8314039707,        0.2983398438,       -0.3911132812,       -0.1147460938,      -41.7022705078,      -23.8800048828,       21.3928222656
1488507272.8317270279,1488507272.8340170383,        0.2983398438,       -0.3911132812,       -0.1147460938,      -41.7022705078,      -23.8800048828,       33.1115722656
1488507272.8343029022,1488507272.8365950584,        0.2983398438,       -0.3911132812,       -0.1147460938,      -40.0695800781,      -14.5874023438,       34.3627929688
1488507272.8368799686,1488507272.8391709328,        0.1733398438,       -0.4638671875,       -0.0307617188,      -40.0695800781,      -14.5874023438,       34.3627929688
1488507272.8394570351,1488507272.8417499065,        0.2163085938,       -0.4638671875,       -0.0307617188,      -30.7769775391,       -8.7432861328,       45.2880859375
1488507272.8420341015,1488507272.8443191051,        0.2163085938,       -0.4638671875,       -0.0307617188,      -30.7769775391,       -8.7432861328,       45.2880859375
1488507272.8446021080,1488507272.8468899727,        0.2163085938,       -0.4638671875,       -0.0307617188,      -18.0511474609,       -4.7607421875,       55.1605224609
1488507272.8471701145,1488507272.8494598866,        0.1865234375,       -0.4487304688,       -0.0292968750,      -18.0511474609,       -4.7607421875,       55.1605224609
1488507272.8497419357,1488507272.8522200584,        0.1865234375,       -0.4487304688,       -0.0292968750,       -3.6163330078,       -0.4730224609,       65.4907226562
1488507272.8525009155,1488507272.8547899723,        0.1865234375,       -0.4487304688,       -0.0292968750,       -3.6163330078,       -0.4730224609,       65.4907226562
1488507272.8550701141,1488507272.8573610783,        0.1865234375,       -0.4487304688,       -0.0292968750,       10.8184814453,        3.0975341797,       74.9053955078
1488507272.8576428890,1488507272.8599369526,        0.1733398438,       -0.3486328125,       -0.0644531250,       10.8184814453,        3.0975341797,       74.9053955078
1488507272.8602190018,1488507272.8626649380,        0.1733398438,       -0.3486328125,       -0.0644531250,       25.1922607422,        5.8288574219,       84.0301513672
1488507272.8629488945,1488507272.8652360439,        0.1733398438,       -0.3486328125,       -0.0644531250,       25.1922607422,        5.8288574219,       84.0301513672
1488507272.8655190468,1488507272.8678109646,        0.1733398438,       -0.3486328125,       -0.0644531250,       37.1093750000,        7.9040527344,       93.5821533203
1488507272.8680920601,1488507272.8703820705,        0.1889648438,       -0.2153320312,       -0.1328125000,       37.1093750000,        7.9040527344,       93.5821533203
1488507272.8706638813,1488507272.8729760647,        0.1889648438,       -0.2153320312,       -0.1328125000,       48.8281250000,        9.8724365234,      103.0120849609
1488507272.8732590675,1488507272.8755478859,        0.1889648438,       -0.2153320312,       -0.1328125000,       47.5158691406,        9.8724365234,      103.0120849609
1488507272.8758299351,1488507272.8781199455,        0.1889648438,       -0.2153320312,       -0.1328125000,       47.5158691406,       13.7786865234,      112.1215820312
1488507272.8784050941,1488507272.8806939125,        0.2338867188,       -0.1225585938,       -0.1396484375,       55.1605224609,       12.8936767578,      112.1215820312
1488507272.8809809685,1488507272.8832759857,        0.2338867188,       -0.1225585938,       -0.1396484375,       55.1605224609,       12.8936767578,      121.0632324219
1488507272.8836770058,1488507272.8859670162,        0.2338867188,       -0.1225585938,       -0.1396484375,       60.7147216797,       16.5405273438,      121.0632324219
1488507272.8862531185,1488507272.8885409832,        0.2338867188,       -0.1225585938,       -0.1396484375,       60.7147216797,       16.5405273438,      132.7819824219
1488507272.8888258934,1488507272.8911170959,        0.2910156250,       -0.0195312500,       -0.1318359375,       65.6585693359,       19.9890136719,      129.9896240234
1488507272.8914029598,1488507272.8936979771,        0.2910156250,       -0.0195312500,       -0.1318359375,       65.6585693359,       19.9890136719,      129.9896240234
1488507272.8939840794,1488507272.8962719440,        0.2910156250,       -0.0195312500,       -0.1318359375,       69.3054199219,       24.1546630859,      139.1754150391
1488507272.8965559006,1488507272.8988471031,        0.2910156250,       -0.0195312500,       -0.0068359375,       69.3054199219,       24.1546630859,      139.1754150391
