time_stamp before, time_stamp after, Acceleration x, Acceleration y, Acceleration z, Gyro x, Gyro y, Gyro z
1488507220.0146069527,1488507220.0253651142,        0.6088867188,        0.0161132812,       -0.1254882812,        0.6256103516,       -0.2441406250,        0.1831054688
1488507220.0256679058,1488507220.0282649994,        0.6088867188,        0.0161132812,       -0.1254882812,        0.4730224609,        0.0152587891,        0.0915527344
1488507220.0285570621,1488507220.0309660435,        0.6088867188,        0.0161132812,       -0.1328125000,        0.4730224609,        0.0152587891,        0.0915527344
1488507220.0312490463,1488507220.0341548920,        0.6142578125,        0.0195312500,       -0.1328125000,        0.7934570312,       -0.0610351562,        0.0000000000
1488507220.0344369411,1488507220.0368530750,        0.6142578125,        0.0195312500,       -0.1328125000,        0.7934570312,       -0.0610351562,       -3.9062500000
1488507220.0371348858,1488507220.0395450592,        0.6142578125,        0.0195312500,       -0.1328125000,        0.6713867188,        0.0305175781,       -0.2899169922
1488507220.0398240089,1488507220.0422399044,        0.6118164062,        0.0170898438,       -0.1367187500,        0.6713867188,        0.0305175781,       -0.2899169922
1488507220.0425200462,1488507220.0449359417,        0.6118164062,        0.0170898438,       -0.1367187500,        0.2136230469,       -0.2136230469,       -0.0915527344
1488507220.0452148914,1488507220.0476310253,        0.6118164062,        0.0170898438,       -0.1367187500,        0.2136230469,       -0.2136230469,       -0.0915527344
1488507220.0479109287,1488507220.0503270626,        0.6118164062,        0.0170898438,       -0.1367187500,        0.3204345703,       -0.0762939453,       -0.0152587891
1488507220.0506069660,1488507220.0530200005,        0.6152343750,        0.0136718750,       -0.1206054688,        0.3204345703,       -0.0762939453,       -0.0152587891
1488507220.0533010960,1488507220.0557138920,        0.6152343750,        0.0136718750,       -0.1206054688,        0.1220703125,        0.2136230469,       -0.0152587891
1488507220.0559949875,1488507220.0584170818,        0.6152343750,        0.0136718750,       -0.1206054688,        0.1220703125,        0.2136230469,       -0.0152587891
1488507220.0586979389,1488507220.0611159801,        0.6152343750,        0.0136718750,       -0.1337890625,        0.0152587891,        0.4272460938,       -0.0610351562
1488507220.0623199940,1488507220.0652019978,        0.6162109375,        0.0224609375,       -0.1337890625,        0.0152587891,        0.2288818359,        0.0610351562
1488507220.0654780865,1488507220.0677640438,        0.6162109375,        0.0224609375,       -0.1337890625,        0.1068115234,        0.2288818359,        0.0610351562
1488507220.0680360794,1488507220.0703170300,        0.6162109375,        0.0224609375,       -0.1337890625,        0.1068115234,       -0.0762939453,        0.1983642578
1488507220.0705900192,1488507220.0729238987,        0.6113281250,        0.0209960938,       -0.1225585938,        0.7019042969,       -0.0762939453,        0.1983642578
1488507220.0732018948,1488507220.0754849911,        0.6113281250,        0.0209960938,       -0.1225585938,        0.7019042969,        0.0457763672,        0.0610351562
1488507220.0757639408,1488507220.0780560970,        0.6113281250,        0.0209960938,       -0.1225585938,        0.5950927734,        0.0457763672,        0.0610351562
1488507220.0783309937,1488507220.0806219578,        0.6113281250,        0.0209960938,       -0.1225585938,        0.5950927734,        0.0457763672,       -0.1220703125
1488507220.0808970928,1488507220.0832290649,        0.6108398438,        0.0141601562,       -0.1220703125,        0.3356933594,       -0.1068115234,       -0.1220703125
1488507220.0835049152,1488507220.0857980251,        0.6108398438,        0.0141601562,       -0.1220703125,        0.3356933594,       -0.1068115234,       -0.1220703125
1488507220.0860741138,1488507220.0883579254,        0.6108398438,        0.0141601562,       -0.1220703125,        0.3051757812,       -0.3051757812,       -0.0915527344
1488507220.0887880325,1488507220.0910708904,        0.6108398438,        0.0141601562,       -0.2470703125,        0.3051757812,       -0.3051757812,       -0.0915527344
1488507220.0913450718,1488507220.0936579704,        0.6215820312,        0.0190429688,       -0.1293945312,        0.3051757812,       -0.3662109375,        0.2899169922
1488507220.0939319134,1488507220.0962169170,        0.6215820312,        0.0190429688,       -0.1293945312,        0.3051757812,       -0.3662109375,        0.2899169922
1488507220.0964910984,1488507220.0987880230,        0.6215820312,        0.0190429688,       -0.1293945312,        0.4119873047,       -0.2899169922,        0.3051757812
1488507220.0990641117,1488507220.1013500690,        0.6215820312,        0.0190429688,       -0.1293945312,        0.4119873047,       -0.2899169922,        0.3051757812
1488507220.1016249657,1488507220.1039159298,        0.6127929688,        0.0078125000,       -0.1362304688,       -0.0152587891,       -0.2899169922,       -0.1220703125
1488507220.1041939259,1488507220.1064870358,        0.6127929688,        0.0078125000,       -0.1362304688,       -0.0152587891,       -0.2899169922,       -0.1220703125
1488507220.1067628860,1488507220.1090478897,        0.6127929688,        0.0078125000,       -0.1362304688,       -0.2746582031,        0.1220703125,       -0.1373291016
1488507220.1093249321,1488507220.1116130352,        0.6127929688,        0.0078125000,       -0.1201171875,       -0.2746582031,        0.1220703125,       -0.1373291016
1488507220.1120920181,1488507220.1143910885,        0.6093750000,        0.0175781250,       -0.1201171875,       -0.1525878906,       -0.0457763672,        0.0457763672
1488507220.1146659851,1488507220.1169579029,        0.6093750000,        0.0175781250,       -0.1201171875,       -0.1525878906,       -0.0457763672,        0.0457763672
1488507220.1172330379,1488507220.1195340157,        0.6093750000,        0.0175781250,       -0.1201171875,        0.2593994141,        0.0762939453,       -0.1678466797
1488507220.1198079586,1488507220.1222550869,        0.6093750000,        0.0151367188,       -0.1220703125,        0.2593994141,        0.0762939453,       -0.1678466797
1488507220.1225380898,1488507220.1249549389,        0.6132812500,        0.0151367188,       -0.1220703125,        0.4272460938,        0.0000000000,       -0.1831054688
1488507220.1252379417,1488507220.1276590824,        0.6132812500,        0.0151367188,       -0.1220703125,        0.4272460938,        0.0000000000,       -0.1831054688
1488507220.1279420853,1488507220.1303560734,        0.6132812500,        0.0151367188,       -0.1220703125,        0.1525878906,       -0.4730224609,       -0.3356933594
1488507220.1306378841,1488507220.1330978870,        0.6118164062,        0.0175781250,       -0.1240234375,        0.1525878906,       -0.4730224609,       -0.3356933594
1488507220.1333799362,1488507220.1357979774,        0.6118164062,        0.0175781250,       -0.1240234375,        0.3356933594,       -0.3051757812,       -0.2593994141
1488507220.1360800266,1488507220.1384909153,        0.6118164062,        0.0175781250,       -0.1240234375,        0.3356933594,       -0.3051757812,       -0.2593994141
1488507220.1387729645,1488507220.1411929131,        0.6118164062,        0.0175781250,       -0.1240234375,        0.1525878906,       -0.3509521484,       -0.4730224609
1488507220.1414771080,1488507220.1439049244,        0.6123046875,        0.0175781250,       -0.1274414062,        0.1525878906,       -0.3509521484,       -0.4730224609
1488507220.1441869736,1488507220.1465990543,        0.6123046875,        0.0175781250,       -0.1274414062,        0.1525878906,       -0.8239746094,       -0.5645751953
1488507220.1468799114,1488507220.1492989063,        0.6123046875,        0.0175781250,       -0.1274414062,        0.5645751953,       -0.8239746094,       -0.5645751953
1488507220.1495819092,1488507220.1520109177,        0.6123046875,        0.0175781250,       -0.1157226562,        0.5645751953,       -0.4577636719,       -0.3662109375
1488507220.1524050236,1488507220.1548240185,        0.6079101562,        0.0131835938,       -0.1157226562,        0.4425048828,       -0.4577636719,       -0.3662109375
1488507220.1551070213,1488507220.1575360298,        0.6079101562,        0.0131835938,       -0.1157226562,        0.0610351562,       -0.3204345703,       -0.1983642578
1488507220.1578180790,1488507220.1602330208,        0.6079101562,        0.0131835938,       -0.1157226562,        0.0610351562,       -0.3204345703,       -0.1983642578
1488507220.1605150700,1488507220.1628909111,        0.6079101562,        0.0156250000,       -0.1259765625,        0.0610351562,       -0.5950927734,       -0.4730224609
1488507220.1631669998,1488507220.1654589176,        0.6123046875,        0.0156250000,       -0.1259765625,        0.9613037109,       -0.5950927734,       -0.4730224609
1488507220.1657319069,1488507220.1680259705,        0.6123046875,        0.0156250000,       -0.1259765625,        0.9613037109,       -0.5645751953,       -0.9307861328
1488507220.1682989597,1488507220.1706008911,        0.6123046875,        0.0156250000,       -0.1259765625,        1.0375976562,       -0.5645751953,       -0.9307861328
1488507220.1708750725,1488507220.1732089520,        0.6206054688,        0.0214843750,       -0.1274414062,        1.0375976562,       -0.5645751953,       -0.5645751953
1488507220.1734828949,1488507220.1757740974,        0.6206054688,        0.0214843750,       -0.1274414062,        1.0833740234,       -0.7476806641,       -0.5645751953
1488507220.1760499477,1488507220.1783750057,        0.6206054688,        0.0214843750,       -0.1274414062,        1.0833740234,       -0.7476806641,       -0.5645751953
1488507220.1786520481,1488507220.1809449196,        0.6206054688,        0.0214843750,       -0.1274414062,        0.6561279297,       -0.6256103516,       -0.4119873047
1488507220.1812210083,1488507220.1836199760,        0.6157226562,        0.0195312500,       -0.1215820312,        0.6561279297,       -0.6256103516,       -0.4119873047
1488507220.1839039326,1488507220.1863229275,        0.6157226562,        0.0195312500,       -0.1215820312,        0.1831054688,       -0.7171630859,       -0.5035400391
1488507220.1866059303,1488507220.1890211105,        0.6157226562,        0.0195312500,       -0.1215820312,        0.1831054688,       -0.7171630859,       -0.5035400391
1488507220.1893041134,1488507220.1917328835,        0.6157226562,        0.0195312500,       -0.1215820312,       -0.0915527344,       -0.6408691406,       -0.5493164062
1488507220.1920158863,1488507220.1944289207,        0.6088867188,        0.0219726562,       -0.1289062500,       -0.0915527344,       -0.6408691406,       -0.5493164062
1488507220.1947109699,1488507220.1971280575,        0.6088867188,        0.0219726562,       -0.1289062500,        0.1068115234,       -0.5950927734,       -0.1373291016
1488507220.1974101067,1488507220.1998260021,        0.6088867188,        0.0219726562,       -0.1289062500,        0.1068115234,       -0.5950927734,       -0.1373291016
1488507220.2001090050,1488507220.2025349140,        0.6088867188,        0.0219726562,       -0.1186523438,        0.1373291016,       -0.6256103516,       -0.2593994141
1488507220.2028179169,1488507220.2052330971,        0.6127929688,        0.0141601562,       -0.1186523438,        0.1373291016,       -0.6256103516,       -0.2593994141
1488507220.2055160999,1488507220.2079329491,        0.6127929688,        0.0141601562,       -0.1186523438,       -0.1983642578,       -0.1068115234,       -0.3662109375
1488507220.2082149982,1488507220.2106339931,        0.6127929688,        0.0141601562,       -0.1186523438,       -0.1983642578,       -0.1068115234,       -0.3662109375
1488507220.2109179497,1488507220.2132549286,        0.6127929688,        0.0166015625,       -0.1279296875,       -0.4730224609,       -0.2136230469,       -0.0152587891
1488507220.2135300636,1488507220.2158210278,        0.6123046875,        0.0166015625,       -0.1279296875,       -0.4730224609,       -0.2136230469,       -0.0152587891
1488507220.2162070274,1488507220.2185010910,        0.6123046875,        0.0166015625,       -0.1279296875,       -0.2288818359,       -0.1373291016,       -0.1678466797
1488507220.2187750340,1488507220.2210650444,        0.6123046875,        0.0166015625,       -0.1279296875,       -0.2288818359,       -0.1373291016,       -0.1678466797
1488507220.2213389874,1488507220.2237610817,        0.6210937500,        0.0185546875,       -0.1303710938,        0.0762939453,       -0.1068115234,       -0.2899169922
1488507220.2240378857,1488507220.2263269424,        0.6210937500,        0.0185546875,       -0.1303710938,        0.0762939453,       -0.1068115234,       -0.2899169922
1488507220.2266020775,1488507220.2288930416,        0.6210937500,        0.0185546875,       -0.1303710938,       -0.3051757812,       -0.1373291016,       -0.1525878906
1488507220.2291669846,1488507220.2314579487,        0.6210937500,        0.0185546875,       -0.1303710938,       -0.3051757812,       -0.1373291016,       -0.1525878906
1488507220.2318420410,1488507220.2342629433,        0.6103515625,        0.0219726562,       -0.1254882812,       -0.8544921875,        0.0152587891,       -0.0305175781
1488507220.2345468998,1488507220.2369670868,        0.6103515625,        0.0219726562,       -0.1254882812,       -0.8544921875,        0.0152587891,       -0.0305175781
1488507220.2372479439,1488507220.2396609783,        0.6103515625,        0.0219726562,       -0.1254882812,       -0.7629394531,        0.0762939453,        0.2441406250
1488507220.2399420738,1488507220.2423660755,        0.6103515625,        0.0219726562,       -0.1254882812,       -0.7629394531,        0.0762939453,        0.2441406250
1488507220.2426478863,1488507220.2450640202,        0.6064453125,        0.0126953125,       -0.1210937500,       -0.8544921875,       -0.1525878906,        0.2899169922
1488507220.2453451157,1488507220.2477669716,        0.6064453125,        0.0126953125,       -0.1210937500,       -0.8544921875,       -0.1525878906,        0.2899169922
1488507220.2480509281,1488507220.2504630089,        0.6064453125,        0.0126953125,       -0.1210937500,       -0.9613037109,       -0.3051757812,        0.2593994141
1488507220.2507450581,1488507220.2531740665,        0.6064453125,        0.0126953125,       -0.1289062500,       -0.9613037109,       -0.3051757812,        0.2593994141
1488507220.2534549236,1488507220.2558720112,        0.6074218750,        0.0205078125,       -0.1289062500,       -1.3427734375,       -0.1678466797,        0.1678466797
1488507220.2561531067,1488507220.2585721016,        0.6074218750,        0.0205078125,       -0.1289062500,       -1.3427734375,       -0.1678466797,        0.1678466797
1488507220.2588539124,1488507220.2612709999,        0.6074218750,        0.0205078125,       -0.1289062500,       -1.0070800781,       -0.3204345703,        0.1983642578
1488507220.2615540028,1488507220.2638709545,        0.6074218750,        0.0170898438,       -0.1210937500,       -1.0070800781,       -0.3204345703,        0.1983642578
1488507220.2641470432,1488507220.2664339542,        0.6093750000,        0.0170898438,       -0.1210937500,       -0.7019042969,       -0.0915527344,        0.4730224609
1488507220.2667090893,1488507220.2690050602,        0.6093750000,        0.0170898438,       -0.1210937500,       -0.7019042969,       -0.0915527344,        0.4730224609
1488507220.2692799568,1488507220.2718629837,        0.6093750000,        0.0170898438,       -0.1210937500,       -0.7019042969,       -0.0915527344,        0.2441406250
1488507220.2721478939,1488507220.2745239735,        0.6123046875,        0.0151367188,       -0.1245117188,       -0.7629394531,       -0.0915527344,        0.2441406250
1488507220.2748041153,1488507220.2771921158,        0.6123046875,        0.0151367188,       -0.1245117188,       -0.7629394531,       -0.1983642578,        0.0152587891
1488507220.2775280476,1488507220.2799260616,        0.6123046875,        0.0151367188,       -0.1245117188,       -0.4272460938,       -0.1983642578,        0.0152587891
1488507220.2803180218,1488507220.2831749916,        0.6123046875,        0.0151367188,       -0.1245117188,       -0.5645751953,       -0.0762939453,       -0.0915527344
1488507220.2834570408,1488507220.2858760357,        0.6181640625,        0.0180664062,       -0.1162109375,       -0.5645751953,       -0.0762939453,       -0.0915527344
1488507220.2861599922,1488507220.2885739803,        0.6181640625,        0.0180664062,       -0.1162109375,       -0.5950927734,       -0.4730224609,       -0.1373291016
1488507220.2888550758,1488507220.2912740707,        0.6181640625,        0.0180664062,       -0.1162109375,       -0.5950927734,       -0.4730224609,       -0.1373291016
1488507220.2915570736,1488507220.2939848900,        0.6181640625,        0.0151367188,       -0.1225585938,       -0.6408691406,       -0.5340576172,       -0.0762939453
1488507220.2942678928,1488507220.2966880798,        0.6137695312,        0.0151367188,       -0.1225585938,       -0.6408691406,       -0.5340576172,       -0.0762939453
1488507220.2969698906,1488507220.2993869781,        0.6137695312,        0.0151367188,       -0.1225585938,       -0.2899169922,       -0.3051757812,       -0.1220703125
1488507220.2996709347,1488507220.3020799160,        0.6137695312,        0.0151367188,       -0.1225585938,       -0.2899169922,       -0.3051757812,       -0.1220703125
1488507220.3023560047,1488507220.3046529293,        0.6166992188,        0.0151367188,       -0.1254882812,        0.0000000000,       -0.7476806641,        0.0000000000
1488507220.3049271107,1488507220.3072159290,        0.6166992188,        0.0151367188,       -0.1254882812,        0.0000000000,       -0.7476806641,        0.0000000000
1488507220.3074901104,1488507220.3097839355,        0.6166992188,        0.0151367188,       -0.1254882812,        0.0000000000,       -1.0070800781,       -0.0762939453
1488507220.3100581169,1488507220.3123619556,        0.6166992188,        0.0151367188,       -0.1254882812,        0.1983642578,       -1.0070800781,       -0.0762939453
1488507220.3126380444,1488507220.3149330616,        0.6137695312,        0.0117187500,       -0.1220703125,        0.1983642578,       -1.0070800781,       -0.0457763672
1488507220.3152079582,1488507220.3175048828,        0.6137695312,        0.0117187500,       -0.1220703125,       -0.3204345703,       -1.0528564453,       -0.0457763672
1488507220.3177790642,1488507220.3200709820,        0.6137695312,        0.0117187500,       -0.1220703125,       -0.3204345703,       -1.0528564453,        0.1831054688
1488507220.3203461170,1488507220.3226840496,        0.6137695312,        0.0117187500,       -0.1220703125,       -0.3509521484,       -0.6103515625,        0.1831054688
1488507220.3229598999,1488507220.3252539635,        0.6235351562,        0.0141601562,       -0.1337890625,       -0.3509521484,       -0.6103515625,        0.1831054688
1488507220.3255300522,1488507220.3278219700,        0.6235351562,        0.0141601562,       -0.1337890625,       -0.2593994141,       -0.7629394531,        0.3356933594
1488507220.3280971050,1488507220.3303899765,        0.6235351562,        0.0141601562,       -0.1337890625,       -0.2593994141,       -0.7629394531,        0.3356933594
1488507220.3306639194,1488507220.3330059052,        0.6235351562,        0.0141601562,       -0.1337890625,        0.0610351562,       -0.9460449219,        0.4425048828
1488507220.3332810402,1488507220.3355739117,        0.6152343750,        0.0122070312,       -0.1220703125,        0.0610351562,       -0.9460449219,        0.4425048828
1488507220.3358490467,1488507220.3381450176,        0.6152343750,        0.0122070312,       -0.1220703125,       -0.0305175781,       -1.0070800781,        0.2441406250
1488507220.3384189606,1488507220.3407170773,        0.6152343750,        0.0122070312,       -0.1220703125,       -0.0305175781,       -1.0070800781,        0.2441406250
1488507220.3409910202,1488507220.3434879780,        0.6152343750,        0.0122070312,       -0.1220703125,        0.0152587891,       -1.1444091797,        0.0152587891
1488507220.3438780308,1488507220.3462979794,        0.6123046875,        0.0195312500,       -0.1333007812,        0.0152587891,       -1.1444091797,        0.0152587891
1488507220.3465800285,1488507220.3489980698,        0.6123046875,        0.0195312500,       -0.1333007812,       -0.4272460938,       -0.7019042969,        0.0152587891
1488507220.3492801189,1488507220.3517079353,        0.6123046875,        0.0195312500,       -0.1333007812,       -0.4272460938,       -0.7019042969,        0.0152587891
1488507220.3519899845,1488507220.3544099331,        0.6123046875,        0.0195312500,       -0.1293945312,       -0.3814697266,       -0.6713867188,        0.3356933594
1488507220.3546929359,1488507220.3571069241,        0.6137695312,        0.0131835938,       -0.1293945312,       -0.3814697266,       -0.6713867188,        0.3356933594
1488507220.3573889732,1488507220.3598089218,        0.6137695312,        0.0131835938,       -0.1293945312,       -0.6561279297,       -0.7629394531,        0.2288818359
1488507220.3600909710,1488507220.3624770641,        0.6137695312,        0.0131835938,       -0.1293945312,       -0.6561279297,       -0.7629394531,        0.2288818359
1488507220.3627500534,1488507220.3650419712,        0.6147460938,        0.0185546875,       -0.1264648438,       -0.5340576172,       -0.5645751953,        0.2441406250
1488507220.3653171062,1488507220.3676118851,        0.6147460938,        0.0185546875,       -0.1264648438,       -0.5340576172,       -0.5645751953,        0.2441406250
1488507220.3678860664,1488507220.3701829910,        0.6147460938,        0.0185546875,       -0.1264648438,       -0.2136230469,       -0.6866455078,        0.3509521484
1488507220.3704569340,1488507220.3728990555,        0.6147460938,        0.0185546875,       -0.1264648438,       -0.2136230469,       -0.6866455078,        0.3509521484
1488507220.3731811047,1488507220.3755950928,        0.6191406250,        0.0195312500,       -0.1254882812,       -0.1678466797,       -0.7629394531,        0.5950927734
1488507220.3758790493,1488507220.3782920837,        0.6191406250,        0.0195312500,       -0.1254882812,       -0.1678466797,       -0.7629394531,        0.5950927734
1488507220.3785738945,1488507220.3809890747,        0.6191406250,        0.0195312500,       -0.1254882812,       -0.8087158203,       -0.9307861328,        0.4425048828
1488507220.3812689781,1488507220.3837320805,        0.6191406250,        0.0195312500,       -0.1254882812,       -0.8087158203,       -0.9307861328,        0.4425048828
1488507220.3840129375,1488507220.3864281178,        0.6113281250,        0.0136718750,       -0.1318359375,       -0.3204345703,       -0.8239746094,        0.5187988281
1488507220.3867080212,1488507220.3891239166,        0.6113281250,        0.0136718750,       -0.1318359375,       -0.3204345703,       -0.8239746094,        0.5187988281
1488507220.3894081116,1488507220.3918349743,        0.6113281250,        0.0136718750,       -0.1318359375,       -0.5187988281,       -1.2054443359,        0.2899169922
1488507220.3921170235,1488507220.3945291042,        0.6113281250,        0.0136718750,       -0.1254882812,       -0.5187988281,       -1.2054443359,        0.2899169922
1488507220.3948099613,1488507220.3972311020,        0.6123046875,        0.0141601562,       -0.1254882812,       -0.7171630859,       -0.7629394531,        0.3356933594
1488507220.3975389004,1488507220.4000880718,        0.6123046875,        0.0141601562,       -0.1254882812,       -0.7171630859,       -0.7629394531,        0.3356933594
1488507220.4003710747,1488507220.4031310081,        0.6123046875,        0.0141601562,       -0.1254882812,       -0.8544921875,       -0.7629394531,        0.5187988281
1488507220.4034149647,1488507220.4058279991,        0.6074218750,        0.0131835938,       -0.1259765625,       -0.8544921875,       -0.7629394531,        0.5187988281
1488507220.4061100483,1488507220.4085230827,        0.6074218750,        0.0131835938,       -0.1259765625,       -0.5645751953,       -0.7019042969,        0.5187988281
1488507220.4089059830,1488507220.4113318920,        0.6074218750,        0.0131835938,       -0.1259765625,       -0.5645751953,       -0.7019042969,        0.5187988281
1488507220.4116139412,1488507220.4139080048,        0.6074218750,        0.0131835938,       -0.1259765625,       -0.4425048828,       -0.6866455078,        0.2899169922
1488507220.4141819477,1488507220.4164779186,        0.6142578125,        0.0131835938,       -0.1225585938,       -0.4425048828,       -0.6866455078,        0.2899169922
1488507220.4167530537,1488507220.4190399647,        0.6142578125,        0.0131835938,       -0.1225585938,       -0.7019042969,       -0.7629394531,        0.2136230469
1488507220.4193150997,1488507220.4216029644,        0.6142578125,        0.0131835938,       -0.1225585938,       -0.7019042969,       -0.7629394531,        0.2136230469
1488507220.4219460487,1488507220.4243659973,        0.6142578125,        0.0131835938,       -0.1225585938,       -0.2288818359,       -1.0375976562,        0.0152587891
1488507220.4246470928,1488507220.4270629883,        0.6137695312,        0.0136718750,       -0.1333007812,       -0.2288818359,       -1.0375976562,        0.0152587891
1488507220.4273459911,1488507220.4297659397,        0.6137695312,        0.0136718750,       -0.1333007812,       -0.3204345703,       -0.9307861328,        0.0610351562
1488507220.4300470352,1488507220.4324860573,        0.6137695312,        0.0136718750,       -0.1333007812,       -0.3204345703,       -0.9307861328,        0.0610351562
1488507220.4327619076,1488507220.4350531101,        0.6137695312,        0.0136718750,       -0.1196289062,       -0.3204345703,       -0.7019042969,        0.1831054688
1488507220.4353289604,1488507220.4376220703,        0.6147460938,        0.0156250000,       -0.1196289062,       -0.2746582031,       -0.7019042969,        0.1831054688
1488507220.4378979206,1488507220.4401900768,        0.6147460938,        0.0156250000,       -0.1196289062,       -0.2746582031,       -0.7019042969,        0.1678466797
1488507220.4404649734,1488507220.4427599907,        0.6147460938,        0.0156250000,       -0.1196289062,       -0.1678466797,       -0.9002685547,        0.1678466797
1488507220.4430360794,1488507220.4453320503,        0.6147460938,        0.0068359375,       -0.1235351562,       -0.1678466797,       -0.9002685547,        0.1373291016
1488507220.4456079006,1488507220.4479019642,        0.6171875000,        0.0068359375,       -0.1235351562,       -0.3204345703,       -1.0375976562,        0.1373291016
1488507220.4481780529,1488507220.4504671097,        0.6171875000,        0.0068359375,       -0.1235351562,       -0.3204345703,       -1.0375976562,        0.1373291016
1488507220.4507429600,1488507220.4531869888,        0.6171875000,        0.0068359375,       -0.1235351562,       -0.3204345703,       -1.3122558594,        0.1373291016
1488507220.4534630775,1488507220.4557559490,        0.6171875000,        0.0131835938,       -0.1230468750,       -0.3204345703,       -1.3122558594,        0.1373291016
1488507220.4560298920,1488507220.4583261013,        0.6210937500,        0.0131835938,       -0.1230468750,       -0.2593994141,       -1.2207031250,        0.2746582031
1488507220.4586019516,1488507220.4608910084,        0.6210937500,        0.0131835938,       -0.1230468750,       -0.2593994141,       -1.2207031250,        0.2746582031
1488507220.4611670971,1488507220.4636371136,        0.6210937500,        0.0131835938,       -0.1230468750,       -0.1220703125,       -1.2817382812,        0.3662109375
1488507220.4639210701,1488507220.4663290977,        0.6137695312,        0.0170898438,       -0.1293945312,       -0.1220703125,       -1.2817382812,        0.3662109375
1488507220.4666109085,1488507220.4690089226,        0.6137695312,        0.0170898438,       -0.1293945312,        0.0000000000,       -1.2512207031,        0.6408691406
1488507220.4692900181,1488507220.4718248844,        0.6137695312,        0.0170898438,       -0.1293945312,        0.0000000000,       -1.2512207031,        0.6408691406
1488507220.4721190929,1488507220.4745121002,        0.6137695312,        0.0170898438,       -0.1293945312,        0.0457763672,       -1.4953613281,        0.5187988281
1488507220.4749019146,1488507220.4772889614,        0.6162109375,        0.0151367188,       -0.1318359375,        0.0457763672,       -1.4953613281,        0.5187988281
1488507220.4797101021,1488507220.4820098877,        0.6162109375,        0.0151367188,       -0.1318359375,       -0.0457763672,       -1.2359619141,        0.4119873047
1488507220.4822890759,1488507220.4845778942,        0.6162109375,        0.0151367188,       -0.1318359375,       -0.0762939453,       -1.1291503906,        0.5645751953
1488507220.4848530293,1488507220.4871420860,        0.6142578125,        0.0136718750,       -0.1181640625,       -0.0762939453,       -1.1291503906,        0.5645751953
1488507220.4874160290,1488507220.4897019863,        0.6142578125,        0.0136718750,       -0.1181640625,        0.0915527344,       -1.2512207031,        0.7629394531
1488507220.4899759293,1488507220.4923141003,        0.6142578125,        0.0136718750,       -0.1181640625,        0.0915527344,       -1.2512207031,        0.7629394531
1488507220.4925899506,1488507220.4948849678,        0.6142578125,        0.0136718750,       -0.1181640625,        0.0915527344,       -1.5411376953,        0.3814697266
1488507220.4951610565,1488507220.4974489212,        0.6118164062,        0.0156250000,       -0.1347656250,        0.0000000000,       -1.5411376953,        0.3814697266
1488507220.4977231026,1488507220.5000100136,        0.6118164062,        0.0156250000,       -0.1347656250,        0.0000000000,       -1.5411376953,        0.4425048828
1488507220.5002839565,1488507220.5025789738,        0.6118164062,        0.0156250000,       -0.1347656250,       -0.2899169922,       -1.3885498047,        0.4425048828
1488507220.5028529167,1488507220.5051429272,        0.6118164062,        0.0156250000,       -0.1347656250,       -0.2899169922,       -1.3885498047,        0.7476806641
1488507220.5054171085,1488507220.5077040195,        0.6093750000,        0.0175781250,       -0.1318359375,       -0.6866455078,       -1.1444091797,        0.7476806641
1488507220.5079789162,1488507220.5102679729,        0.6093750000,        0.0175781250,       -0.1318359375,       -0.6866455078,       -1.1444091797,        0.7476806641
1488507220.5105431080,1488507220.5128929615,        0.6093750000,        0.0175781250,       -0.1318359375,       -0.5798339844,       -1.3732910156,        0.8087158203
1488507220.5131680965,1488507220.5154509544,        0.6093750000,        0.0175781250,       -0.1318359375,       -0.5798339844,       -1.3732910156,        0.8087158203
1488507220.5157260895,1488507220.5180170536,        0.6118164062,        0.0161132812,       -0.1259765625,       -0.2441406250,       -0.5340576172,        0.6561279297
1488507220.5182929039,1488507220.5205829144,        0.6118164062,        0.0161132812,       -0.1259765625,       -0.2441406250,       -0.5340576172,        0.6561279297
1488507220.5208590031,1488507220.5231900215,        0.6118164062,        0.0161132812,       -0.1259765625,       -0.3051757812,       -0.7629394531,        0.8697509766
1488507220.5234661102,1488507220.5257558823,        0.6118164062,        0.0161132812,       -0.1342773438,       -0.3051757812,       -0.7629394531,        0.8697509766
1488507220.5260300636,1488507220.5283229351,        0.6123046875,        0.0117187500,       -0.1342773438,       -0.4425048828,       -1.1444091797,        0.6256103516
1488507220.5285959244,1488507220.5308859348,        0.6123046875,        0.0117187500,       -0.1342773438,       -0.4425048828,       -1.1444091797,        0.6256103516
1488507220.5311589241,1488507220.5335550308,        0.6123046875,        0.0117187500,       -0.1342773438,       -0.6866455078,       -1.0986328125,        0.3967285156
1488507220.5338299274,1488507220.5361199379,        0.6123046875,        0.0117187500,       -0.1284179688,       -0.6866455078,       -1.0986328125,        0.3967285156
1488507220.5363929272,1488507220.5386760235,        0.6166992188,        0.0131835938,       -0.1284179688,       -1.0681152344,       -1.1291503906,        0.4425048828
1488507220.5390589237,1488507220.5413448811,        0.6166992188,        0.0131835938,       -0.1284179688,       -1.0681152344,       -1.1291503906,        0.4425048828
1488507220.5416190624,1488507220.5439100266,        0.6166992188,        0.0131835938,       -0.1284179688,       -1.0681152344,       -1.2054443359,        0.2746582031
1488507220.5441849232,1488507220.5464749336,        0.6166992188,        0.0087890625,       -0.1298828125,       -0.7934570312,       -1.2054443359,        0.2746582031
1488507220.5467500687,1488507220.5490388870,        0.6181640625,        0.0087890625,       -0.1298828125,       -0.7934570312,       -1.2054443359,        0.4425048828
1488507220.5493159294,1488507220.5516018867,        0.6181640625,        0.0087890625,       -0.1298828125,       -1.1749267578,       -0.4882812500,        0.4425048828
1488507220.5519471169,1488507220.5542430878,        0.6181640625,        0.0087890625,       -0.1298828125,       -1.1749267578,       -0.4882812500,        0.6256103516
1488507220.5545179844,1488507220.5568130016,        0.6181640625,        0.0107421875,       -0.1328125000,       -1.1749267578,       -0.6561279297,        0.6256103516
1488507220.5570859909,1488507220.5593791008,        0.6118164062,        0.0107421875,       -0.1328125000,       -1.1749267578,       -0.6561279297,        0.6256103516
1488507220.5596530437,1488507220.5619730949,        0.6118164062,        0.0107421875,       -0.1328125000,       -0.7476806641,       -0.6256103516,        0.3814697266
1488507220.5622549057,1488507220.5646660328,        0.6118164062,        0.0107421875,       -0.1328125000,       -0.7476806641,       -0.6256103516,        0.3814697266
1488507220.5649490356,1488507220.5673670769,        0.6098632812,        0.0092773438,       -0.1250000000,       -0.3204345703,       -1.0375976562,        0.6103515625
1488507220.5676488876,1488507220.5700690746,        0.6098632812,        0.0092773438,       -0.1250000000,       -0.3204345703,       -1.0375976562,        0.6103515625
1488507220.5703520775,1488507220.5727860928,        0.6098632812,        0.0092773438,       -0.1250000000,       -0.1373291016,       -1.2054443359,        0.4119873047
1488507220.5730700493,1488507220.5755450726,        0.6098632812,        0.0092773438,       -0.1250000000,       -0.1373291016,       -1.2054443359,        0.4119873047
1488507220.5758268833,1488507220.5782480240,        0.6147460938,        0.0083007812,       -0.1293945312,        0.0305175781,       -1.3580322266,        0.4272460938
1488507220.5785319805,1488507220.5809469223,        0.6147460938,        0.0083007812,       -0.1293945312,        0.0305175781,       -1.3580322266,        0.4272460938
1488507220.5812289715,1488507220.5836699009,        0.6147460938,        0.0083007812,       -0.1293945312,       -0.1373291016,       -1.3122558594,        0.0915527344
1488507220.5839529037,1488507220.5863690376,        0.6147460938,        0.0083007812,       -0.1254882812,       -0.1373291016,       -1.3122558594,        0.0915527344
1488507220.5866529942,1488507220.5891640186,        0.6176757812,        0.0102539062,       -0.1254882812,       -0.4119873047,       -1.0681152344,        0.2441406250
1488507220.5894470215,1488507220.5926480293,        0.6176757812,        0.0102539062,       -0.1254882812,       -0.4119873047,       -1.0681152344,        0.2441406250
1488507220.5929250717,1488507220.5952160358,        0.6176757812,        0.0102539062,       -0.1254882812,       -0.1831054688,       -0.8239746094,        0.2746582031
1488507220.5954899788,1488507220.5977818966,        0.6127929688,        0.0083007812,       -0.1250000000,       -0.1831054688,       -0.8239746094,        0.4272460938
1488507220.5980579853,1488507220.6003448963,        0.6127929688,        0.0083007812,       -0.1250000000,       -0.1831054688,       -1.0986328125,        0.4272460938
1488507220.6006219387,1488507220.6030979156,        0.6127929688,        0.0083007812,       -0.1250000000,       -0.1831054688,       -1.0986328125,        0.5035400391
1488507220.6034810543,1488507220.6057760715,        0.6127929688,        0.0083007812,       -0.1250000000,        0.4425048828,       -1.4953613281,        0.5035400391
1488507220.6060519218,1488507220.6083409786,        0.6206054688,        0.0122070312,       -0.1201171875,        0.4425048828,       -1.4953613281,        0.5035400391
1488507220.6086149216,1488507220.6109020710,        0.6206054688,        0.0122070312,       -0.1201171875,        0.2136230469,       -1.6174316406,        0.4119873047
1488507220.6111769676,1488507220.6134700775,        0.6206054688,        0.0122070312,       -0.1201171875,        0.2136230469,       -1.6174316406,        0.4119873047
1488507220.6137449741,1488507220.6160280704,        0.6206054688,        0.0122070312,       -0.1201171875,        0.2441406250,       -1.2817382812,        0.7324218750
1488507220.6163029671,1488507220.6185910702,        0.6186523438,        0.0107421875,       -0.1220703125,        0.2441406250,       -1.2817382812,        0.7324218750
1488507220.6188659668,1488507220.6211531162,        0.6186523438,        0.0107421875,       -0.1220703125,       -0.1678466797,       -1.4801025391,        0.3662109375
1488507220.6214270592,1488507220.6237180233,        0.6186523438,        0.0107421875,       -0.1220703125,       -0.1678466797,       -1.4801025391,        0.3662109375
1488507220.6239919662,1488507220.6262850761,        0.6186523438,        0.0107421875,       -0.1220703125,       -0.4730224609,       -1.3427734375,        0.3356933594
1488507220.6265590191,1488507220.6288468838,        0.6103515625,        0.0073242188,       -0.1225585938,       -0.4730224609,       -1.3427734375,        0.3356933594
1488507220.6291229725,1488507220.6314098835,        0.6103515625,        0.0073242188,       -0.1225585938,       -0.6866455078,       -1.3732910156,        0.4272460938
1488507220.6317460537,1488507220.6340339184,        0.6103515625,        0.0073242188,       -0.1225585938,       -0.6866455078,       -1.3732910156,        0.4272460938
1488507220.6343100071,1488507220.6365969181,        0.6103515625,        0.0073242188,       -0.2475585938,       -0.1983642578,       -1.0833740234,        0.5035400391
1488507220.6368720531,1488507220.6391611099,        0.6147460938,        0.0122070312,       -0.1313476562,       -0.1983642578,       -1.0833740234,        0.5035400391
1488507220.6394350529,1488507220.6418509483,        0.6147460938,        0.0122070312,       -0.1313476562,       -0.1983642578,       -1.0223388672,        0.3509521484
1488507220.6421270370,1488507220.6444129944,        0.6147460938,        0.0122070312,       -0.1313476562,        0.0762939453,       -1.0223388672,        0.3509521484
1488507220.6446878910,1488507220.6470849514,        0.6147460938,        0.0122070312,       -0.1210937500,        0.0762939453,       -1.1291503906,        0.1068115234
1488507220.6473619938,1488507220.6496469975,        0.6079101562,        0.0136718750,       -0.1210937500,       -0.2746582031,       -1.1291503906,        0.1068115234
1488507220.6499218941,1488507220.6522359848,        0.6079101562,        0.0136718750,       -0.1210937500,       -0.2746582031,       -1.1291503906,        0.0152587891
1488507220.6525120735,1488507220.6547989845,        0.6079101562,        0.0136718750,       -0.1210937500,       -0.0457763672,       -1.3275146484,        0.0152587891
1488507220.6551320553,1488507220.6574420929,        0.6079101562,        0.0034179688,       -0.1284179688,       -0.0457763672,       -1.3275146484,        0.0152587891
1488507220.6577179432,1488507220.6600060463,        0.6083984375,        0.0034179688,       -0.1284179688,       -0.1220703125,       -1.2969970703,        0.1983642578
1488507220.6602830887,1488507220.6625769138,        0.6083984375,        0.0034179688,       -0.1284179688,       -0.1220703125,       -1.2969970703,        0.1983642578
1488507220.6628539562,1488507220.6651430130,        0.6083984375,        0.0034179688,       -0.1284179688,        0.2288818359,       -1.1138916016,        0.1220703125
1488507220.6659410000,1488507220.6682379246,        0.6220703125,        0.0122070312,       -0.1342773438,        0.2288818359,       -1.1138916016,       -3.7841796875
1488507220.6685130596,1488507220.6707971096,        0.6220703125,        0.0122070312,       -0.1342773438,       -0.4730224609,       -0.9613037109,       -0.1068115234
1488507220.6710720062,1488507220.6735088825,        0.6220703125,        0.0122070312,       -0.1342773438,       -0.4730224609,       -0.9613037109,       -0.1068115234
1488507220.6737930775,1488507220.6762130260,        0.6220703125,        0.0122070312,       -0.1342773438,       -0.4577636719,       -0.8697509766,        0.1220703125
1488507220.6764960289,1488507220.6789109707,        0.6166992188,        0.0117187500,       -0.1372070312,       -0.4577636719,       -0.8697509766,        0.1220703125
1488507220.6791949272,1488507220.6816129684,        0.6166992188,        0.0117187500,       -0.1372070312,       -0.1373291016,       -0.8697509766,        0.4577636719
1488507220.6819460392,1488507220.6843578815,        0.6166992188,        0.0117187500,       -0.1372070312,       -0.1373291016,       -0.8697509766,        0.4577636719
1488507220.6846399307,1488507220.6870570183,        0.6166992188,        0.0117187500,       -0.1372070312,       -0.4425048828,       -0.6866455078,        0.1983642578
1488507220.6873381138,1488507220.6897540092,        0.6132812500,        0.0112304688,       -0.1220703125,       -0.4425048828,       -0.6866455078,        0.1983642578
1488507220.6900360584,1488507220.6925001144,        0.6132812500,        0.0112304688,       -0.1220703125,       -0.4272460938,       -0.9765625000,        0.3356933594
1488507220.6927831173,1488507220.6951999664,        0.6132812500,        0.0112304688,       -0.1220703125,       -0.4272460938,       -0.9765625000,        0.3356933594
1488507220.6954820156,1488507220.6979019642,        0.6132812500,        0.0092773438,       -0.1235351562,       -0.6713867188,       -0.6408691406,        0.3662109375
1488507220.6981849670,1488507220.7005970478,        0.6186523438,        0.0092773438,       -0.1235351562,       -0.6713867188,       -0.6408691406,        0.3662109375
1488507220.7008790970,1488507220.7032270432,        0.6186523438,        0.0092773438,       -0.1235351562,       -0.6256103516,       -0.4272460938,        0.1373291016
1488507220.7035040855,1488507220.7058019638,        0.6186523438,        0.0092773438,       -0.1235351562,       -0.6256103516,       -0.4272460938,        0.1373291016
1488507220.7060790062,1488507220.7085371017,        0.6152343750,        0.0107421875,       -0.1333007812,       -0.7476806641,       -0.9918212891,        0.1831054688
1488507220.7088160515,1488507220.7111139297,        0.6152343750,        0.0107421875,       -0.1333007812,       -0.7476806641,       -0.9918212891,        0.1831054688
1488507220.7113881111,1488507220.7139608860,        0.6152343750,        0.0107421875,       -0.1333007812,       -0.3204345703,       -1.0833740234,       -0.0152587891
1488507220.7142450809,1488507220.7166659832,        0.6152343750,        0.0107421875,       -0.1333007812,       -0.3204345703,       -1.0833740234,       -0.0152587891
1488507220.7169499397,1488507220.7193689346,        0.6103515625,        0.0083007812,       -0.1318359375,       -0.2288818359,       -0.9307861328,       -0.1831054688
1488507220.7196509838,1488507220.7221090794,        0.6103515625,        0.0083007812,       -0.1318359375,       -0.2288818359,       -0.9307861328,       -0.1831054688
1488507220.7223930359,1488507220.7248110771,        0.6103515625,        0.0083007812,       -0.1318359375,       -0.2746582031,       -0.7934570312,        0.0610351562
1488507220.7250959873,1488507220.7275130749,        0.6103515625,        0.0083007812,       -0.1318359375,       -0.2746582031,       -0.7934570312,        0.0610351562
1488507220.7277948856,1488507220.7302091122,        0.6123046875,        0.0087890625,       -0.1259765625,       -0.5187988281,       -0.8392333984,       -0.0457763672
1488507220.7306001186,1488507220.7330210209,        0.6123046875,        0.0087890625,       -0.1259765625,       -0.5187988281,       -0.8392333984,       -0.0457763672
1488507220.7333030701,1488507220.7357199192,        0.6123046875,        0.0087890625,       -0.1259765625,       -0.3051757812,       -0.8087158203,        0.1678466797
1488507220.7360041142,1488507220.7384290695,        0.6123046875,        0.0053710938,       -0.1210937500,       -0.3051757812,       -0.8087158203,        0.1678466797
1488507220.7387139797,1488507220.7411301136,        0.6113281250,        0.0053710938,       -0.1210937500,        0.1068115234,       -1.2512207031,        0.0610351562
1488507220.7414119244,1488507220.7437191010,        0.6113281250,        0.0053710938,       -0.1210937500,        0.1068115234,       -1.2512207031,        0.0610351562
1488507220.7439949512,1488507220.7462930679,        0.6113281250,        0.0053710938,       -0.1210937500,       -0.0152587891,       -1.2817382812,       -0.0762939453
1488507220.7465689182,1488507220.7488660812,        0.6186523438,        0.0107421875,       -0.1284179688,       -0.0152587891,       -1.2817382812,       -0.0762939453
1488507220.7491381168,1488507220.7514319420,        0.6186523438,        0.0107421875,       -0.1284179688,        0.3509521484,       -1.3580322266,       -0.3967285156
1488507220.7517290115,1488507220.7540259361,        0.6186523438,        0.0107421875,       -0.1284179688,        0.3509521484,       -1.3580322266,       -0.3967285156
1488507220.7543001175,1488507220.7565920353,        0.6186523438,        0.0107421875,       -0.1284179688,        0.2441406250,       -1.3732910156,       -0.3356933594
1488507220.7568669319,1488507220.7591600418,        0.6069335938,        0.0083007812,       -0.1323242188,        0.2441406250,       -1.3732910156,       -0.3356933594
1488507220.7594358921,1488507220.7618529797,        0.6069335938,        0.0083007812,       -0.1323242188,        0.2593994141,       -1.3732910156,       -0.2288818359
1488507220.7621300220,1488507220.7644259930,        0.6069335938,        0.0083007812,       -0.1323242188,        0.2593994141,       -1.3732910156,       -0.2288818359
1488507220.7647020817,1488507220.7669990063,        0.6069335938,        0.0083007812,       -0.1323242188,        0.2593994141,       -1.0833740234,       -0.2899169922
1488507220.7672750950,1488507220.7695679665,        0.6123046875,        0.0126953125,       -0.1328125000,        0.0610351562,       -1.0833740234,       -0.2899169922
1488507220.7698419094,1488507220.7722520828,        0.6123046875,        0.0126953125,       -0.1328125000,        0.0610351562,       -1.0833740234,       -0.2899169922
1488507220.7725338936,1488507220.7749440670,        0.6123046875,        0.0126953125,       -0.1328125000,        0.1068115234,       -1.2207031250,       -0.2899169922
1488507220.7752249241,1488507220.7776238918,        0.6123046875,        0.0126953125,       -0.1328125000,        0.1068115234,       -1.2207031250,       -0.2136230469
1488507220.7779059410,1488507220.7803089619,        0.6157226562,        0.0083007812,       -0.1235351562,        0.0915527344,       -1.4648437500,       -0.2136230469
1488507220.7805910110,1488507220.7830069065,        0.6157226562,        0.0083007812,       -0.1235351562,        0.0915527344,       -1.4648437500,       -0.3204345703
1488507220.7832899094,1488507220.7856869698,        0.6157226562,        0.0083007812,       -0.1235351562,        0.1373291016,       -1.3580322266,       -0.3204345703
1488507220.7859680653,1488507220.7883698940,        0.6157226562,        0.0083007812,       -0.1206054688,        0.1373291016,       -1.3580322266,       -0.4882812500
1488507220.7886500359,1488507220.7910549641,        0.6098632812,        0.0122070312,       -0.1206054688,        0.1831054688,       -1.4953613281,       -0.4882812500
1488507220.7913389206,1488507220.7937490940,        0.6098632812,        0.0122070312,       -0.1206054688,        0.1831054688,       -1.4953613281,       -0.7324218750
1488507220.7941379547,1488507220.7965400219,        0.6098632812,        0.0122070312,       -0.1206054688,        0.7324218750,       -1.7700195312,       -0.7324218750
1488507220.7968211174,1488507220.7992229462,        0.6098632812,        0.0131835938,       -0.1279296875,        0.7324218750,       -1.7700195312,       -0.4425048828
1488507220.7995030880,1488507220.8019139767,        0.6059570312,        0.0131835938,       -0.1279296875,        0.7629394531,       -1.9531250000,       -0.4425048828
1488507220.8021950722,1488507220.8045918941,        0.6059570312,        0.0131835938,       -0.1279296875,        0.7629394531,       -1.9531250000,       -0.6256103516
1488507220.8048729897,1488507220.8072760105,        0.6059570312,        0.0131835938,       -0.1279296875,        0.9918212891,       -1.5258789062,       -0.6256103516
1488507220.8075549603,1488507220.8099579811,        0.6157226562,        0.0161132812,       -0.1318359375,        0.9918212891,       -1.5258789062,       -0.7171630859
1488507220.8102369308,1488507220.8126819134,        0.6157226562,        0.0161132812,       -0.1318359375,        0.6256103516,       -1.1596679688,       -0.7171630859
1488507220.8129639626,1488507220.8153650761,        0.6157226562,        0.0161132812,       -0.1318359375,        0.6256103516,       -1.1596679688,       -1.0833740234
1488507220.8156449795,1488507220.8180489540,        0.6157226562,        0.0161132812,       -0.1318359375,        1.0223388672,       -1.5258789062,       -1.0833740234
1488507220.8183290958,1488507220.8207309246,        0.6123046875,        0.0092773438,       -0.1220703125,        1.0223388672,       -1.5258789062,       -1.0833740234
1488507220.8210089207,1488507220.8234269619,        0.6123046875,        0.0092773438,       -0.1220703125,        0.8697509766,       -1.9073486328,       -0.8697509766
1488507220.8237090111,1488507220.8261098862,        0.6123046875,        0.0092773438,       -0.1220703125,        0.8697509766,       -1.9073486328,       -0.8697509766
1488507220.8263919353,1488507220.8289079666,        0.6123046875,        0.0092773438,       -0.1367187500,        0.6408691406,       -1.7242431641,       -0.7019042969
1488507220.8291919231,1488507220.8316009045,        0.6166992188,        0.0058593750,       -0.1367187500,        0.6408691406,       -1.7242431641,       -0.7019042969
1488507220.8323600292,1488507220.8347630501,        0.6166992188,        0.0058593750,       -0.1367187500,        0.4577636719,       -1.2054443359,       -0.9002685547
1488507220.8350450993,1488507220.8374469280,        0.6166992188,        0.0058593750,       -0.1367187500,        0.4577636719,       -1.2054443359,       -0.8239746094
1488507220.8377289772,1488507220.8401279449,        0.6147460938,        0.0141601562,       -0.1372070312,        0.6103515625,       -1.3885498047,       -0.8239746094
1488507220.8404068947,1488507220.8428130150,        0.6147460938,        0.0141601562,       -0.1372070312,        0.6103515625,       -1.3885498047,       -0.7934570312
1488507220.8430950642,1488507220.8454949856,        0.6147460938,        0.0141601562,       -0.1372070312,        0.6408691406,       -1.4648437500,       -0.7934570312
1488507220.8457739353,1488507220.8481791019,        0.6147460938,        0.0141601562,       -0.1372070312,        0.6408691406,       -1.4648437500,       -0.6256103516
1488507220.8484590054,1488507220.8508639336,        0.6142578125,        0.0161132812,       -0.1289062500,        0.4730224609,       -1.2512207031,       -0.6256103516
1488507220.8511440754,1488507220.8534750938,        0.6142578125,        0.0161132812,       -0.1289062500,        0.4730224609,       -1.2512207031,       -0.6866455078
1488507220.8537490368,1488507220.8560431004,        0.6142578125,        0.0161132812,       -0.1289062500,        0.9002685547,       -1.4648437500,       -0.6866455078
1488507220.8563160896,1488507220.8586070538,        0.6142578125,        0.0161132812,       -0.1289062500,        0.9002685547,       -1.4648437500,       -0.6866455078
1488507220.8589899540,1488507220.8612821102,        0.6113281250,        0.0146484375,       -0.1406250000,        0.4577636719,       -1.2817382812,       -0.3356933594
1488507220.8615589142,1488507220.8639309406,        0.6113281250,        0.0146484375,       -0.1406250000,        0.4577636719,       -1.2817382812,       -0.3356933594
1488507220.8642060757,1488507220.8664970398,        0.6113281250,        0.0146484375,       -0.1406250000,       -0.3509521484,       -0.9460449219,       -0.2441406250
1488507220.8667709827,1488507220.8690590858,        0.6113281250,        0.0146484375,       -0.1298828125,       -0.3509521484,       -0.9460449219,       -0.2441406250
1488507220.8693330288,1488507220.8716208935,        0.6054687500,        0.0078125000,       -0.1298828125,       -0.0457763672,       -1.0986328125,       -0.2288818359
1488507220.8719489574,1488507220.8742458820,        0.6054687500,        0.0078125000,       -0.1298828125,       -0.0457763672,       -1.0986328125,       -0.2288818359
1488507220.8745210171,1488507220.8768160343,        0.6054687500,        0.0078125000,       -0.1298828125,        0.5645751953,       -1.2969970703,       -0.4882812500
1488507220.8770899773,1488507220.8793830872,        0.6054687500,        0.0078125000,       -0.1269531250,        0.5645751953,       -1.2969970703,       -0.4882812500
1488507220.8796589375,1488507220.8820710182,        0.6123046875,        0.0161132812,       -0.1269531250,        0.7019042969,       -1.2207031250,       -0.6256103516
1488507220.8823459148,1488507220.8846399784,        0.6123046875,        0.0161132812,       -0.1269531250,        0.7019042969,       -1.2207031250,       -0.6256103516
1488507220.8849160671,1488507220.8872120380,        0.6123046875,        0.0161132812,       -0.1269531250,        0.2441406250,       -0.8544921875,       -0.2746582031
1488507220.8874859810,1488507220.8897769451,        0.6123046875,        0.0112304688,       -0.1298828125,        0.2441406250,       -0.8544921875,       -0.2746582031
1488507220.8900520802,1488507220.8924779892,        0.6181640625,        0.0112304688,       -0.1298828125,        0.2746582031,       -0.9307861328,       -0.2746582031
1488507220.8927609921,1488507220.8951830864,        0.6181640625,        0.0112304688,       -0.1298828125,        0.2746582031,       -0.9307861328,       -0.2746582031
1488507220.8954660892,1488507220.8978819847,        0.6181640625,        0.0112304688,       -0.1298828125,        0.3662109375,       -1.2207031250,       -0.2441406250
1488507220.8981630802,1488507220.9005789757,        0.6166992188,        0.0117187500,       -0.1357421875,        0.3662109375,       -1.2207031250,       -0.2441406250
1488507220.9008610249,1488507220.9033188820,        0.6166992188,        0.0117187500,       -0.1357421875,        0.3051757812,       -1.2817382812,       -0.5950927734
1488507220.9036030769,1488507220.9060189724,        0.6166992188,        0.0117187500,       -0.1357421875,        0.3051757812,       -1.2817382812,       -0.5950927734
1488507220.9063010216,1488507220.9087200165,        0.6166992188,        0.0117187500,       -0.1357421875,        0.3051757812,       -1.1291503906,       -0.4119873047
1488507220.9090030193,1488507220.9114189148,        0.6093750000,        0.0097656250,       -0.1372070312,        0.3356933594,       -1.1291503906,       -0.4119873047
1488507220.9117128849,1488507220.9141380787,        0.6093750000,        0.0097656250,       -0.1372070312,        0.3356933594,       -1.0833740234,       -0.3356933594
1488507220.9144198895,1488507220.9168341160,        0.6093750000,        0.0097656250,       -0.1372070312,        0.4882812500,       -1.0833740234,       -0.3356933594
1488507220.9171159267,1488507220.9195289612,        0.6093750000,        0.0097656250,       -0.1372070312,        0.4882812500,       -1.0070800781,       -0.6103515625
1488507220.9198110104,1488507220.9222021103,        0.6152343750,        0.0107421875,       -0.1323242188,        0.5645751953,       -1.0070800781,       -0.6103515625
1488507220.9225850105,1488507220.9248778820,        0.6152343750,        0.0107421875,       -0.1323242188,        0.5645751953,       -1.3580322266,       -0.5187988281
1488507220.9251530170,1488507220.9274408817,        0.6152343750,        0.0107421875,       -0.1323242188,        0.3356933594,       -1.3580322266,       -0.5187988281
1488507220.9277141094,1488507220.9300088882,        0.6152343750,        0.0092773438,       -0.1333007812,        0.3356933594,       -1.3580322266,       -0.5645751953
1488507220.9302821159,1488507220.9327120781,        0.6142578125,        0.0092773438,       -0.1333007812,        0.1525878906,       -0.7781982422,       -0.5645751953
1488507220.9329888821,1488507220.9352850914,        0.6142578125,        0.0092773438,       -0.1333007812,        0.1525878906,       -0.7781982422,       -0.6408691406
1488507220.9355609417,1488507220.9378519058,        0.6142578125,        0.0092773438,       -0.1333007812,        0.3509521484,       -1.0070800781,       -0.6408691406
1488507220.9381270409,1488507220.9404180050,        0.6142578125,        0.0136718750,       -0.1337890625,        0.3509521484,       -1.0070800781,       -0.6408691406
1488507220.9406919479,1488507220.9431159496,        0.6083984375,        0.0136718750,       -0.1337890625,        0.2593994141,       -1.1291503906,       -0.4272460938
1488507220.9433979988,1488507220.9458179474,        0.6083984375,        0.0136718750,       -0.1337890625,        0.2593994141,       -1.1291503906,       -0.4272460938
1488507220.9461019039,1488507220.9487509727,        0.6083984375,        0.0136718750,       -0.1337890625,        0.0762939453,       -0.9765625000,       -0.5493164062
1488507220.9490330219,1488507220.9514329433,        0.6166992188,        0.0087890625,       -0.1318359375,        0.0762939453,       -0.9765625000,       -0.3814697266
1488507220.9521129131,1488507220.9544060230,        0.6166992188,        0.0087890625,       -0.1318359375,        0.3814697266,       -0.9918212891,       -0.3814697266
1488507220.9546821117,1488507220.9569768906,        0.6166992188,        0.0087890625,       -0.1318359375,        0.3814697266,       -0.9918212891,       -0.1983642578
1488507220.9572529793,1488507220.9595439434,        0.6166992188,        0.0087890625,       -0.1318359375,        0.3356933594,       -1.4190673828,       -0.1983642578
1488507220.9598200321,1488507220.9621500969,        0.6152343750,        0.0048828125,       -0.1293945312,        0.3356933594,       -1.4190673828,       -0.1983642578
1488507220.9624330997,1488507220.9648559093,        0.6152343750,        0.0048828125,       -0.1293945312,        0.5493164062,       -1.2969970703,       -0.1220703125
1488507220.9651389122,1488507220.9675519466,        0.6152343750,        0.0048828125,       -0.1293945312,        0.5493164062,       -1.2969970703,       -0.1220703125
1488507220.9678339958,1488507220.9702498913,        0.6152343750,        0.0048828125,       -0.1313476562,        0.4577636719,       -0.9307861328,       -0.1068115234
1488507220.9705340862,1488507220.9729681015,        0.6142578125,        0.0078125000,       -0.1313476562,        0.4577636719,       -0.9307861328,       -0.1068115234
1488507220.9732511044,1488507220.9756689072,        0.6142578125,        0.0078125000,       -0.1313476562,        0.8850097656,       -1.1138916016,       -0.4730224609
1488507220.9759531021,1488507220.9783699512,        0.6142578125,        0.0078125000,       -0.1313476562,        0.8850097656,       -1.1138916016,       -0.4730224609
1488507220.9786539078,1488507220.9810709953,        0.6142578125,        0.0156250000,       -0.1220703125,        0.7476806641,       -1.4495849609,       -0.3356933594
1488507220.9813520908,1488507220.9836759567,        0.6196289062,        0.0156250000,       -0.1220703125,        0.7476806641,       -1.4495849609,       -0.3356933594
1488507220.9839510918,1488507220.9862511158,        0.6196289062,        0.0156250000,       -0.1220703125,        0.2288818359,       -1.2207031250,       -0.2288818359
1488507220.9866399765,1488507220.9889359474,        0.6196289062,        0.0156250000,       -0.1220703125,        0.2288818359,       -1.2207031250,       -0.2288818359
1488507220.9892120361,1488507220.9915039539,        0.6123046875,        0.0156250000,       -0.1308593750,        0.2746582031,       -1.4190673828,       -0.2746582031
1488507220.9917769432,1488507220.9940719604,        0.6123046875,        0.0156250000,       -0.1308593750,        0.2746582031,       -1.4190673828,       -0.2746582031
1488507220.9943459034,1488507220.9966421127,        0.6123046875,        0.0156250000,       -0.1308593750,        0.1220703125,       -1.2512207031,       -0.1831054688
1488507220.9969179630,1488507220.9992120266,        0.6123046875,        0.0156250000,       -0.1308593750,        0.1220703125,       -1.2512207031,       -0.1831054688
1488507220.9994869232,1488507221.0018589497,        0.6186523438,        0.0053710938,       -0.1274414062,        0.1525878906,       -1.0681152344,       -0.3204345703
1488507221.0021519661,1488507221.0044610500,        0.6186523438,        0.0053710938,       -0.1274414062,        0.1525878906,       -1.0681152344,       -0.3204345703
1488507221.0047380924,1488507221.0070381165,        0.6186523438,        0.0053710938,       -0.1274414062,        0.3356933594,       -1.3732910156,       -0.5340576172
1488507221.0073139668,1488507221.0096058846,        0.6186523438,        0.0053710938,       -0.1274414062,        0.3356933594,       -1.3732910156,       -0.5340576172
1488507221.0098819733,1488507221.0123350620,        0.6118164062,        0.0126953125,       -0.1206054688,        0.1525878906,       -0.9460449219,       -0.3204345703
1488507221.0126180649,1488507221.0150399208,        0.6118164062,        0.0126953125,       -0.1206054688,        0.1525878906,       -0.9460449219,       -0.3204345703
1488507221.0153229237,1488507221.0177381039,        0.6118164062,        0.0126953125,       -0.1206054688,       -0.6103515625,       -0.8087158203,        0.0915527344
1488507221.0180220604,1488507221.0204370022,        0.6118164062,        0.0126953125,       -0.2456054688,       -0.6103515625,       -0.8087158203,        0.0915527344
1488507221.0207200050,1488507221.0231509209,        0.6142578125,        0.0083007812,       -0.1347656250,       -1.0681152344,       -0.4882812500,       -0.0457763672
1488507221.0234339237,1488507221.0258479118,        0.6142578125,        0.0083007812,       -0.1347656250,       -1.0681152344,       -0.4882812500,       -0.0457763672
1488507221.0261309147,1488507221.0285460949,        0.6142578125,        0.0083007812,       -0.1347656250,       -0.3662109375,       -0.5340576172,        0.0000000000
1488507221.0288290977,1488507221.0312440395,        0.6142578125,        0.0161132812,       -0.1376953125,       -0.3662109375,       -0.5340576172,        0.0000000000
1488507221.0315260887,1488507221.0339560509,        0.6123046875,        0.0161132812,       -0.1376953125,       -0.1831054688,       -0.6408691406,       -0.1373291016
1488507221.0342400074,1488507221.0366530418,        0.6123046875,        0.0161132812,       -0.1376953125,       -0.1831054688,       -0.6408691406,       -0.1373291016
1488507221.0369338989,1488507221.0393509865,        0.6123046875,        0.0161132812,       -0.1376953125,       -0.1831054688,       -0.6256103516,       -0.1831054688
1488507221.0396330357,1488507221.0420899391,        0.6054687500,        0.0087890625,       -0.1284179688,       -0.3356933594,       -0.6256103516,       -0.1831054688
1488507221.0423669815,1488507221.0446510315,        0.6054687500,        0.0087890625,       -0.1284179688,       -0.3356933594,       -0.6561279297,       -0.0915527344
1488507221.0449259281,1488507221.0472168922,        0.6054687500,        0.0087890625,       -0.1284179688,       -0.5798339844,       -0.6561279297,       -0.0915527344
1488507221.0474929810,1488507221.0497848988,        0.6054687500,        0.0087890625,       -0.1284179688,       -0.5798339844,       -0.6561279297,       -0.0152587891
1488507221.0501680374,1488507221.0525579453,        0.6142578125,        0.0112304688,       -0.1425781250,        0.0000000000,       -0.6866455078,       -0.0152587891
1488507221.0528419018,1488507221.0552599430,        0.6142578125,        0.0112304688,       -0.1425781250,        0.0000000000,       -0.6866455078,       -0.1525878906
1488507221.0555419922,1488507221.0579600334,        0.6142578125,        0.0112304688,       -0.1425781250,        0.1525878906,       -0.9460449219,       -0.1525878906
1488507221.0582420826,1488507221.0606539249,        0.6142578125,        0.0112304688,       -0.1425781250,        0.1525878906,       -0.9460449219,       -0.3814697266
1488507221.0609340668,1488507221.0633659363,        0.6127929688,        0.0136718750,       -0.1328125000,       -0.1068115234,       -1.0528564453,       -0.3814697266
1488507221.0636489391,1488507221.0660638809,        0.6127929688,        0.0136718750,       -0.1328125000,       -0.1068115234,       -1.0528564453,       -0.5798339844
1488507221.0663480759,1488507221.0689699650,        0.6127929688,        0.0136718750,       -0.1328125000,        0.3509521484,       -1.2817382812,       -0.5798339844
1488507221.0692551136,1488507221.0720949173,        0.6127929688,        0.0073242188,       -0.1308593750,        0.3509521484,       -1.2817382812,       -0.3356933594
1488507221.0723819733,1488507221.0748009682,        0.6240234375,        0.0073242188,       -0.1308593750,        0.4577636719,       -1.1138916016,       -0.3356933594
1488507221.0750830173,1488507221.0774970055,        0.6240234375,        0.0073242188,       -0.1308593750,        0.3204345703,       -1.0833740234,       -0.2593994141
1488507221.0777800083,1488507221.0801920891,        0.6240234375,        0.0073242188,       -0.1308593750,        0.3204345703,       -1.0833740234,       -0.2593994141
1488507221.0804750919,1488507221.0829079151,        0.6176757812,        0.0117187500,       -0.1308593750,        0.3204345703,       -0.8850097656,       -0.1831054688
1488507221.0831890106,1488507221.0856099129,        0.6176757812,        0.0117187500,       -0.1308593750,        0.1831054688,       -0.8850097656,       -0.1831054688
1488507221.0858941078,1488507221.0884759426,        0.6176757812,        0.0117187500,       -0.1308593750,        0.1831054688,       -0.7934570312,       -0.1983642578
1488507221.0887548923,1488507221.0910460949,        0.6176757812,        0.0117187500,       -0.1308593750,        0.1831054688,       -0.7934570312,       -0.1983642578
1488507221.0913209915,1488507221.0936710835,        0.6142578125,        0.0156250000,       -0.1274414062,        0.1831054688,       -1.0070800781,       -0.1831054688
1488507221.0939450264,1488507221.0962309837,        0.6142578125,        0.0156250000,       -0.1274414062,        0.3204345703,       -1.0070800781,       -0.1831054688
1488507221.0965049267,1488507221.0987958908,        0.6142578125,        0.0156250000,       -0.1274414062,        0.3204345703,       -1.0070800781,       -0.1373291016
1488507221.0990710258,1488507221.1013550758,        0.6142578125,        0.0156250000,       -0.1328125000,        0.2288818359,       -0.9155273438,       -0.1373291016
1488507221.1016309261,1488507221.1039299965,        0.6147460938,        0.0131835938,       -0.1328125000,        0.2288818359,       -0.9155273438,       -0.0610351562
1488507221.1042060852,1488507221.1064929962,        0.6147460938,        0.0131835938,       -0.1328125000,       -0.0305175781,       -0.9307861328,       -0.0610351562
1488507221.1067669392,1488507221.1090528965,        0.6147460938,        0.0131835938,       -0.1328125000,       -0.0305175781,       -0.9307861328,       -0.0610351562
1488507221.1093270779,1488507221.1116209030,        0.6147460938,        0.0131835938,       -0.1391601562,       -0.3509521484,       -0.7629394531,        0.1983642578
1488507221.1119599342,1488507221.1142449379,        0.6103515625,        0.0092773438,       -0.1391601562,       -0.3509521484,       -0.7629394531,        0.1983642578
1488507221.1146209240,1488507221.1169109344,        0.6103515625,        0.0092773438,       -0.1391601562,       -0.2136230469,       -0.6408691406,        0.2593994141
1488507221.1171870232,1488507221.1194810867,        0.6103515625,        0.0092773438,       -0.1391601562,       -0.2136230469,       -0.6408691406,        0.2593994141
1488507221.1197559834,1488507221.1220879555,        0.6103515625,        0.0112304688,       -0.1298828125,       -0.6256103516,       -0.5645751953,        0.1525878906
1488507221.1223618984,1488507221.1246569157,        0.6098632812,        0.0112304688,       -0.1298828125,       -0.6256103516,       -0.5645751953,        0.1525878906
1488507221.1249310970,1488507221.1272189617,        0.6098632812,        0.0112304688,       -0.1298828125,       -0.5187988281,       -0.5645751953,        0.1220703125
1488507221.1274950504,1488507221.1297829151,        0.6098632812,        0.0112304688,       -0.1298828125,       -0.5187988281,       -0.5645751953,        0.1220703125
1488507221.1300590038,1488507221.1324748993,        0.6098632812,        0.0092773438,       -0.1401367188,       -0.2746582031,       -0.8239746094,       -0.1068115234
1488507221.1327519417,1488507221.1350400448,        0.6166992188,        0.0092773438,       -0.1401367188,       -0.2746582031,       -0.8239746094,       -0.1068115234
1488507221.1353149414,1488507221.1376030445,        0.6166992188,        0.0092773438,       -0.1401367188,       -0.2899169922,       -0.7629394531,       -0.2593994141
1488507221.1378788948,1488507221.1401720047,        0.6166992188,        0.0092773438,       -0.1401367188,       -0.2899169922,       -0.7629394531,       -0.2593994141
1488507221.1404480934,1488507221.1428298950,        0.6171875000,        0.0107421875,       -0.1333007812,       -0.2899169922,       -0.7629394531,       -0.1678466797
1488507221.1431059837,1488507221.1453990936,        0.6171875000,        0.0107421875,       -0.1333007812,       -0.0152587891,       -0.7629394531,       -0.1678466797
1488507221.1456739902,1488507221.1479599476,        0.6171875000,        0.0107421875,       -0.1333007812,       -0.0152587891,       -0.9765625000,        0.0305175781
1488507221.1482338905,1488507221.1505229473,        0.6171875000,        0.0107421875,       -0.1333007812,       -0.2288818359,       -0.9765625000,        0.0305175781
1488507221.1507959366,1488507221.1530919075,        0.6137695312,        0.0126953125,       -0.1352539062,       -0.2288818359,       -0.9765625000,        0.2593994141
1488507221.1533670425,1488507221.1556520462,        0.6137695312,        0.0126953125,       -0.1352539062,       -0.5340576172,       -0.5340576172,        0.2593994141
1488507221.1559269428,1488507221.1582159996,        0.6137695312,        0.0126953125,       -0.1352539062,       -0.5340576172,       -0.5340576172,        0.2593994141
1488507221.1584908962,1488507221.1607780457,        0.6137695312,        0.0126953125,       -0.1352539062,       -0.1831054688,       -0.6103515625,        0.1525878906
1488507221.1610529423,1488507221.1633460522,        0.6108398438,        0.0092773438,       -0.1274414062,       -0.1831054688,       -0.6103515625,        0.1525878906
1488507221.1636209488,1488507221.1659159660,        0.6108398438,        0.0092773438,       -0.1274414062,       -0.4882812500,       -0.5645751953,        0.0000000000
1488507221.1661920547,1488507221.1684799194,        0.6108398438,        0.0092773438,       -0.1274414062,       -0.4882812500,       -0.5645751953,        0.0000000000
1488507221.1687569618,1488507221.1710391045,        0.6108398438,        0.0092773438,       -0.1274414062,       -0.2593994141,       -0.7019042969,       -0.1525878906
1488507221.1713171005,1488507221.1736609936,        0.6123046875,        0.0087890625,       -0.1279296875,       -0.2593994141,       -0.7019042969,       -0.1525878906
1488507221.1739358902,1488507221.1762270927,        0.6123046875,        0.0087890625,       -0.1279296875,       -0.2899169922,       -0.5187988281,       -0.1831054688
1488507221.1765010357,1488507221.1787960529,        0.6123046875,        0.0087890625,       -0.1279296875,       -0.2899169922,       -0.5187988281,       -0.1831054688
1488507221.1791770458,1488507221.1814770699,        0.6123046875,        0.0087890625,       -0.1279296875,       -0.0457763672,       -0.8239746094,       -0.2746582031
1488507221.1817369461,1488507221.1841590405,        0.6074218750,        0.0083007812,       -0.1293945312,       -0.0457763672,       -0.8239746094,       -0.2746582031
1488507221.1844420433,1488507221.1868600845,        0.6074218750,        0.0083007812,       -0.1293945312,       -0.2746582031,       -0.7019042969,       -0.6103515625
1488507221.1871418953,1488507221.1895570755,        0.6074218750,        0.0083007812,       -0.1293945312,       -0.2746582031,       -0.7019042969,       -0.6103515625
1488507221.1898410320,1488507221.1922729015,        0.6074218750,        0.0083007812,       -0.1264648438,        0.2746582031,       -0.6866455078,       -0.6256103516
1488507221.1925489902,1488507221.1948440075,        0.6132812500,        0.0122070312,       -0.1264648438,        0.2746582031,       -0.6866455078,       -0.6256103516
1488507221.1951189041,1488507221.1974110603,        0.6132812500,        0.0122070312,       -0.1264648438,        0.0457763672,       -0.8239746094,       -0.4425048828
1488507221.1977000237,1488507221.2000501156,        0.6132812500,        0.0122070312,       -0.1264648438,        0.0457763672,       -0.8239746094,       -0.4425048828
1488507221.2003269196,1488507221.2031190395,        0.6132812500,        0.0122070312,       -0.1333007812,       -3.8604736328,       -0.6561279297,       -0.3814697266
1488507221.2034029961,1488507221.2058188915,        0.6181640625,        0.0063476562,       -0.1333007812,       -0.1373291016,       -0.6561279297,       -0.3814697266
1488507221.2061009407,1488507221.2085230350,        0.6181640625,        0.0063476562,       -0.1333007812,        0.2441406250,       -0.8239746094,       -0.5187988281
1488507221.2088079453,1488507221.2112300396,        0.6181640625,        0.0063476562,       -0.1333007812,        0.2441406250,       -0.8239746094,       -0.5187988281
1488507221.2115120888,1488507221.2139470577,        0.6147460938,        0.0097656250,       -0.1274414062,        0.1983642578,       -0.8239746094,       -0.5035400391
1488507221.2142500877,1488507221.2166628838,        0.6147460938,        0.0097656250,       -0.1274414062,        0.1983642578,       -0.8239746094,       -0.5035400391
1488507221.2169470787,1488507221.2193670273,        0.6147460938,        0.0097656250,       -0.1274414062,        0.1068115234,       -0.7629394531,       -0.2899169922
1488507221.2196500301,1488507221.2221169472,        0.6147460938,        0.0097656250,       -0.1274414062,        0.1068115234,       -0.7629394531,       -0.2899169922
1488507221.2224020958,1488507221.2248210907,        0.6142578125,        0.0151367188,       -0.1347656250,       -0.0457763672,       -0.7781982422,       -0.0152587891
1488507221.2251029015,1488507221.2275218964,        0.6142578125,        0.0151367188,       -0.1347656250,       -0.0457763672,       -0.7781982422,       -0.0152587891
1488507221.2278048992,1488507221.2302279472,        0.6142578125,        0.0151367188,       -0.1347656250,       -0.0762939453,       -0.6103515625,        0.1068115234
1488507221.2305109501,1488507221.2328739166,        0.6142578125,        0.0151367188,       -0.1352539062,       -0.0762939453,       -0.6103515625,        0.1068115234
1488507221.2331500053,1488507221.2354469299,        0.6162109375,        0.0083007812,       -0.1352539062,       -0.3967285156,       -0.5493164062,       -0.0762939453
1488507221.2357230186,1488507221.2380158901,        0.6162109375,        0.0083007812,       -0.1352539062,       -0.3967285156,       -0.5493164062,       -0.0762939453
1488507221.2382891178,1488507221.2405838966,        0.6162109375,        0.0083007812,       -0.1352539062,       -0.3967285156,       -0.7019042969,       -0.1220703125
1488507221.2408599854,1488507221.2431640625,        0.6162109375,        0.0083007812,       -0.1333007812,       -0.1525878906,       -0.7019042969,       -0.1220703125
1488507221.2435450554,1488507221.2458400726,        0.6127929688,        0.0083007812,       -0.1333007812,       -0.1525878906,       -0.7019042969,       -0.0610351562
1488507221.2461149693,1488507221.2484090328,        0.6127929688,        0.0083007812,       -0.1333007812,       -0.1831054688,       -0.4119873047,       -0.0610351562
1488507221.2486839294,1488507221.2509849072,        0.6127929688,        0.0083007812,       -0.1333007812,       -0.1831054688,       -0.4119873047,       -0.1983642578
1488507221.2512600422,1488507221.2537279129,        0.6127929688,        0.0107421875,       -0.1308593750,       -0.1525878906,       -0.4882812500,       -0.1983642578
1488507221.2540040016,1488507221.2562990189,        0.6132812500,        0.0107421875,       -0.1308593750,       -0.1525878906,       -0.4882812500,       -0.1678466797
1488507221.2565739155,1488507221.2588679790,        0.6132812500,        0.0107421875,       -0.1308593750,        0.1525878906,       -0.8239746094,       -0.1678466797
1488507221.2591419220,1488507221.2614309788,        0.6132812500,        0.0107421875,       -0.1308593750,        0.1525878906,       -0.8239746094,       -0.1678466797
1488507221.2618188858,1488507221.2642459869,        0.6113281250,        0.0083007812,       -0.1381835938,        0.0915527344,       -0.3509521484,       -0.1373291016
1488507221.2645308971,1488507221.2669489384,        0.6113281250,        0.0083007812,       -0.1381835938,        0.0915527344,       -0.3509521484,       -0.1373291016
1488507221.2672319412,1488507221.2696530819,        0.6113281250,        0.0083007812,       -0.1381835938,        0.4272460938,       -0.8392333984,       -0.2899169922
1488507221.2699370384,1488507221.2723679543,        0.6113281250,        0.0083007812,       -0.1381835938,        0.4272460938,       -0.8392333984,       -0.2899169922
1488507221.2726509571,1488507221.2750670910,        0.6171875000,        0.0087890625,       -0.1367187500,        0.0457763672,       -0.7324218750,       -0.1220703125
1488507221.2753510475,1488507221.2777690887,        0.6171875000,        0.0087890625,       -0.1367187500,        0.0457763672,       -0.7324218750,       -0.1220703125
1488507221.2780530453,1488507221.2804689407,        0.6171875000,        0.0087890625,       -0.1367187500,       -0.0610351562,       -0.9613037109,       -0.3662109375
1488507221.2807509899,1488507221.2831099033,        0.6171875000,        0.0087890625,       -0.1337890625,       -0.0610351562,       -0.9613037109,       -0.3662109375
1488507221.2833850384,1488507221.2856860161,        0.6137695312,        0.0097656250,       -0.1337890625,        0.1220703125,       -0.9918212891,       -0.4119873047
1488507221.2859621048,1488507221.2882540226,        0.6137695312,        0.0097656250,       -0.1337890625,        0.1220703125,       -0.9918212891,       -0.4119873047
1488507221.2885289192,1488507221.2908198833,        0.6137695312,        0.0097656250,       -0.1337890625,       -0.2899169922,       -0.3967285156,        0.0152587891
1488507221.2910950184,1488507221.2935330868,        0.6137695312,        0.0097656250,       -0.1303710938,       -0.2899169922,       -0.3967285156,        0.0152587891
1488507221.2938170433,1488507221.2962338924,        0.6093750000,        0.0043945312,       -0.1303710938,       -0.3051757812,       -0.7324218750,       -0.1983642578
1488507221.2965168953,1488507221.2989408970,        0.6093750000,        0.0043945312,       -0.1303710938,       -0.3051757812,       -0.7324218750,       -0.1983642578
1488507221.2992238998,1488507221.3016390800,        0.6093750000,        0.0043945312,       -0.1303710938,        0.2746582031,       -0.9613037109,       -0.5035400391
1488507221.3019719124,1488507221.3043899536,        0.6225585938,        0.0073242188,       -0.1323242188,        0.2746582031,       -0.9613037109,       -0.5035400391
1488507221.3046720028,1488507221.3070940971,        0.6225585938,        0.0073242188,       -0.1323242188,        0.6866455078,       -0.9155273438,       -0.3662109375
1488507221.3074810505,1488507221.3098978996,        0.6225585938,        0.0073242188,       -0.1323242188,        0.6866455078,       -0.9155273438,       -0.3662109375
1488507221.3101809025,1488507221.3126080036,        0.6225585938,        0.0073242188,       -0.1323242188,        0.4425048828,       -0.7171630859,       -0.2288818359
1488507221.3128929138,1488507221.3153140545,        0.6118164062,        0.0141601562,       -0.1308593750,        0.4425048828,       -0.7171630859,       -0.2288818359
1488507221.3155961037,1488507221.3181378841,        0.6118164062,        0.0141601562,       -0.1308593750,        0.1525878906,       -0.8392333984,       -0.1068115234
1488507221.3184220791,1488507221.3208270073,        0.6118164062,        0.0141601562,       -0.1308593750,        0.1525878906,       -0.8392333984,       -0.1068115234
1488507221.3211109638,1488507221.3239369392,        0.6118164062,        0.0141601562,       -0.1357421875,       -0.4425048828,       -0.7019042969,       -0.1831054688
1488507221.3242220879,1488507221.3266420364,        0.6186523438,        0.0048828125,       -0.1357421875,       -0.4425048828,       -0.7019042969,       -0.1831054688
1488507221.3269240856,1488507221.3293409348,        0.6186523438,        0.0048828125,       -0.1357421875,       -0.3662109375,       -0.7476806641,       -0.3051757812
1488507221.3296229839,1488507221.3320269585,        0.6186523438,        0.0048828125,       -0.1357421875,       -0.3662109375,       -0.7476806641,       -0.3051757812
1488507221.3323030472,1488507221.3346021175,        0.6142578125,        0.0024414062,       -0.1220703125,       -0.0457763672,       -0.4425048828,        0.1373291016
1488507221.3348770142,1488507221.3371689320,        0.6142578125,        0.0024414062,       -0.1220703125,       -0.0457763672,       -0.4425048828,        0.1373291016
1488507221.3374440670,1488507221.3397350311,        0.6142578125,        0.0024414062,       -0.1220703125,       -0.2288818359,       -0.8392333984,       -0.0762939453
1488507221.3400089741,1488507221.3423500061,        0.6142578125,        0.0024414062,       -0.1220703125,       -0.2288818359,       -0.8392333984,       -0.0762939453
1488507221.3426339626,1488507221.3450520039,        0.6069335938,        0.0126953125,       -0.1337890625,        0.1220703125,       -0.8392333984,       -0.3814697266
1488507221.3453350067,1488507221.3477549553,        0.6069335938,        0.0126953125,       -0.1337890625,        0.1220703125,       -0.8392333984,       -0.3814697266
1488507221.3480360508,1488507221.3504590988,        0.6069335938,        0.0126953125,       -0.1337890625,        0.1068115234,       -0.9918212891,       -0.3356933594
1488507221.3507409096,1488507221.3530991077,        0.6069335938,        0.0126953125,       -0.1337890625,        0.1068115234,       -0.9918212891,       -0.3356933594
1488507221.3533740044,1488507221.3556740284,        0.6098632812,        0.0117187500,       -0.1303710938,        0.0000000000,       -0.7476806641,       -0.1373291016
1488507221.3559489250,1488507221.3582429886,        0.6098632812,        0.0117187500,       -0.1303710938,        0.0000000000,       -0.7476806641,       -0.1373291016
1488507221.3585190773,1488507221.3608119488,        0.6098632812,        0.0117187500,       -0.1303710938,       -0.0762939453,       -0.7019042969,       -0.2746582031
1488507221.3610870838,1488507221.3634369373,        0.6098632812,        0.0117187500,       -0.1303710938,       -0.0762939453,       -0.7019042969,       -0.2746582031
1488507221.3637130260,1488507221.3659999371,        0.6103515625,        0.0102539062,       -0.1284179688,       -0.2288818359,       -0.9918212891,       -0.5950927734
1488507221.3662769794,1488507221.3685638905,        0.6103515625,        0.0102539062,       -0.1284179688,       -0.2288818359,       -0.9918212891,       -0.5950927734
1488507221.3688390255,1488507221.3711349964,        0.6103515625,        0.0102539062,       -0.1284179688,       -0.2288818359,       -0.9155273438,       -0.6408691406
1488507221.3715140820,1488507221.3739531040,        0.6103515625,        0.0102539062,       -0.1386718750,        0.1678466797,       -0.9155273438,       -0.6408691406
1488507221.3742289543,1488507221.3765280247,        0.6098632812,        0.0126953125,       -0.1386718750,        0.1678466797,       -0.8697509766,       -0.1373291016
1488507221.3768019676,1488507221.3790960312,        0.6098632812,        0.0126953125,       -0.1386718750,       -0.4119873047,       -0.8697509766,       -0.1373291016
1488507221.3793709278,1488507221.3818130493,        0.6098632812,        0.0126953125,       -0.1386718750,       -0.4119873047,       -0.8697509766,       -0.0152587891
1488507221.3820879459,1488507221.3843879700,        0.6098632812,        0.0126953125,       -0.1323242188,       -0.3967285156,       -0.7324218750,       -0.0152587891
1488507221.3846631050,1488507221.3869550228,        0.6186523438,        0.0087890625,       -0.1323242188,       -0.3967285156,       -0.7324218750,       -0.0305175781
1488507221.3872311115,1488507221.3895239830,        0.6186523438,        0.0087890625,       -0.1323242188,       -0.3814697266,       -0.5950927734,       -0.0305175781
1488507221.3898000717,1488507221.3921489716,        0.6186523438,        0.0087890625,       -0.1323242188,       -0.3814697266,       -0.5950927734,       -0.0305175781
1488507221.3924329281,1488507221.3948540688,        0.6186523438,        0.0112304688,       -0.1425781250,       -0.1831054688,       -0.9765625000,       -0.1068115234
1488507221.3951370716,1488507221.3975589275,        0.6157226562,        0.0112304688,       -0.1425781250,       -0.1831054688,       -0.9765625000,       -0.1068115234
1488507221.3978409767,1488507221.4002590179,        0.6157226562,        0.0112304688,       -0.1425781250,        0.2288818359,       -1.0986328125,       -0.4119873047
1488507221.4005401134,1488507221.4029700756,        0.6157226562,        0.0112304688,       -0.1425781250,        0.2288818359,       -1.0986328125,       -0.4119873047
1488507221.4032518864,1488507221.4056739807,        0.6176757812,        0.0053710938,       -0.1264648438,       -0.2441406250,       -0.8239746094,       -0.2593994141
1488507221.4059569836,1488507221.4083790779,        0.6176757812,        0.0053710938,       -0.1264648438,       -0.2441406250,       -0.8239746094,       -0.2593994141
1488507221.4086620808,1488507221.4110789299,        0.6176757812,        0.0053710938,       -0.1264648438,       -0.0305175781,       -0.8850097656,       -0.2288818359
1488507221.4113600254,1488507221.4137918949,        0.6176757812,        0.0053710938,       -0.1264648438,       -0.0305175781,       -0.8850097656,       -0.2288818359
1488507221.4140748978,1488507221.4164910316,        0.6210937500,        0.0151367188,       -0.1372070312,       -0.0915527344,       -0.6408691406,        0.0610351562
1488507221.4167730808,1488507221.4191958904,        0.6210937500,        0.0151367188,       -0.1372070312,       -0.0915527344,       -0.6408691406,        0.0610351562
1488507221.4194800854,1488507221.4219059944,        0.6210937500,        0.0151367188,       -0.1372070312,        0.1831054688,       -0.7476806641,       -0.1220703125
1488507221.4221870899,1488507221.4246020317,        0.6210937500,        0.0151367188,       -0.1245117188,        0.1831054688,       -0.7476806641,       -0.1220703125
1488507221.4248859882,1488507221.4273080826,        0.6137695312,        0.0097656250,       -0.1245117188,       -0.5493164062,       -0.6256103516,       -0.2746582031
1488507221.4275910854,1488507221.4300100803,        0.6137695312,        0.0097656250,       -0.1245117188,       -0.5493164062,       -0.6256103516,       -0.2746582031
1488507221.4302930832,1488507221.4326670170,        0.6137695312,        0.0097656250,       -0.1245117188,       -0.3204345703,       -0.6713867188,       -0.1678466797
1488507221.4329431057,1488507221.4352390766,        0.6137695312,        0.0141601562,       -0.1386718750,       -0.3204345703,       -0.6713867188,       -0.1678466797
1488507221.4356219769,1488507221.4380409718,        0.6157226562,        0.0141601562,       -0.1386718750,       -0.2899169922,       -0.7171630859,       -0.2899169922
1488507221.4383308887,1488507221.4406380653,        0.6157226562,        0.0141601562,       -0.1386718750,       -0.2899169922,       -0.7171630859,       -0.2899169922
1488507221.4409160614,1488507221.4437360764,        0.6157226562,        0.0141601562,       -0.1386718750,       -0.7934570312,       -0.5645751953,       -0.1220703125
1488507221.4440209866,1488507221.4464418888,        0.6137695312,        0.0107421875,       -0.1406250000,       -0.7934570312,       -0.5645751953,       -0.1220703125
1488507221.4467270374,1488507221.4491479397,        0.6137695312,        0.0107421875,       -0.1406250000,       -0.4730224609,       -0.4730224609,       -0.0305175781
1488507221.4494309425,1488507221.4518890381,        0.6137695312,        0.0107421875,       -0.1406250000,       -0.4730224609,       -0.4730224609,       -0.0305175781
1488507221.4521710873,1488507221.4545960426,        0.6137695312,        0.0107421875,       -0.0156250000,       -0.5187988281,       -0.7781982422,       -0.1678466797
1488507221.4548768997,1488507221.4572939873,        0.6079101562,        0.0078125000,       -0.1250000000,       -0.5187988281,       -0.7781982422,       -0.1678466797
1488507221.4575779438,1488507221.4599950314,        0.6079101562,        0.0078125000,       -0.1250000000,       -0.1068115234,       -0.7781982422,       -0.2441406250
1488507221.4602780342,1488507221.4627099037,        0.6079101562,        0.0078125000,       -0.1250000000,       -0.1068115234,       -0.7781982422,       -0.2441406250
1488507221.4629950523,1488507221.4654130936,        0.6079101562,        0.0078125000,       -0.1352539062,       -0.6408691406,       -0.4882812500,       -0.2441406250
1488507221.4656970501,1488507221.4681138992,        0.6083984375,        0.0078125000,       -0.1352539062,       -0.6408691406,       -0.4882812500,       -0.2441406250
1488507221.4683959484,1488507221.4708180428,        0.6083984375,        0.0078125000,       -0.1352539062,       -0.2899169922,       -0.6103515625,       -0.3814697266
1488507221.4711019993,1488507221.4734380245,        0.6083984375,        0.0078125000,       -0.1352539062,       -0.2899169922,       -0.6103515625,       -0.3814697266
1488507221.4737150669,1488507221.4760129452,        0.6118164062,        0.0131835938,       -0.1293945312,       -0.0610351562,       -1.0223388672,       -0.3967285156
1488507221.4762880802,1488507221.4785790443,        0.6118164062,        0.0131835938,       -0.1293945312,       -0.0610351562,       -1.0223388672,       -0.3967285156
1488507221.4788529873,1488507221.4811470509,        0.6118164062,        0.0131835938,       -0.1293945312,       -0.2746582031,       -0.7629394531,       -0.0915527344
1488507221.4814219475,1488507221.4837260246,        0.6118164062,        0.0131835938,       -0.1293945312,       -0.2746582031,       -0.7629394531,       -0.0915527344
1488507221.4839990139,1488507221.4862890244,        0.6132812500,        0.0083007812,       -0.1318359375,        0.2441406250,       -0.7629394531,       -0.2441406250
1488507221.4865660667,1488507221.4888598919,        0.6132812500,        0.0083007812,       -0.1318359375,        0.2441406250,       -0.7629394531,       -0.2441406250
1488507221.4891359806,1488507221.4914350510,        0.6132812500,        0.0083007812,       -0.1318359375,        0.4730224609,       -0.7781982422,       -0.4272460938
1488507221.4918370247,1488507221.4941329956,        0.6132812500,        0.0083007812,       -0.1318359375,        0.4730224609,       -0.7781982422,       -0.4272460938
1488507221.4944100380,1488507221.4967079163,        0.6132812500,        0.0039062500,       -0.1289062500,        0.3509521484,       -1.1596679688,       -0.3356933594
1488507221.4969849586,1488507221.4992790222,        0.6132812500,        0.0039062500,       -0.1289062500,        0.3509521484,       -1.1596679688,       -0.3356933594
1488507221.4996619225,1488507221.5020549297,        0.6132812500,        0.0039062500,       -0.1289062500,       -3.5552978516,       -0.9002685547,       -0.0915527344
1488507221.5023388863,1488507221.5047590733,        0.6132812500,        0.0039062500,       -0.1289062500,       -0.0152587891,       -0.9002685547,       -0.0915527344
1488507221.5050439835,1488507221.5074620247,        0.6142578125,        0.0097656250,       -0.1376953125,       -0.0152587891,       -1.0070800781,        0.0000000000
1488507221.5077469349,1488507221.5101621151,        0.6142578125,        0.0097656250,       -0.1376953125,       -0.2899169922,       -1.0070800781,        0.0000000000
1488507221.5104429722,1488507221.5129060745,        0.6142578125,        0.0097656250,       -0.1376953125,       -0.2899169922,       -0.8850097656,       -0.1373291016
1488507221.5131909847,1488507221.5156040192,        0.6142578125,        0.0097656250,       -0.1269531250,       -0.5035400391,       -0.8850097656,       -0.1373291016
1488507221.5158870220,1488507221.5183091164,        0.6108398438,        0.0092773438,       -0.1269531250,       -0.5035400391,       -0.7629394531,       -0.0915527344
1488507221.5185930729,1488507221.5210070610,        0.6108398438,        0.0092773438,       -0.1269531250,       -0.6103515625,       -0.7629394531,       -0.0915527344
1488507221.5212919712,1488507221.5236189365,        0.6108398438,        0.0092773438,       -0.1269531250,       -0.6103515625,       -0.6561279297,        0.0610351562
1488507221.5238950253,1488507221.5261909962,        0.6108398438,        0.0068359375,       -0.1362304688,       -0.4119873047,       -0.6561279297,        0.0610351562
1488507221.5264670849,1488507221.5287590027,        0.6069335938,        0.0068359375,       -0.1362304688,       -0.4119873047,       -0.6561279297,       -0.1220703125
1488507221.5290350914,1488507221.5313210487,        0.6069335938,        0.0068359375,       -0.1362304688,       -0.2288818359,       -0.7476806641,       -0.1220703125
1488507221.5315980911,1488507221.5340199471,        0.6069335938,        0.0068359375,       -0.1362304688,       -0.2288818359,       -0.7476806641,        0.2288818359
1488507221.5343039036,1488507221.5367190838,        0.6142578125,        0.0092773438,       -0.1352539062,       -0.2288818359,       -0.5950927734,        0.2288818359
1488507221.5370020866,1488507221.5394220352,        0.6142578125,        0.0092773438,       -0.1352539062,       -0.2288818359,       -0.5950927734,        0.0762939453
1488507221.5397050381,1488507221.5422101021,        0.6142578125,        0.0092773438,       -0.1352539062,       -0.1068115234,       -0.6408691406,        0.0762939453
1488507221.5424890518,1488507221.5447790623,        0.6142578125,        0.0092773438,       -0.1352539062,       -0.1068115234,       -0.6408691406,       -0.3356933594
1488507221.5450549126,1488507221.5473508835,        0.6103515625,        0.0078125000,       -0.1303710938,       -0.3662109375,       -0.7019042969,       -0.3356933594
1488507221.5476269722,1488507221.5499219894,        0.6103515625,        0.0078125000,       -0.1303710938,       -0.3662109375,       -0.7019042969,       -0.3356933594
1488507221.5501980782,1488507221.5525629520,        0.6103515625,        0.0078125000,       -0.1303710938,       -0.5950927734,       -0.4272460938,       -0.3356933594
1488507221.5528469086,1488507221.5552699566,        0.6103515625,        0.0078125000,       -0.1303710938,       -0.5950927734,       -0.4272460938,       -0.3356933594
1488507221.5555529594,1488507221.5581030846,        0.6083984375,        0.0092773438,       -0.1381835938,       -0.1373291016,       -0.5187988281,       -0.2746582031
1488507221.5583961010,1488507221.5608139038,        0.6083984375,        0.0092773438,       -0.1381835938,       -0.1373291016,       -0.5187988281,       -0.2746582031
1488507221.5611000061,1488507221.5639269352,        0.6083984375,        0.0092773438,       -0.1381835938,       -0.1220703125,       -0.6256103516,       -0.2288818359
1488507221.5643229485,1488507221.5667378902,        0.6083984375,        0.0107421875,       -0.1401367188,       -0.1220703125,       -0.6256103516,       -0.0305175781
1488507221.5670199394,1488507221.5694429874,        0.6157226562,        0.0107421875,       -0.1401367188,       -0.3356933594,       -0.7019042969,       -0.0305175781
1488507221.5697250366,1488507221.5721349716,        0.6157226562,        0.0107421875,       -0.1401367188,       -0.3356933594,       -0.7019042969,        0.0000000000
1488507221.5724101067,1488507221.5747060776,        0.6157226562,        0.0107421875,       -0.1401367188,        0.0610351562,       -0.7171630859,        0.0000000000
1488507221.5749819279,1488507221.5772709846,        0.6083984375,        0.0043945312,       -0.1293945312,        0.0610351562,       -0.7171630859,        0.0000000000
1488507221.5775449276,1488507221.5798380375,        0.6083984375,        0.0043945312,       -0.1293945312,       -0.2899169922,       -0.2441406250,        0.0610351562
1488507221.5801138878,1488507221.5824980736,        0.6083984375,        0.0043945312,       -0.1293945312,       -0.2899169922,       -0.2441406250,        0.0610351562
1488507221.5827820301,1488507221.5851979256,        0.6083984375,        0.0043945312,       -0.1293945312,       -0.2899169922,       -0.3662109375,       -0.1068115234
1488507221.5854799747,1488507221.5878980160,        0.6137695312,        0.0078125000,       -0.1372070312,       -0.2899169922,       -0.3662109375,       -0.1068115234
1488507221.5881810188,1488507221.5905959606,        0.6137695312,        0.0078125000,       -0.1372070312,       -0.0457763672,       -0.8087158203,       -0.1678466797
1488507221.5908799171,1488507221.5932259560,        0.6137695312,        0.0078125000,       -0.1372070312,       -0.0457763672,       -0.8087158203,       -0.1678466797
1488507221.5935029984,1488507221.5957961082,        0.6137695312,        0.0078125000,       -0.1372070312,        0.0457763672,       -0.9002685547,       -0.3051757812
1488507221.5960710049,1488507221.5988519192,        0.6147460938,        0.0073242188,       -0.1240234375,        0.0457763672,       -0.9002685547,       -0.3051757812
1488507221.5991311073,1488507221.6014211178,        0.6147460938,        0.0073242188,       -0.1240234375,       -0.1678466797,       -0.7019042969,       -0.2441406250
1488507221.6017549038,1488507221.6040449142,        0.6147460938,        0.0073242188,       -0.1240234375,       -0.1678466797,       -0.7019042969,       -0.2441406250
1488507221.6043210030,1488507221.6066091061,        0.6147460938,        0.0131835938,       -0.1269531250,       -0.0305175781,       -0.6713867188,       -0.1068115234
1488507221.6068840027,1488507221.6091780663,        0.6098632812,        0.0131835938,       -0.1269531250,       -0.0305175781,       -0.6713867188,       -0.1068115234
1488507221.6094529629,1488507221.6117489338,        0.6098632812,        0.0131835938,       -0.1269531250,        0.0762939453,       -0.6561279297,       -0.3509521484
1488507221.6120240688,1488507221.6143169403,        0.6098632812,        0.0131835938,       -0.1269531250,        0.0762939453,       -0.6561279297,       -0.3509521484
1488507221.6145920753,1488507221.6168770790,        0.6098632812,        0.0107421875,       -0.1318359375,       -0.1983642578,       -0.4272460938,       -0.1678466797
1488507221.6171529293,1488507221.6194419861,        0.6137695312,        0.0107421875,       -0.1318359375,       -0.1983642578,       -0.4272460938,       -0.1678466797
1488507221.6197190285,1488507221.6220109463,        0.6137695312,        0.0107421875,       -0.1318359375,        0.0762939453,       -0.7171630859,       -0.1983642578
1488507221.6222860813,1488507221.6245739460,        0.6137695312,        0.0107421875,       -0.1318359375,        0.0762939453,       -0.7171630859,       -0.1983642578
1488507221.6248478889,1488507221.6271369457,        0.6137695312,        0.0078125000,       -0.1308593750,       -3.8299560547,       -0.6561279297,       -0.0610351562
1488507221.6275219917,1488507221.6298201084,        0.6186523438,        0.0078125000,       -0.1308593750,       -0.2288818359,       -0.6561279297,       -0.0610351562
1488507221.6300959587,1488507221.6323969364,        0.6186523438,        0.0078125000,       -0.1308593750,       -0.2288818359,       -0.8544921875,       -0.2746582031
1488507221.6326720715,1488507221.6349649429,        0.6186523438,        0.0078125000,       -0.1308593750,       -0.3356933594,       -0.8544921875,       -0.2746582031
1488507221.6352400780,1488507221.6375300884,        0.6079101562,        0.0048828125,       -0.1289062500,       -0.3356933594,       -0.8544921875,       -0.2441406250
1488507221.6378059387,1488507221.6400918961,        0.6079101562,        0.0048828125,       -0.1289062500,       -0.2899169922,       -0.7781982422,       -0.2441406250
1488507221.6403670311,1488507221.6428289413,        0.6079101562,        0.0048828125,       -0.1289062500,       -0.2899169922,       -0.7781982422,        0.1983642578
1488507221.6431050301,1488507221.6454010010,        0.6079101562,        0.0048828125,       -0.1289062500,       -0.3051757812,       -0.4272460938,        0.1983642578
1488507221.6456770897,1488507221.6479759216,        0.6147460938,        0.0161132812,       -0.1376953125,       -0.3051757812,       -0.4272460938,        0.1983642578
1488507221.6482520103,1488507221.6505439281,        0.6147460938,        0.0161132812,       -0.1376953125,        0.0000000000,       -0.7934570312,       -0.1831054688
1488507221.6508200169,1488507221.6532850266,        0.6147460938,        0.0161132812,       -0.1376953125,        0.0000000000,       -0.7934570312,       -0.1831054688
1488507221.6535680294,1488507221.6559898853,        0.6147460938,        0.0161132812,       -0.1376953125,        0.0915527344,       -0.7781982422,       -0.1678466797
1488507221.6562709808,1488507221.6586909294,        0.6127929688,        0.0136718750,       -0.1328125000,        0.0915527344,       -0.7781982422,       -0.1678466797
1488507221.6589729786,1488507221.6613900661,        0.6127929688,        0.0136718750,       -0.1328125000,       -0.4425048828,       -0.2288818359,        0.0000000000
1488507221.6617128849,1488507221.6641280651,        0.6127929688,        0.0136718750,       -0.1328125000,       -0.4425048828,       -0.2288818359,        0.0000000000
1488507221.6644120216,1488507221.6668319702,        0.6127929688,        0.0136718750,       -0.1328125000,       -0.4272460938,       -0.2593994141,       -0.0152587891
1488507221.6671130657,1488507221.6695311069,        0.6113281250,        0.0107421875,       -0.1372070312,       -0.4272460938,       -0.2593994141,       -0.0152587891
1488507221.6698141098,1488507221.6722080708,        0.6113281250,        0.0107421875,       -0.1372070312,       -0.2288818359,       -0.7019042969,        0.0915527344
1488507221.6724839211,1488507221.6747779846,        0.6113281250,        0.0107421875,       -0.1372070312,       -0.2288818359,       -0.7019042969,        0.0915527344
1488507221.6750540733,1488507221.6773478985,        0.6113281250,        0.0078125000,       -0.1313476562,       -0.1983642578,       -0.7019042969,        0.0762939453
1488507221.6776230335,1488507221.6799139977,        0.6166992188,        0.0078125000,       -0.1313476562,       -0.1983642578,       -0.7019042969,        0.0762939453
1488507221.6801910400,1488507221.6825480461,        0.6166992188,        0.0078125000,       -0.1313476562,       -0.2441406250,       -0.4882812500,        0.1068115234
1488507221.6828329563,1488507221.6852500439,        0.6166992188,        0.0078125000,       -0.1313476562,       -0.2441406250,       -0.4882812500,        0.1068115234
1488507221.6855330467,1488507221.6879529953,        0.6166992188,        0.0063476562,       -0.1347656250,       -0.2288818359,       -0.5493164062,       -0.0305175781
1488507221.6882350445,1488507221.6906480789,        0.6079101562,        0.0063476562,       -0.1347656250,       -0.2288818359,       -0.5493164062,       -0.0305175781
1488507221.6910378933,1488507221.6935029030,        0.6079101562,        0.0063476562,       -0.1347656250,       -0.1831054688,       -0.8697509766,       -0.0915527344
1488507221.6937859058,1488507221.6962020397,        0.6079101562,        0.0063476562,       -0.1347656250,       -0.1831054688,       -0.8697509766,       -0.0915527344
1488507221.6964859962,1488507221.6989018917,        0.6142578125,        0.0087890625,       -0.1420898438,        0.0152587891,       -0.7324218750,       -0.1525878906
1488507221.6991860867,1488507221.7016010284,        0.6142578125,        0.0087890625,       -0.1420898438,        0.0152587891,       -0.7324218750,       -0.1525878906
1488507221.7019319534,1488507221.7043490410,        0.6142578125,        0.0087890625,       -0.1420898438,       -0.6713867188,       -0.7324218750,        0.2136230469
1488507221.7046320438,1488507221.7070460320,        0.6142578125,        0.0087890625,       -0.1420898438,       -0.6713867188,       -0.7324218750,        0.2136230469
1488507221.7073299885,1488507221.7098219395,        0.6079101562,        0.0117187500,       -0.1274414062,        0.0457763672,       -0.9307861328,        0.1068115234
1488507221.7101070881,1488507221.7129399776,        0.6079101562,        0.0117187500,       -0.1274414062,        0.0457763672,       -0.9307861328,        0.1068115234
1488507221.7132260799,1488507221.7156450748,        0.6079101562,        0.0117187500,       -0.1274414062,        0.3662109375,       -0.9002685547,        0.3814697266
1488507221.7159280777,1488507221.7183489799,        0.6088867188,        0.0097656250,       -0.1401367188,        0.3662109375,       -0.9002685547,        0.3814697266
1488507221.7186319828,1488507221.7210469246,        0.6088867188,        0.0097656250,       -0.1401367188,       -0.0610351562,       -0.7476806641,        0.0000000000
1488507221.7213299274,1488507221.7236540318,        0.6088867188,        0.0097656250,       -0.1401367188,       -0.0610351562,       -0.7476806641,        0.0000000000
1488507221.7239310741,1488507221.7262260914,        0.6088867188,        0.0097656250,       -0.1401367188,       -0.0457763672,       -0.5950927734,        0.2441406250
1488507221.7265040874,1488507221.7287929058,        0.6132812500,        0.0039062500,       -0.1357421875,       -0.0457763672,       -0.5950927734,        0.2441406250
1488507221.7290689945,1488507221.7313580513,        0.6132812500,        0.0039062500,       -0.1357421875,       -0.0152587891,       -0.6103515625,        0.1525878906
1488507221.7316329479,1488507221.7340550423,        0.6132812500,        0.0039062500,       -0.1357421875,       -0.0152587891,       -0.6103515625,        0.1525878906
1488507221.7343380451,1488507221.7367579937,        0.6132812500,        0.0039062500,       -0.1357421875,       -0.1678466797,       -0.5187988281,        0.3509521484
1488507221.7370419502,1488507221.7394599915,        0.6137695312,        0.0175781250,       -0.1367187500,       -0.1678466797,       -0.5187988281,        0.3509521484
1488507221.7397420406,1488507221.7421500683,        0.6137695312,        0.0175781250,       -0.1367187500,       -0.1068115234,       -0.3662109375,        0.1220703125
1488507221.7424249649,1488507221.7447180748,        0.6137695312,        0.0175781250,       -0.1367187500,       -0.1068115234,       -0.3662109375,        0.1220703125
1488507221.7449920177,1488507221.7472810745,        0.6137695312,        0.0175781250,       -0.1367187500,       -0.2593994141,       -0.4425048828,        0.0610351562
1488507221.7475569248,1488507221.7498970032,        0.6098632812,        0.0112304688,       -0.1357421875,       -0.2593994141,       -0.4425048828,        0.0610351562
1488507221.7501718998,1488507221.7525119781,        0.6098632812,        0.0112304688,       -0.1357421875,       -0.4577636719,       -0.2593994141,       -0.0152587891
1488507221.7527849674,1488507221.7550730705,        0.6098632812,        0.0112304688,       -0.1357421875,       -0.4577636719,       -0.2593994141,       -0.0152587891
1488507221.7554490566,1488507221.7577409744,        0.6098632812,        0.0112304688,       -0.1274414062,        3.4484863281,       -0.7781982422,       -0.1831054688
1488507221.7580161095,1488507221.7603139877,        0.6108398438,        0.0087890625,       -0.1274414062,        0.2288818359,       -0.7781982422,       -0.1831054688
1488507221.7605879307,1488507221.7630040646,        0.6108398438,        0.0087890625,       -0.1274414062,        0.2288818359,       -0.9002685547,       -0.0305175781
1488507221.7632789612,1488507221.7655739784,        0.6108398438,        0.0087890625,       -0.1274414062,       -0.1373291016,       -0.9002685547,       -0.0305175781
1488507221.7658479214,1488507221.7681379318,        0.6108398438,        0.0087890625,       -0.1215820312,       -0.1373291016,       -0.9002685547,        0.1068115234
1488507221.7684130669,1488507221.7707040310,        0.6142578125,        0.0063476562,       -0.1215820312,       -0.3814697266,       -0.4119873047,        0.1068115234
1488507221.7709810734,1488507221.7734329700,        0.6142578125,        0.0063476562,       -0.1215820312,       -0.3814697266,       -0.4119873047,        0.0610351562
1488507221.7737131119,1488507221.7760090828,        0.6142578125,        0.0063476562,       -0.1215820312,       -0.4425048828,       -0.3509521484,        0.0610351562
1488507221.7762849331,1488507221.7785770893,        0.6142578125,        0.0102539062,       -0.1372070312,       -0.4425048828,       -0.3509521484,        0.0610351562
1488507221.7788519859,1488507221.7811429501,        0.6118164062,        0.0102539062,       -0.1372070312,       -0.2288818359,       -0.6866455078,        0.1983642578
1488507221.7814168930,1488507221.7838280201,        0.6118164062,        0.0102539062,       -0.1372070312,       -0.2288818359,       -0.6866455078,        0.1983642578
1488507221.7841110229,1488507221.7865309715,        0.6118164062,        0.0102539062,       -0.1372070312,       -0.3662109375,       -0.9307861328,       -0.0610351562
1488507221.7868130207,1488507221.7892279625,        0.6113281250,        0.0117187500,       -0.1347656250,       -0.3662109375,       -0.9307861328,       -0.0610351562
1488507221.7895109653,1488507221.7919380665,        0.6113281250,        0.0117187500,       -0.1347656250,       -0.2441406250,       -0.8392333984,       -0.1525878906
1488507221.7922201157,1488507221.7946369648,        0.6113281250,        0.0117187500,       -0.1347656250,       -0.2441406250,       -0.8392333984,       -0.1525878906
1488507221.7949199677,1488507221.7973330021,        0.6113281250,        0.0117187500,       -0.1347656250,        0.0915527344,       -0.8087158203,        0.1220703125
1488507221.7976160049,1488507221.8000309467,        0.6093750000,        0.0063476562,       -0.1362304688,        0.0915527344,       -0.8087158203,        0.1220703125
1488507221.8003149033,1488507221.8027470112,        0.6093750000,        0.0063476562,       -0.1362304688,       -0.0762939453,       -0.2593994141,        0.1678466797
1488507221.8030290604,1488507221.8054480553,        0.6093750000,        0.0063476562,       -0.1362304688,       -0.0762939453,       -0.2593994141,        0.1678466797
1488507221.8057301044,1488507221.8081519604,        0.6093750000,        0.0063476562,       -0.1362304688,        0.1068115234,       -0.6103515625,        0.0305175781
1488507221.8084371090,1488507221.8108549118,        0.6127929688,        0.0078125000,       -0.1367187500,        0.1068115234,       -0.6103515625,        0.0305175781
1488507221.8111391068,1488507221.8135700226,        0.6127929688,        0.0078125000,       -0.1367187500,        0.0000000000,       -1.0528564453,        0.1220703125
1488507221.8138530254,1488507221.8162720203,        0.6127929688,        0.0078125000,       -0.1367187500,        0.0000000000,       -1.0528564453,        0.1220703125
1488507221.8165559769,1488507221.8189699650,        0.6127929688,        0.0024414062,       -0.1250000000,        0.1678466797,       -0.8544921875,        0.0305175781
1488507221.8192529678,1488507221.8217039108,        0.6064453125,        0.0024414062,       -0.1250000000,        0.1678466797,       -0.8544921875,        0.0305175781
1488507221.8220911026,1488507221.8243811131,        0.6064453125,        0.0024414062,       -0.1250000000,       -0.1068115234,       -0.8697509766,       -0.1831054688
1488507221.8246569633,1488507221.8269519806,        0.6064453125,        0.0024414062,       -0.1250000000,       -0.1068115234,       -0.8697509766,       -0.1831054688
1488507221.8272280693,1488507221.8297059536,        0.6152343750,        0.0063476562,       -0.1337890625,        0.0305175781,       -0.6408691406,       -0.0762939453
1488507221.8299829960,1488507221.8325810432,        0.6152343750,        0.0063476562,       -0.1337890625,        0.0305175781,       -0.6408691406,       -0.0762939453
1488507221.8328649998,1488507221.8352708817,        0.6152343750,        0.0063476562,       -0.1337890625,        0.1220703125,       -0.9918212891,        0.1220703125
1488507221.8355550766,1488507221.8379530907,        0.6152343750,        0.0063476562,       -0.1337890625,        0.1220703125,       -0.9918212891,        0.1220703125
1488507221.8382360935,1488507221.8406350613,        0.6142578125,        0.0122070312,       -0.1386718750,        0.3051757812,       -1.0681152344,        0.3356933594
1488507221.8409180641,1488507221.8433160782,        0.6142578125,        0.0122070312,       -0.1386718750,        0.3051757812,       -1.0681152344,        0.3356933594
1488507221.8435978889,1488507221.8459799290,        0.6142578125,        0.0122070312,       -0.1386718750,       -0.3204345703,       -0.7934570312,       -0.0305175781
1488507221.8462600708,1488507221.8486769199,        0.6142578125,        0.0122070312,       -0.1298828125,       -0.3204345703,       -0.7934570312,       -0.0305175781
1488507221.8489580154,1488507221.8513579369,        0.6127929688,        0.0087890625,       -0.1298828125,       -0.0610351562,       -0.4272460938,        0.2288818359
1488507221.8516409397,1488507221.8540790081,        0.6127929688,        0.0087890625,       -0.1298828125,       -0.0610351562,       -0.4272460938,        0.2288818359
1488507221.8543579578,1488507221.8567399979,        0.6127929688,        0.0087890625,       -0.1298828125,        0.2288818359,       -0.9155273438,       -0.1220703125
1488507221.8570199013,1488507221.8593990803,        0.6127929688,        0.0112304688,       -0.1279296875,        0.2288818359,       -0.9155273438,       -0.1220703125
1488507221.8596789837,1488507221.8621490002,        0.6210937500,        0.0112304688,       -0.1279296875,        0.1068115234,       -0.8544921875,        0.0152587891
1488507221.8624238968,1488507221.8647189140,        0.6210937500,        0.0112304688,       -0.1279296875,        0.1068115234,       -0.8544921875,        0.0152587891
1488507221.8649930954,1488507221.8672881126,        0.6210937500,        0.0112304688,       -0.1279296875,        0.1068115234,       -1.1291503906,       -0.0152587891
1488507221.8675639629,1488507221.8698589802,        0.6157226562,        0.0078125000,       -0.1376953125,        0.1068115234,       -1.1291503906,       -0.0152587891
1488507221.8701360226,1488507221.8724770546,        0.6157226562,        0.0078125000,       -0.1376953125,       -0.0305175781,       -0.9155273438,        0.3051757812
1488507221.8727529049,1488507221.8750500679,        0.6157226562,        0.0078125000,       -0.1376953125,       -0.0305175781,       -0.9155273438,        0.3051757812
1488507221.8753240108,1488507221.8776199818,        0.6157226562,        0.0078125000,       -0.1376953125,       -0.0305175781,       -0.9307861328,        0.4730224609
1488507221.8778951168,1488507221.8801898956,        0.6147460938,        0.0122070312,       -0.1381835938,       -0.1373291016,       -0.9307861328,        0.4730224609
1488507221.8804640770,1488507221.8828310966,        0.6147460938,        0.0122070312,       -0.1381835938,       -0.1373291016,       -1.2207031250,        0.5798339844
1488507221.8831069469,1488507221.8853969574,        0.6147460938,        0.0122070312,       -0.1381835938,        0.1068115234,       -1.2207031250,        0.5798339844
1488507221.8857851028,1488507221.8880770206,        0.6147460938,        0.0122070312,       -0.1381835938,        0.1068115234,       -1.2207031250,        0.3356933594
1488507221.8883519173,1488507221.8906469345,        0.6127929688,        0.0043945312,       -0.1386718750,        0.1525878906,       -0.9918212891,        0.3356933594
1488507221.8909220695,1488507221.8934369087,        0.6127929688,        0.0043945312,       -0.1386718750,        0.1525878906,       -0.9918212891,        0.2593994141
1488507221.8937199116,1488507221.8961360455,        0.6127929688,        0.0043945312,       -0.1386718750,       -0.0305175781,       -0.6103515625,        0.2593994141
1488507221.8964180946,1488507221.8988399506,        0.6127929688,        0.0043945312,       -0.1386718750,       -0.0305175781,       -0.6103515625,        0.0610351562
1488507221.8991219997,1488507221.9015419483,        0.6093750000,        0.0083007812,       -0.1333007812,       -0.3509521484,       -0.8544921875,        0.0610351562
