Period,accel_x_peak1_magnitude,accel_x_peak1_location,accel_x_peak2_magnitude,accel_x_peak2_location,accel_x_trough1_magnitude,accel_x_trough1_location,accel_x_trough2_magnitude,accel_x_trough2_location,accel_y_peak1_magnitude, accel_y_peak1_location, accel_y_peak2_magnitude, accel_y_peak2_location,accel_y_trough1_magnitude,accel_y_trough1_location,accel_y_trough2_magnitude,accel_y_trough2_location,gyro_z_peak1_magnitude,gyro_z_peak1_location,gyro_z_peak2_magnitude,gyro_z_peak2_location,gyro_z_trough1_magnitude,gyro_z_trough1_location,gyro_z_trough2_magnitude,gyro_z_trough2_location,standard_deviation_peak,standard_deviation_trough
       654,        0.2267699838,      650.0000000000,        0.1296020150,       76.0000000000,       -0.2156128287,      236.0000000000,       -0.1955932975,      585.0000000000,        0.4499756098,      646.0000000000,        0.1906982809,       34.0000000000,     -158.9179687500,      118.0000000000,      -86.4844970703,      169.0000000000,       88.7779541016,      643.0000000000,       64.8521728516,      590.0000000000,     -158.9179687500,      118.0000000000,      -86.4844970703,      169.0000000000,        0.1738388091,        0.0636631846
       516,        0.3830199838,       26.0000000000,        0.1134887338,      159.0000000000,       -0.2966675162,      508.0000000000,       -0.2869018912,      117.0000000000,        0.5158935785,      159.0000000000,        0.2541748285,      235.0000000000,     -235.0288085938,       97.0000000000,     -159.1621093750,       46.0000000000,       74.3889160156,      502.0000000000,       67.6597900391,      212.0000000000,     -235.0288085938,       97.0000000000,     -159.1621093750,       46.0000000000,        0.2562605143,        0.0514468215
       531,        0.3385863900,       56.0000000000,        0.1486449838,      188.0000000000,       -0.3484253287,      238.0000000000,       -0.3406128287,      150.0000000000,        0.6418701410,      184.0000000000,        0.4983154535,       25.0000000000,     -266.2177734375,      128.0000000000,     -140.5616455078,       77.0000000000,       96.5599365234,       25.0000000000,       73.9921875000,      530.0000000000,     -266.2177734375,      128.0000000000,     -140.5616455078,       77.0000000000,        0.2746778429,        0.0582243986
       553,        0.4259887338,       64.0000000000,        0.1891723275,      300.0000000000,       -0.5442261100,       22.0000000000,       -0.3752807975,      534.0000000000,        0.5261474848,      215.0000000000,        0.4636474848,       45.0000000000,     -250.5012207031,      155.0000000000,     -169.9805908203,      104.0000000000,      110.0487060547,       44.0000000000,      105.5015869141,      552.0000000000,     -250.5012207031,      155.0000000000,     -169.9805908203,      104.0000000000,        0.3041154742,        0.0496428795
       547,        0.4004551172,       46.0000000000,        0.2910801172,      543.0000000000,       -0.4652675390,      508.0000000000,       -0.3446620703,      228.0000000000,        0.5592980385,      174.0000000000,        0.4675537348,        7.0000000000,     -260.9995727539,      120.0000000000,     -184.0037384033,       69.0000000000,      105.5626220703,        0.0000000000,       86.1531219482,      524.0000000000,     -260.9995727539,      120.0000000000,     -184.0037384033,       69.0000000000,        0.2955175340,        0.0839041844
       532,        0.4854160547,       11.0000000000,        0.1802402735,       62.0000000000,       -0.5761073828,      502.0000000000,       -0.3383144140,      114.0000000000,        0.5734581947,      152.0000000000,        0.2702355385,      529.0000000000,     -278.0131225586,       98.0000000000,     -178.3732452393,       47.0000000000,      105.5317840576,      525.0000000000,       59.7096443176,      184.0000000000,     -278.0131225586,       98.0000000000,     -178.3732452393,       47.0000000000,        0.3535993993,        0.0809635296
       497,        0.4727207422,       51.0000000000,        0.1900058985,      248.0000000000,       -0.5209316015,      487.0000000000,       -0.3519862890,      226.0000000000,        0.5217003822,      160.0000000000,        0.4269738197,      226.0000000000,     -274.6867065430,       97.0000000000,     -204.3589630127,      148.0000000000,      105.8217010498,        1.0000000000,       87.7095184326,      496.0000000000,     -274.6867065430,       97.0000000000,     -204.3589630127,      148.0000000000,        0.3447917700,        0.0795322657
       500,        0.4668613672,       31.0000000000,        0.2915683985,       82.0000000000,       -0.5805019140,      492.0000000000,       -0.3851894140,      153.0000000000,        0.7458214760,      175.0000000000,        0.4084191322,       24.0000000000,     -292.3716430664,      120.0000000000,     -154.3711700439,      171.0000000000,      102.9835662842,        9.0000000000,       88.6250457764,      479.0000000000,     -292.3716430664,      120.0000000000,     -154.3711700439,      171.0000000000,        0.3695627749,        0.0910046771
       519,        0.4741855860,       45.0000000000,        0.2027012110,      245.0000000000,       -0.4364589453,      501.0000000000,       -0.3754237890,      140.0000000000,        0.6642785072,      173.0000000000,        0.4865441322,       22.0000000000,     -284.2997436523,      122.0000000000,     -189.9546661377,       71.0000000000,       96.8037567139,      517.0000000000,       95.0489959717,        6.0000000000,     -284.2997436523,      122.0000000000,     -189.9546661377,       71.0000000000,        0.3406455815,        0.0887354538
       528,        0.4707676172,       42.0000000000,        0.1875644922,      250.0000000000,       -0.5074185729,      498.0000000000,       -0.3471034765,      140.0000000000,        0.6183800697,      178.0000000000,        0.4640831947,       12.0000000000,     -275.3580932617,      106.0000000000,     -191.1601104736,      157.0000000000,      102.1443328857,        6.0000000000,       95.3947448730,      516.0000000000,     -275.3580932617,      106.0000000000,     -191.1601104736,      157.0000000000,        0.3484873176,        0.0904654190
       491,        0.4999056458,       35.0000000000,        0.1361361146,      168.0000000000,       -0.4668912292,      477.0000000000,       -0.3614224792,      213.0000000000,        0.6899309158,      159.0000000000,        0.3705949783,      217.0000000000,     -293.3534240723,       98.0000000000,     -185.1380920410,      149.0000000000,       88.4062194824,      489.0000000000,       79.9681091309,        0.0000000000,     -293.3534240723,       98.0000000000,     -185.1380920410,      149.0000000000,        0.3545355201,        0.0811033919
       504,        0.4779329896,       43.0000000000,        0.2259798646,      252.0000000000,       -0.6915006042,      491.0000000000,       -0.4634732604,      230.0000000000,        0.6533098221,      184.0000000000,        0.4682512283,       12.0000000000,     -281.9703674316,      126.0000000000,     -206.0578918457,       75.0000000000,       98.4617614746,        4.0000000000,       97.9124450684,      503.0000000000,     -281.9703674316,      126.0000000000,     -206.0578918457,       75.0000000000,        0.3658306003,        0.0921793282
       497,        0.5472689271,       40.0000000000,        0.1532259583,      240.0000000000,       -0.4610318542,      475.0000000000,       -0.3238248229,      127.0000000000,        0.6039934158,      175.0000000000,        0.2866106033,       13.0000000000,     -298.3430480957,       97.0000000000,     -204.5320129395,      148.0000000000,      103.8481140137,        5.0000000000,      103.3293151855,      495.0000000000,     -298.3430480957,       97.0000000000,     -204.5320129395,      148.0000000000,        0.3681224585,        0.0903619230
       516,        0.4627962708,       42.0000000000,        0.1327181458,      180.0000000000,       -0.4805631042,      486.0000000000,       -0.2696256042,      221.0000000000,        0.6088762283,      168.0000000000,        0.4111223221,        4.0000000000,     -273.1050109863,      117.0000000000,     -207.4769592285,       66.0000000000,      106.0301208496,      507.0000000000,      102.3680114746,        0.0000000000,     -273.1050109863,      117.0000000000,     -207.4769592285,       66.0000000000,        0.3386467993,        0.0894450769
       469,        0.4750033021,       26.0000000000,        0.1605501771,      155.0000000000,       -0.3521451354,      122.0000000000,       -0.3501920104,      468.0000000000,        0.8139543533,      155.0000000000,        0.4428606033,      206.0000000000,     -299.5332336426,       98.0000000000,     -170.0776672363,       46.0000000000,       94.2655944824,        0.0000000000,       77.3741149902,      468.0000000000,     -299.5332336426,       98.0000000000,     -170.0776672363,       46.0000000000,        0.3598536253,        0.0913516954
       523,        0.5262728333,       67.0000000000,        0.1234408021,      196.0000000000,       -0.7084917426,      501.0000000000,       -0.5469693542,       11.0000000000,        0.7006731033,      192.0000000000,        0.4111223221,       40.0000000000,     -302.4629211426,      132.0000000000,     -170.1081848145,      183.0000000000,      108.0677642822,      520.0000000000,       93.9451599121,       24.0000000000,     -302.4629211426,      132.0000000000,     -170.1081848145,      183.0000000000,        0.4099655151,        0.0884870589
       482,        0.6401410699,       28.0000000000,        0.2080121636,      226.0000000000,       -0.6113237739,      458.0000000000,       -0.4106401801,      120.0000000000,        0.5779526234,      154.0000000000,        0.5066635609,      205.0000000000,     -302.5004577637,       98.0000000000,     -170.9239349365,       47.0000000000,      111.6688385010,      476.0000000000,      106.9996490479,        0.0000000000,     -302.5004577637,       98.0000000000,     -170.9239349365,       47.0000000000,        0.4017995894,        0.0901948512
       488,        0.4877973199,       29.0000000000,        0.1923871636,      241.0000000000,       -0.5444292426,      457.0000000000,       -0.3632768989,      135.0000000000,        0.6394760609,      157.0000000000,        0.3958236873,        0.0000000000,     -291.8193054199,      108.0000000000,     -208.8878021240,       57.0000000000,      107.5184478760,      482.0000000000,      106.4961090088,        0.0000000000,     -291.8193054199,      108.0000000000,     -208.8878021240,       57.0000000000,        0.3730123937,        0.0909305066
       481,        0.5317426324,       34.0000000000,        0.2065473199,      239.0000000000,       -0.3901323676,      478.0000000000,       -0.3696245551,      216.0000000000,        0.6023666859,      159.0000000000,        0.4007064998,      212.0000000000,     -284.3272399902,       98.0000000000,     -178.0192718506,      149.0000000000,       99.2176666260,        0.0000000000,       71.7976226807,      468.0000000000,     -284.3272399902,       98.0000000000,     -178.0192718506,      149.0000000000,        0.3676042557,        0.0963928476
