# time_stamp before, Acceleration x, Acceleration y, Acceleration z, Gyro x, Gyro y, Gyro z
0.0000000000,-0.1782425130,-0.0887247721,0.0261180013,4.3825276693,1.8232320150,1.1552988689
0.0026588440,-0.1782425130,-0.0887247721,0.0261180013,4.2604573568,1.7164204916,1.2926279704
0.0052208900,-0.1753128255,-0.0765177408,0.0334422200,4.2604573568,1.7164204916,1.2926279704
0.0079109669,-0.1753128255,-0.0765177408,0.0334422200,4.1231282552,1.6859029134,1.1705576579
0.0106058121,-0.1753128255,-0.0765177408,0.0334422200,4.1231282552,1.6859029134,1.1705576579
0.0132968426,-0.1753128255,-0.0765177408,0.0334422200,4.3672688802,1.8842671712,1.6283213298
0.0159988403,-0.1758011067,-0.0857950846,0.0334422200,4.3672688802,1.8842671712,1.6283213298
0.0187809467,-0.1758011067,-0.0857950846,0.0334422200,4.6724446614,1.9605611166,1.8572031657
0.0214498043,-0.1758011067,-0.0857950846,0.0334422200,4.6724446614,1.9605611166,1.8572031657
0.0243690014,-0.1723831380,-0.0867716471,0.0290476888,4.5198567708,1.8384908040,1.7046152751
0.0273678303,-0.1723831380,-0.0867716471,0.0290476888,4.5198567708,1.8384908040,1.7046152751
0.0299308300,-0.1723831380,-0.0867716471,0.0290476888,4.1383870443,1.7927144369,1.7046152751
0.0324878693,-0.1723831380,-0.0867716471,0.0290476888,4.1383870443,1.7927144369,1.7046152751
0.0350439548,-0.1684768880,-0.0765177408,0.0353953450,4.1994222005,1.8995259603,1.7046152751
0.0377678871,-0.1684768880,-0.0765177408,0.0353953450,4.1994222005,1.8995259603,1.7046152751
0.0404198170,-0.1684768880,-0.0765177408,0.0353953450,4.4893391927,2.0673726400,1.7046152751
0.0436768532,-0.1684768880,-0.0765177408,0.0256297200,4.4893391927,2.0673726400,1.7046152751
0.0463168621,-0.1728714193,-0.0818888346,0.0256297200,4.8402913411,2.4030659994,1.6283213298
0.0488870144,-0.1728714193,-0.0818888346,0.0256297200,4.8402913411,2.4030659994,1.6283213298
0.0514459610,-0.1728714193,-0.0818888346,0.0256297200,5.2522786458,2.6166890462,1.8572031657
0.0541658401,-0.1728714193,-0.0916544596,0.0363719076,5.2522786458,2.6166890462,1.8572031657
0.0567359924,-0.1782425130,-0.0916544596,0.0363719076,5.4659016927,2.2962544759,2.1013437907
0.0592978001,-0.1782425130,-0.0916544596,0.0363719076,5.4659016927,2.2962544759,2.1013437907
0.0618538857,-0.1782425130,-0.0916544596,0.0363719076,5.2827962240,2.1894429525,2.0250498454
0.0644209385,-0.1782425130,-0.0931193034,0.0300242513,5.2827962240,2.1894429525,2.0250498454
0.0670340061,-0.1870315755,-0.0931193034,0.0300242513,5.2827962240,2.4488423666,2.0860850017
0.0695970058,-0.1870315755,-0.0931193034,0.0300242513,5.0539143880,2.4488423666,2.0860850017
0.0721619129,-0.1870315755,-0.0931193034,0.0300242513,5.0539143880,2.4488423666,2.0555674236
0.0747258663,-0.1836136067,-0.0882364908,0.0270945638,4.3825276693,2.7845357259,2.0555674236
0.0772988796,-0.1836136067,-0.0882364908,0.0270945638,4.3825276693,2.7845357259,1.9640146892
0.0798628330,-0.1836136067,-0.0882364908,0.0270945638,4.2909749349,2.6014302572,1.9640146892
0.0824208260,-0.1836136067,-0.0882364908,0.0270945638,4.2909749349,2.6014302572,1.9640146892
0.0849878788,-0.1870315755,-0.0770060221,0.0339305013,3.9095052083,2.7387593587,1.8572031657
0.0877180099,-0.1870315755,-0.0770060221,0.0339305013,3.9095052083,2.7387593587,1.8572031657
0.0902898312,-0.1870315755,-0.0770060221,0.0339305013,3.6195882161,2.7235005697,1.6740976970
0.0928568840,-0.1870315755,-0.0770060221,0.0339305013,3.6195882161,2.7235005697,1.6740976970
0.0954298973,-0.1821487630,-0.0828653971,0.0305125326,3.1618245443,2.8150533040,1.3384043376
0.0981748104,-0.1821487630,-0.0828653971,0.0305125326,3.1618245443,2.8150533040,1.3384043376
0.1008388996,-0.1821487630,-0.0828653971,0.0305125326,2.9482014974,2.6319478353,1.1552988689
0.1036159992,-0.1821487630,-0.0828653971,0.0305125326,2.9482014974,2.6319478353,1.1552988689
0.1063239574,-0.1777542317,-0.0682169596,0.0095164388,3.0092366536,2.1894429525,0.7890879314
0.1088860035,-0.1777542317,-0.0682169596,0.0095164388,3.0092366536,2.1894429525,0.7890879314
0.1114559174,-0.1777542317,-0.0682169596,0.0095164388,3.0397542318,2.0978902181,0.2550303142
0.1140189171,-0.1777542317,-0.0682169596,0.0095164388,3.0397542318,2.0978902181,0.2550303142
0.1167628765,-0.1801956380,-0.0745646158,0.0153758138,3.2686360677,2.1131490072,0.2702891032
0.1193258762,-0.1801956380,-0.0745646158,0.0153758138,3.2686360677,2.1131490072,0.2702891032
0.1218879223,-0.1801956380,-0.0745646158,0.0153758138,3.2381184896,2.4183247884,0.3923594157
0.1244518757,-0.1801956380,-0.0745646158,0.0241648763,3.2381184896,2.4183247884,0.3923594157
0.1270649433,-0.1772659505,-0.0862833658,0.0241648763,3.0702718099,2.5403951009,0.2397715251
0.1296269894,-0.1772659505,-0.0862833658,0.0241648763,3.0702718099,2.5403951009,0.2397715251
0.1321949959,-0.1772659505,-0.0862833658,0.0241648763,3.0702718099,2.3420308431,0.1177012126
0.1347579956,-0.1772659505,-0.0862833658,0.0261180013,3.0244954427,2.3420308431,0.1177012126
0.1373758316,-0.1806839193,-0.0853068034,0.0261180013,3.0244954427,2.3420308431,0.0871836345
0.1399419308,-0.1806839193,-0.0853068034,0.0261180013,2.9787190755,2.3115132650,0.0871836345
0.1425018311,-0.1806839193,-0.0853068034,0.0261180013,2.9787190755,2.3115132650,0.0871836345
0.1450707912,-0.1806839193,-0.0804239908,0.0139109700,3.1160481771,2.2199605306,-0.1722157796
0.1476638317,-0.1748245443,-0.0804239908,0.0139109700,3.1160481771,2.2199605306,-0.1722157796
0.1502230167,-0.1748245443,-0.0804239908,0.0139109700,2.9176839193,2.3572896322,-0.2485097249
0.1529588699,-0.1748245443,-0.0804239908,0.0139109700,2.9176839193,2.3572896322,-0.2485097249
0.1555228233,-0.1748245443,-0.0838419596,0.0183055013,3.1313069661,2.4641011556,0.1177012126
0.1586558819,-0.1845901693,-0.0838419596,0.0183055013,3.1313069661,2.4641011556,0.1177012126
0.1613597870,-0.1845901693,-0.0838419596,0.0183055013,3.0550130208,2.5098775228,0.1482187907
0.1640558243,-0.1845901693,-0.0838419596,0.0183055013,3.0550130208,2.5098775228,0.1482187907
0.1667659283,-0.1797073567,-0.0843302408,0.0261180013,2.9176839193,2.6929829916,0.1329600017
0.1694669724,-0.1797073567,-0.0843302408,0.0261180013,2.9176839193,2.6929829916,0.1329600017
0.1721639633,-0.1797073567,-0.0843302408,0.0261180013,3.6501057943,2.1894429525,0.1634775798
0.1748700142,-0.1797073567,-0.0843302408,0.0329539388,3.6501057943,2.1894429525,0.1634775798
0.1774950027,-0.1875198567,-0.0936075846,0.0329539388,3.6653645833,2.1589253744,0.3008066814
0.1801807880,-0.1875198567,-0.0936075846,0.0329539388,3.6653645833,2.1589253744,0.3008066814
0.1827528477,-0.1875198567,-0.0936075846,0.0329539388,3.1923421224,2.7387593587,0.2397715251
0.1853179932,-0.1875198567,-0.0936075846,0.0197703450,3.1923421224,2.7387593587,0.2397715251
0.1878988743,-0.1919143880,-0.0940958658,0.0197703450,2.6888020833,2.7235005697,0.5144297282
0.1904687881,-0.1919143880,-0.0940958658,0.0197703450,2.6888020833,2.7235005697,0.5144297282
0.1930367947,-0.1919143880,-0.0940958658,0.0197703450,2.4141438802,2.8913472494,0.6517588298
0.1956079006,-0.1919143880,-0.0814005534,0.0202586263,2.4141438802,2.8913472494,0.6517588298
0.1981828213,-0.1762893880,-0.0814005534,0.0202586263,1.9563802083,2.8455708822,0.7127939860
0.2007508278,-0.1762893880,-0.0814005534,0.0202586263,1.9563802083,2.8455708822,0.7127939860
0.2034168243,-0.1762893880,-0.0814005534,0.0202586263,1.8495686849,3.1507466634,0.3313242595
0.2060909271,-0.1762893880,-0.0750528971,0.0407664388,1.8495686849,3.1507466634,0.3313242595
0.2086639404,-0.1762893880,-0.0750528971,0.0407664388,1.8495686849,3.1507466634,0.3923594157
0.2112288475,-0.1762893880,-0.0750528971,0.0407664388,2.1700032552,3.1507466634,0.3923594157
0.2137959003,-0.1762893880,-0.0750528971,0.0407664388,2.1700032552,2.4641011556,0.4991709392
0.2164058685,-0.1792190755,-0.0784708658,0.0217234700,2.6125081380,2.4641011556,0.4991709392
0.2190978527,-0.1792190755,-0.0784708658,0.0217234700,2.6125081380,2.4641011556,0.5602060954
0.2217938900,-0.1792190755,-0.0784708658,0.0217234700,2.7345784505,2.6929829916,0.5602060954
0.2244958878,-0.1792190755,-0.0784708658,0.0217234700,2.7345784505,2.6929829916,0.4228769939
0.2271738052,-0.1826370443,-0.0843302408,0.0329539388,2.9939778646,2.6929829916,0.4228769939
0.2297468185,-0.1826370443,-0.0843302408,0.0329539388,2.9939778646,2.6929829916,0.1787363689
0.2323129177,-0.1826370443,-0.0843302408,0.0329539388,3.1618245443,2.6777242025,0.1787363689
0.2348768711,-0.1826370443,-0.0843302408,0.0329539388,3.1618245443,2.6777242025,0.1787363689
0.2375359535,-0.1792190755,-0.0901896158,0.0339305013,3.2533772786,2.6014302572,-0.0043690999
0.2402338982,-0.1792190755,-0.0901896158,0.0339305013,3.2533772786,2.6014302572,-0.0043690999
0.2430408001,-0.1792190755,-0.0901896158,0.0339305013,2.8719075521,2.9981587728,0.0261484782
0.2457439899,-0.1792190755,-0.0901896158,0.0275828450,2.8719075521,2.9981587728,0.0261484782
0.2484469414,-0.1850784505,-0.0892130534,0.0275828450,2.9634602864,3.3643697103,0.0566660564
0.2510159016,-0.1850784505,-0.0892130534,0.0275828450,2.9634602864,3.3643697103,0.0566660564
0.2535808086,-0.1850784505,-0.0892130534,0.0275828450,3.2228597005,2.9523824056,0.5907236736
0.2563560009,-0.1850784505,-0.0950724284,0.0143992513,3.2228597005,2.9523824056,0.5907236736
0.2589178085,-0.1894729817,-0.0950724284,0.0143992513,3.2533772786,2.7540181478,0.2550303142
0.2620229721,-0.1894729817,-0.0950724284,0.0143992513,3.2533772786,2.7540181478,0.2550303142
0.2645888329,-0.1894729817,-0.0950724284,0.0143992513,3.3144124349,2.7997945150,0.5602060954
0.2672259808,-0.1738479817,-0.0911661784,0.0109812826,3.3144124349,2.7997945150,0.5602060954
0.2697908878,-0.1738479817,-0.0911661784,0.0109812826,2.3683675130,2.7997945150,0.8653818767
0.2723469734,-0.1738479817,-0.0911661784,0.0109812826,2.3683675130,2.7997945150,0.8653818767
0.2749059200,-0.1738479817,-0.0911661784,0.0109812826,2.2310384114,2.9523824056,1.1247812907
0.2774708271,-0.1797073567,-0.0838419596,0.0114695638,2.2310384114,2.9523824056,1.1247812907
0.2800359726,-0.1797073567,-0.0838419596,0.0114695638,2.1852620443,2.6624654134,1.3231455486
0.2825949192,-0.1797073567,-0.0838419596,0.0114695638,2.1852620443,2.6624654134,1.3231455486
0.2851569653,-0.1797073567,-0.0838419596,0.0114695638,2.2615559896,2.7540181478,1.3841807048
0.2877738476,-0.1816604817,-0.0799357096,0.0143992513,2.2615559896,2.7540181478,1.3841807048
0.2903368473,-0.1816604817,-0.0799357096,0.0143992513,3.0702718099,2.1131490072,1.3689219157
0.2929019928,-0.1816604817,-0.0799357096,0.0143992513,3.0702718099,2.1131490072,1.3689219157
0.2954659462,-0.1816604817,-0.0799357096,0.0143992513,3.0702718099,1.8384908040,1.3078867595
0.2980368137,-0.1831253255,-0.0794474284,0.0222117513,3.4212239583,1.8384908040,1.3078867595
0.3006079197,-0.1831253255,-0.0794474284,0.0222117513,3.4212239583,1.8384908040,1.4299570720
0.3031978607,-0.1831253255,-0.0794474284,0.0222117513,3.3144124349,1.8842671712,1.4299570720
0.3058679104,-0.1831253255,-0.0794474284,0.0222117513,3.3144124349,1.8842671712,1.0484873454
0.3084988594,-0.1797073567,-0.0848185221,0.0168406576,2.8261311849,1.9605611166,1.0484873454
0.3110690117,-0.1797073567,-0.0848185221,0.0168406576,2.8261311849,1.9605611166,1.0484873454
0.3136408329,-0.1797073567,-0.0848185221,0.0168406576,3.1465657552,2.2657368978,1.4146982829
0.3163528442,-0.1797073567,-0.0848185221,0.0192820638,3.1465657552,2.2657368978,1.4146982829
0.3190469742,-0.1826370443,-0.0833536784,0.0192820638,3.0702718099,2.3725484212,1.4146982829
0.3217499256,-0.1826370443,-0.0833536784,0.0192820638,3.0702718099,2.3725484212,1.4146982829
0.3244500160,-0.1826370443,-0.0833536784,0.0192820638,2.9329427083,2.4946187337,1.1400400798
0.3271088600,-0.1826370443,-0.0814005534,0.0217234700,2.9329427083,2.4946187337,1.1400400798
0.3296718597,-0.1758011067,-0.0814005534,0.0217234700,2.8413899740,2.5251363119,0.8348642986
0.3322370052,-0.1758011067,-0.0814005534,0.0217234700,2.8413899740,2.5251363119,0.8348642986
0.3348038197,-0.1758011067,-0.0814005534,0.0217234700,3.6653645833,2.2809956869,1.2621103923
0.3374869823,-0.1733597005,-0.0711466471,0.0153758138,3.6653645833,2.2809956869,1.2621103923
0.3401849270,-0.1733597005,-0.0711466471,0.0153758138,4.5198567708,2.1436665853,1.5978037517
0.3428878784,-0.1733597005,-0.0711466471,0.0153758138,4.5198567708,2.1436665853,1.5978037517
0.3455889225,-0.1733597005,-0.0711466471,0.0153758138,4.0773518880,2.1436665853,1.2163340251
0.3482978344,-0.1743362630,-0.0794474284,0.0192820638,4.0773518880,2.1436665853,1.2163340251
0.3511099815,-0.1743362630,-0.0794474284,0.0192820638,3.8789876302,2.3267720540,1.2315928142
0.3536779881,-0.1743362630,-0.0794474284,0.0192820638,3.8789876302,2.3267720540,1.2315928142
0.3564159870,-0.1743362630,-0.0794474284,0.0192820638,3.3601888021,2.4030659994,1.3536631267
0.3590748310,-0.1753128255,-0.0848185221,0.0187937826,3.3601888021,2.4030659994,1.3536631267
0.3622419834,-0.1753128255,-0.0848185221,0.0187937826,3.5127766927,2.4335835775,1.2773691814
0.3648118973,-0.1753128255,-0.0848185221,0.0187937826,3.5127766927,2.4335835775,1.2773691814
0.3674488068,-0.1753128255,-0.0789591471,0.0222117513,3.2838948568,2.4183247884,1.2621103923
0.3701169491,-0.1777542317,-0.0789591471,0.0222117513,3.2838948568,2.4183247884,1.2621103923
0.3726809025,-0.1777542317,-0.0789591471,0.0222117513,2.6277669271,2.6319478353,1.0942637126
0.3752419949,-0.1777542317,-0.0789591471,0.0222117513,2.6277669271,2.6319478353,1.0942637126
0.3778247833,-0.1797073567,-0.0750528971,0.0178172200,3.2381184896,2.1894429525,1.3384043376
0.3803868294,-0.1797073567,-0.0750528971,0.0178172200,3.2381184896,2.1894429525,1.3384043376
0.3829569817,-0.1797073567,-0.0750528971,0.0178172200,3.5585530599,1.7316792806,1.2163340251
0.3855168819,-0.1797073567,-0.0750528971,0.0178172200,3.5585530599,1.7316792806,1.2163340251
0.3881449699,-0.1811722005,-0.0843302408,0.0124461263,3.5585530599,1.8537495931,1.3231455486
0.3907108307,-0.1811722005,-0.0843302408,0.0124461263,3.8484700521,1.8537495931,1.3231455486
0.3932747841,-0.1811722005,-0.0843302408,0.0124461263,3.8484700521,1.8537495931,1.5215098064
0.3958339691,-0.1811722005,-0.0843302408,0.0124461263,4.2451985677,1.7011617025,1.5215098064
0.3984019756,-0.1826370443,-0.0906778971,0.0231883138,4.2451985677,1.7011617025,1.4299570720
0.4009618759,-0.1826370443,-0.0906778971,0.0231883138,4.1231282552,1.8384908040,1.4299570720
0.4035317898,-0.1826370443,-0.0906778971,0.0231883138,4.1231282552,1.8384908040,1.4299570720
0.4061110020,-0.1826370443,-0.0906778971,0.0231883138,4.0010579427,1.7927144369,1.7198740642
0.4086778164,-0.1875198567,-0.0906778971,0.0192820638,4.0010579427,1.7927144369,1.7198740642
0.4112479687,-0.1875198567,-0.0906778971,0.0192820638,3.6653645833,1.9758199056,2.0250498454
0.4138159752,-0.1875198567,-0.0906778971,0.0192820638,3.6653645833,1.9758199056,2.0250498454
0.4165358543,-0.1875198567,-0.0906778971,0.0192820638,3.4212239583,1.9758199056,2.1776377360
0.4191038609,-0.1880081380,-0.0901896158,0.0251414388,3.4212239583,1.9758199056,2.1776377360
0.4216639996,-0.1880081380,-0.0901896158,0.0251414388,3.2228597005,1.9147847494,2.1928965251
0.4242389202,-0.1880081380,-0.0901896158,0.0251414388,3.2228597005,1.9147847494,2.1928965251
0.4268889427,-0.1880081380,-0.0901896158,0.0251414388,2.7345784505,2.5403951009,2.3149668376
0.4295859337,-0.1811722005,-0.0765177408,0.0178172200,2.7345784505,2.5403951009,2.3149668376
0.4322898388,-0.1811722005,-0.0765177408,0.0178172200,2.7498372396,2.4641011556,2.4980723064
0.4351079464,-0.1811722005,-0.0765177408,0.0178172200,2.7498372396,2.4641011556,2.4980723064
0.4378528595,-0.1811722005,-0.0765177408,0.0158640950,2.9634602864,2.2657368978,1.9334971110
0.4405529499,-0.1782425130,-0.0643107096,0.0158640950,2.9634602864,2.2657368978,1.9334971110
0.4432528019,-0.1782425130,-0.0643107096,0.0158640950,3.8332112630,1.5180562337,1.7961680095
0.4459679127,-0.1782425130,-0.0643107096,0.0158640950,3.8332112630,1.5180562337,1.7961680095
0.4486708641,-0.1743362630,-0.0755411784,0.0251414388,3.6043294271,1.0755513509,1.4757334392
0.4513688087,-0.1743362630,-0.0755411784,0.0251414388,3.6043294271,1.0755513509,1.4757334392
0.4540657997,-0.1743362630,-0.0755411784,0.0251414388,3.5738118490,1.2739156087,1.2468516032
0.4570269585,-0.1743362630,-0.0755411784,0.0251414388,3.5738118490,1.2739156087,1.2468516032
0.4596889019,-0.1738479817,-0.0726114908,0.0100047200,3.1770833333,1.3654683431,1.0332285564
0.4629759789,-0.1738479817,-0.0726114908,0.0100047200,3.1770833333,1.3654683431,1.0332285564
0.4655427933,-0.1738479817,-0.0726114908,0.0100047200,3.0397542318,1.6553853353,1.0332285564
0.4681789875,-0.1738479817,-0.0760294596,0.0153758138,3.0397542318,1.6553853353,1.0332285564
0.4707469940,-0.1738479817,-0.0760294596,0.0153758138,3.3907063802,1.7316792806,0.9721934001
0.4733078480,-0.1738479817,-0.0760294596,0.0153758138,3.3907063802,1.7316792806,0.9721934001
0.4758679867,-0.1738479817,-0.0760294596,0.0153758138,3.6653645833,1.4417622884,1.0179697673
0.4784398079,-0.1738479817,-0.0750528971,0.0275828450,3.6653645833,1.4417622884,1.0179697673
0.4810028076,-0.1699417317,-0.0750528971,0.0275828450,3.4975179036,1.6248677572,1.0942637126
0.4835679531,-0.1699417317,-0.0750528971,0.0275828450,3.4975179036,1.6248677572,1.0942637126
0.4861869812,-0.1699417317,-0.0750528971,0.0275828450,3.4975179036,1.3807271322,1.1247812907
0.4887518883,-0.1699417317,-0.0823771158,0.0212351888,3.6195882161,1.3807271322,1.1247812907
0.4913179874,-0.1709182943,-0.0823771158,0.0212351888,3.6195882161,1.3807271322,0.6670176189
0.4938819408,-0.1709182943,-0.0823771158,0.0212351888,3.3601888021,1.5027974447,0.6670176189
0.4964699745,-0.1709182943,-0.0823771158,0.0212351888,3.3601888021,1.5027974447,1.0027109782
0.4991428852,-0.1797073567,-0.0687052408,0.0187937826,3.2838948568,1.7927144369,1.0027109782
0.5017108917,-0.1797073567,-0.0687052408,0.0187937826,3.2838948568,1.7927144369,1.0027109782
0.5042729378,-0.1797073567,-0.0687052408,0.0187937826,3.4975179036,1.3959859212,1.2315928142
0.5069658756,-0.1797073567,-0.0687052408,0.0187937826,3.4975179036,1.3959859212,1.2315928142
0.5095348358,-0.1767776693,-0.0755411784,0.0109812826,3.1465657552,1.4112447103,1.0790049236
0.5120999813,-0.1767776693,-0.0755411784,0.0109812826,3.1465657552,1.4112447103,1.0790049236
0.5146708488,-0.1767776693,-0.0755411784,0.0109812826,3.2533772786,1.7011617025,1.3536631267
0.5173239708,-0.1767776693,-0.0755411784,0.0109812826,3.2533772786,1.7011617025,1.3536631267
0.5198848248,-0.1889847005,-0.0730997721,0.0202586263,3.4517415364,1.1976216634,1.3689219157
0.5224537849,-0.1889847005,-0.0730997721,0.0202586263,3.4517415364,1.1976216634,1.3689219157
0.5250139236,-0.1889847005,-0.0730997721,0.0202586263,3.7111409505,1.0908101400,1.4452158610
0.5276429653,-0.1889847005,-0.0730997721,0.0202586263,3.7111409505,1.0908101400,1.4452158610
0.5302069187,-0.1787307943,-0.0774943034,0.0183055013,4.0468343099,1.3196919759,1.7198740642
0.5327658653,-0.1787307943,-0.0774943034,0.0183055013,4.0468343099,1.3196919759,1.7198740642
0.5353319645,-0.1787307943,-0.0774943034,0.0183055013,4.4893391927,1.1823628744,1.6740976970
0.5379509926,-0.1787307943,-0.0774943034,0.0183055013,4.4893391927,1.1823628744,1.6740976970
0.5405128002,-0.1831253255,-0.0799357096,0.0158640950,4.4893391927,0.8466695150,1.6435801189
0.5430769920,-0.1831253255,-0.0799357096,0.0158640950,4.3520100911,0.8466695150,1.6435801189
0.5456409454,-0.1831253255,-0.0799357096,0.0158640950,4.3520100911,0.8466695150,1.9945322673
0.5482139587,-0.1831253255,-0.0799357096,0.0158640950,4.5503743490,1.0755513509,1.9945322673
0.5507798195,-0.1792190755,-0.0828653971,0.0148875326,4.5503743490,1.0755513509,2.3912607829
0.5533399582,-0.1792190755,-0.0828653971,0.0148875326,4.2146809896,0.9077046712,2.3912607829
0.5559058189,-0.1792190755,-0.0828653971,0.0148875326,4.2146809896,0.9077046712,2.3912607829
0.5585188866,-0.1792190755,-0.0828653971,0.0148875326,3.6195882161,1.3654683431,2.7727305095
0.5611848831,-0.1821487630,-0.0794474284,0.0207469076,3.6195882161,1.3654683431,2.7727305095
0.5637559891,-0.1821487630,-0.0794474284,0.0207469076,3.3449300130,1.2586568197,2.7422129314
0.5664179325,-0.1821487630,-0.0794474284,0.0207469076,3.3449300130,1.2586568197,2.7422129314
0.5689978600,-0.1821487630,-0.0794474284,0.0227000326,3.3296712240,1.4417622884,2.8795420329
0.5715799332,-0.1860550130,-0.0745646158,0.0227000326,3.3296712240,1.4417622884,2.8795420329
0.5743889809,-0.1860550130,-0.0745646158,0.0227000326,3.7111409505,1.1823628744,2.7269541423
0.5774757862,-0.1860550130,-0.0745646158,0.0227000326,3.7111409505,1.1823628744,2.7269541423
0.5801739693,-0.1816604817,-0.0672403971,0.0192820638,3.6501057943,1.1671040853,2.6201426189
0.5828659534,-0.1816604817,-0.0672403971,0.0192820638,3.6501057943,1.1671040853,2.6201426189
0.5855669975,-0.1816604817,-0.0672403971,0.0192820638,3.6501057943,1.1976216634,2.6506601970
0.5882818699,-0.1816604817,-0.0672403971,0.0192820638,3.6501057943,1.1976216634,2.6506601970
0.5909838676,-0.1767776693,-0.0604044596,0.0222117513,3.7721761068,1.1671040853,2.4675547282
0.5936789513,-0.1767776693,-0.0604044596,0.0222117513,3.7721761068,1.1671040853,2.4675547282
0.5963788033,-0.1767776693,-0.0604044596,0.0222117513,4.0926106771,0.8771870931,2.1623789470
0.5990829468,-0.1767776693,-0.0604044596,0.0290476888,4.0926106771,0.8771870931,2.1623789470
0.6017827988,-0.1758011067,-0.0672403971,0.0290476888,4.4435628255,0.6483052572,2.1318613689
0.6044769287,-0.1758011067,-0.0672403971,0.0290476888,4.4435628255,0.6483052572,2.1318613689
0.6071238518,-0.1758011067,-0.0672403971,0.0290476888,4.5656331380,0.9229634603,1.8419443767
0.6096878052,-0.1758011067,-0.0716349284,0.0178172200,4.5656331380,0.9229634603,1.8419443767
0.6122539043,-0.1777542317,-0.0716349284,0.0178172200,4.3367513021,1.2739156087,1.9640146892
0.6148200035,-0.1777542317,-0.0716349284,0.0178172200,4.3367513021,1.2739156087,1.9640146892
0.6174268723,-0.1777542317,-0.0716349284,0.0178172200,4.2146809896,1.1671040853,1.9945322673
0.6199958324,-0.1777542317,-0.0721232096,0.0187937826,4.2146809896,1.1671040853,1.9945322673
0.6225659847,-0.1816604817,-0.0721232096,0.0187937826,4.1689046224,1.1365865072,2.1776377360
0.6252408028,-0.1816604817,-0.0721232096,0.0187937826,4.1689046224,1.1365865072,2.1776377360
0.6279399395,-0.1816604817,-0.0721232096,0.0187937826,3.6958821614,1.0602925619,2.4522959392
0.6305069923,-0.1762893880,-0.0677286784,0.0163523763,3.6958821614,1.0602925619,2.4522959392
0.6330699921,-0.1762893880,-0.0677286784,0.0163523763,3.6958821614,1.0450337728,2.4828135173
0.6356368065,-0.1762893880,-0.0677286784,0.0163523763,3.4212239583,1.0450337728,2.4828135173
0.6384379864,-0.1762893880,-0.0677286784,0.0163523763,3.4212239583,1.3959859212,2.7574717204
0.6411368847,-0.1762893880,-0.0652872721,0.0266062826,3.2381184896,1.3959859212,2.7574717204
0.6438319683,-0.1762893880,-0.0652872721,0.0266062826,3.2381184896,1.0755513509,2.6048838298
0.6465399265,-0.1762893880,-0.0652872721,0.0266062826,3.1618245443,1.0755513509,2.6048838298
0.6492400169,-0.1762893880,-0.0652872721,0.0266062826,3.1618245443,1.0450337728,2.1318613689
0.6519348621,-0.1723831380,-0.0687052408,0.0143992513,3.2686360677,1.0450337728,2.1318613689
0.6546289921,-0.1723831380,-0.0687052408,0.0143992513,3.2686360677,1.4112447103,2.5438486736
0.6573379040,-0.1723831380,-0.0687052408,0.0143992513,3.3296712240,1.4112447103,2.5438486736
0.6600329876,-0.1723831380,-0.0687052408,0.0212351888,3.3296712240,1.4112447103,2.6506601970
0.6627268791,-0.1743362630,-0.0760294596,0.0212351888,3.6195882161,1.3654683431,2.6506601970
0.6654169559,-0.1743362630,-0.0760294596,0.0212351888,3.6195882161,1.3654683431,2.2386728923
0.6680219173,-0.1743362630,-0.0760294596,0.0212351888,3.1313069661,1.1518452962,2.2386728923
0.6705918312,-0.1743362630,-0.0701700846,0.0168406576,3.1313069661,1.1518452962,2.4217783610
0.6731548309,-0.1772659505,-0.0701700846,0.0168406576,3.0550130208,1.6401265462,2.4217783610
0.6757199764,-0.1772659505,-0.0701700846,0.0168406576,3.0550130208,1.6401265462,2.4217783610
0.6784718037,-0.1772659505,-0.0701700846,0.0168406576,2.5056966146,1.7774556478,2.6506601970
0.6811637878,-0.1792190755,-0.0638224284,0.0197703450,2.5056966146,1.7774556478,2.6506601970
0.6838619709,-0.1792190755,-0.0638224284,0.0197703450,2.8413899740,1.4265034994,2.2234141032
0.6865658760,-0.1792190755,-0.0638224284,0.0197703450,2.8413899740,1.4265034994,2.2234141032
0.6893699169,-0.1792190755,-0.0638224284,0.0197703450,2.1394856771,1.5180562337,2.3912607829
0.6920838356,-0.1806839193,-0.0745646158,0.0173289388,2.1394856771,1.5180562337,2.4370371501
0.6948938370,-0.1806839193,-0.0745646158,0.0173289388,1.8495686849,1.6248677572,2.4370371501
0.6980409622,-0.1806839193,-0.0745646158,0.0173289388,1.8495686849,1.6248677572,2.0403086345
0.7007448673,-0.1806839193,-0.0682169596,0.0207469076,1.8800862630,1.7774556478,2.0403086345
0.7034459114,-0.1743362630,-0.0682169596,0.0207469076,1.8800862630,1.7774556478,2.1471201579
0.7061989307,-0.1743362630,-0.0682169596,0.0207469076,1.8037923177,1.6401265462,2.1471201579
0.7088959217,-0.1743362630,-0.0682169596,0.0207469076,1.8037923177,1.6401265462,2.2386728923
0.7115969658,-0.1801956380,-0.0564982096,0.0261180013,2.0479329427,1.6401265462,2.2386728923
0.7143018246,-0.1801956380,-0.0564982096,0.0261180013,2.0479329427,1.6401265462,1.7198740642
0.7170009613,-0.1801956380,-0.0564982096,0.0261180013,2.5362141927,1.5638326009,1.7198740642
0.7195680141,-0.1801956380,-0.0564982096,0.0261180013,2.5362141927,1.5638326009,1.6740976970
0.7221338749,-0.1718948567,-0.0628458658,0.0139109700,2.7803548177,1.7469380697,1.6740976970
0.7246968746,-0.1718948567,-0.0628458658,0.0139109700,2.7803548177,1.7469380697,1.6740976970
0.7272758484,-0.1718948567,-0.0628458658,0.0139109700,3.0092366536,1.3349507650,1.4452158610
0.7298398018,-0.1718948567,-0.0628458658,0.0139109700,3.0092366536,1.3349507650,1.4452158610
0.7324039936,-0.1714065755,-0.0672403971,0.0178172200,2.7650960286,1.2281392416,1.2163340251
0.7349739075,-0.1714065755,-0.0672403971,0.0178172200,2.7650960286,1.2281392416,1.2163340251
0.7375907898,-0.1714065755,-0.0672403971,0.0178172200,2.6888020833,1.8232320150,1.0179697673
0.7401528358,-0.1714065755,-0.0672403971,0.0178172200,2.6888020833,1.8232320150,1.0179697673
0.7427148819,-0.1743362630,-0.0721232096,0.0202586263,2.2768147786,2.0063374837,0.7433115642
0.7452838421,-0.1743362630,-0.0721232096,0.0202586263,2.2768147786,2.0063374837,0.7433115642
0.7479579449,-0.1743362630,-0.0721232096,0.0202586263,2.5972493490,1.8537495931,1.2468516032
0.7505288124,-0.1743362630,-0.0721232096,0.0202586263,2.5972493490,1.8537495931,1.2468516032
0.7532098293,-0.1801956380,-0.0652872721,0.0266062826,2.8261311849,2.1436665853,1.3536631267
0.7557787895,-0.1801956380,-0.0652872721,0.0266062826,2.8261311849,2.1436665853,1.3536631267
0.7586469650,-0.1801956380,-0.0652872721,0.0266062826,2.7956136068,2.1589253744,1.3384043376
0.7612218857,-0.1801956380,-0.0716349284,0.0261180013,2.7956136068,2.1589253744,1.3384043376
0.7637829781,-0.1772659505,-0.0716349284,0.0261180013,2.7956136068,2.3878072103,1.3841807048
0.7664668560,-0.1772659505,-0.0716349284,0.0261180013,2.0937093099,2.3878072103,1.3841807048
0.7690539360,-0.1772659505,-0.0716349284,0.0261180013,2.0937093099,2.2962544759,1.3841807048
0.7721598148,-0.1806839193,-0.0672403971,0.0163523763,1.6359456380,2.2962544759,1.3841807048
0.7747318745,-0.1806839193,-0.0672403971,0.0163523763,1.6359456380,2.3878072103,1.2773691814
0.7773849964,-0.1806839193,-0.0672403971,0.0163523763,1.9411214193,2.3878072103,1.2773691814
0.7799429893,-0.1806839193,-0.0672403971,0.0163523763,1.9411214193,2.5861714681,1.0027109782
0.7825059891,-0.1841018880,-0.0608927408,0.0153758138,1.2239583333,2.5861714681,1.0027109782
0.7850677967,-0.1841018880,-0.0608927408,0.0153758138,1.2239583333,2.5861714681,0.5296885173
0.7876358032,-0.1841018880,-0.0608927408,0.0153758138,1.3002522786,2.2199605306,0.5296885173
0.7901988029,-0.1841018880,-0.0608927408,0.0153758138,1.3002522786,2.2199605306,-3.3765614827
0.7927558422,-0.1801956380,-0.0638224284,0.0173289388,1.3155110677,2.2047017416,0.1787363689
0.7953238487,-0.1801956380,-0.0638224284,0.0173289388,1.3155110677,2.2047017416,0.1787363689
0.7979309559,-0.1801956380,-0.0638224284,0.0173289388,1.5596516927,2.1589253744,-0.0654042561
0.8004908562,-0.1801956380,-0.0638224284,0.0173289388,1.5596516927,2.1589253744,-0.0654042561
0.8030588627,-0.1801956380,-0.0584513346,0.0173289388,1.4223225911,1.9910786947,-0.6299794514
0.8056399822,-0.1801956380,-0.0584513346,0.0173289388,1.4223225911,1.9910786947,-0.6299794514
0.8082928658,-0.1801956380,-0.0584513346,0.0173289388,1.8800862630,1.6859029134,-0.9351552327
0.8108568192,-0.1801956380,-0.0584513346,0.0173289388,1.8800862630,1.6859029134,-0.9351552327
0.8134179115,-0.1738479817,-0.0599161784,0.0217234700,1.9716389974,1.9910786947,-1.3776601155
0.8163969517,-0.1738479817,-0.0599161784,0.0217234700,1.9716389974,1.9910786947,-1.3776601155
0.8189678192,-0.1738479817,-0.0599161784,0.0217234700,1.9258626302,1.7469380697,-1.8964589436
0.8215339184,-0.1738479817,-0.1849161784,0.0207469076,1.9258626302,1.7469380697,-1.8964589436
0.8241059780,-0.1738479817,-0.0623575846,0.0207469076,2.1394856771,1.5333150228,-2.2321523030
0.8270080090,-0.1738479817,-0.0623575846,0.0207469076,2.1394856771,1.5333150228,-2.2321523030
0.8307039738,-0.1738479817,-0.0623575846,0.0207469076,2.0326741536,1.6401265462,-2.4610341390
0.8335509300,-0.1675003255,-0.0643107096,0.0187937826,2.0326741536,1.6401265462,-2.4610341390
0.8362598419,-0.1675003255,-0.0643107096,0.0187937826,1.7732747396,1.7774556478,-2.6899159749
0.8389618397,-0.1675003255,-0.0643107096,0.0187937826,1.7732747396,1.7774556478,-2.6899159749
0.8416588306,-0.1675003255,-0.0643107096,0.0187937826,1.3918050130,2.2504781087,-2.2931874593
0.8443548679,-0.1694534505,-0.0643107096,0.0187937826,1.3918050130,2.2504781087,-2.2931874593
0.8470728397,-0.1694534505,-0.0643107096,0.0187937826,1.5596516927,2.3878072103,-2.3999989827
0.8497669697,-0.1694534505,-0.0643107096,0.0187937826,1.5596516927,2.3878072103,-2.3999989827
0.8524580002,-0.1753128255,-0.0657755534,0.0178172200,1.4223225911,2.1741841634,-2.0337880452
0.8551568985,-0.1753128255,-0.0657755534,0.0178172200,1.4223225911,2.1741841634,-2.0337880452
0.8578639030,-0.1753128255,-0.0657755534,0.0178172200,1.2697347005,2.1894429525,-1.6828358968
0.8605649471,-0.1753128255,-0.0657755534,0.0178172200,1.2697347005,2.1894429525,-1.6828358968
0.8632588387,-0.1841018880,-0.0711466471,0.0280711263,1.3612874349,2.1131490072,-1.8506825764
0.8661208153,-0.1841018880,-0.0711466471,0.0280711263,1.3612874349,2.1131490072,-1.8506825764
0.8687839508,-0.1841018880,-0.0711466471,0.0280711263,1.4070638021,2.1894429525,-2.0643056233
0.8721969128,-0.1841018880,-0.0613810221,0.0251414388,1.4070638021,2.1894429525,-2.4610341390
0.8747708797,-0.1831253255,-0.0613810221,0.0251414388,1.6359456380,2.7387593587,-2.4610341390
0.8774077892,-0.1831253255,-0.0613810221,0.0251414388,1.6359456380,2.7387593587,-2.3694814046
0.8799669743,-0.1831253255,-0.0613810221,0.0251414388,1.4223225911,2.3878072103,-2.3694814046
0.8826448917,-0.1831253255,-0.0765177408,0.0310008138,1.4223225911,2.3878072103,-2.3694814046
0.8852047920,-0.1865432943,-0.0765177408,0.0310008138,1.5291341146,2.4335835775,-2.0643056233
0.8878068924,-0.1865432943,-0.0765177408,0.0310008138,1.5291341146,2.4335835775,-2.0643056233
0.8903658390,-0.1865432943,-0.0765177408,0.0310008138,1.7122395833,2.1894429525,-1.7286122640
0.8929269314,-0.1821487630,-0.0706583658,0.0197703450,1.7122395833,2.1894429525,-1.7286122640
0.8954939842,-0.1821487630,-0.0706583658,0.0197703450,1.5901692708,1.9453023275,-1.7133534749
0.8980679512,-0.1821487630,-0.0706583658,0.0197703450,1.5901692708,1.9453023275,-1.7133534749
0.9006328583,-0.1821487630,-0.0706583658,0.0197703450,1.6664632161,2.2809956869,-1.5302480061
0.9031968117,-0.1777542317,-0.0657755534,0.0183055013,1.6664632161,2.2809956869,-1.5302480061
0.9057579041,-0.1777542317,-0.0657755534,0.0183055013,1.3002522786,2.9066060384,-1.5149892171
0.9083578587,-0.1777542317,-0.0657755534,0.0183055013,1.3002522786,2.9066060384,-1.5149892171
0.9109199047,-0.1777542317,-0.0657755534,0.0183055013,1.9716389974,2.2809956869,-1.4234364827
0.9134769440,-0.1806839193,-0.0750528971,0.0227000326,1.9716389974,2.2809956869,-1.4234364827
0.9161128998,-0.1806839193,-0.0750528971,0.0227000326,1.9716389974,2.4030659994,-1.3776601155
0.9186890125,-0.1806839193,-0.0750528971,0.0227000326,2.1089680990,2.4030659994,-1.3776601155
0.9212579727,-0.1806839193,-0.0750528971,0.0227000326,2.1089680990,2.4030659994,-1.2861073811
0.9238269329,-0.1836136067,-0.0721232096,0.0310008138,1.8953450521,2.3115132650,-1.2861073811
0.9265739918,-0.1836136067,-0.0721232096,0.0310008138,1.8953450521,2.3115132650,-1.4997304280
0.9292759895,-0.1836136067,-0.0721232096,0.0310008138,1.9563802083,2.7235005697,-1.4997304280
0.9319767952,-0.1836136067,-0.0721232096,0.0310008138,1.9563802083,2.7235005697,-2.1711171468
0.9346749783,-0.1816604817,-0.0721232096,0.0324656576,2.0479329427,2.6472066244,-2.1711171468
0.9373788834,-0.1816604817,-0.0721232096,0.0324656576,2.0479329427,2.6472066244,-2.2016347249
0.9400818348,-0.1816604817,-0.0721232096,0.0324656576,2.4599202474,2.6166890462,-2.2016347249
0.9427838326,-0.1816604817,-0.0721232096,0.0231883138,2.4599202474,2.6166890462,-1.7286122640
0.9455928802,-0.1787307943,-0.0755411784,0.0231883138,2.5819905599,3.0591939290,-1.7286122640
0.9483048916,-0.1787307943,-0.0755411784,0.0231883138,2.5819905599,3.0591939290,-1.5455067952
0.9510087967,-0.1787307943,-0.0755411784,0.0231883138,2.5209554036,2.7387593587,-1.5455067952
0.9537057877,-0.1801956380,-0.0677286784,0.0222117513,2.5209554036,2.7387593587,-1.5760243733
0.9564509392,-0.1801956380,-0.0677286784,0.0222117513,2.3988850911,2.9218648275,-1.5760243733
0.9591538906,-0.1801956380,-0.0677286784,0.0222117513,2.3988850911,2.9218648275,-1.7743886311
0.9618549347,-0.1801956380,-0.0677286784,0.0222117513,2.9176839193,2.5251363119,-1.7743886311
0.9646089077,-0.1870315755,-0.0613810221,0.0183055013,2.9176839193,2.5251363119,-1.8201649983
0.9673619270,-0.1870315755,-0.0613810221,0.0183055013,2.9787190755,2.3878072103,-1.8201649983
0.9699327946,-0.1870315755,-0.0613810221,0.0183055013,2.9787190755,2.3878072103,-1.6980946858
0.9728789330,-0.1870315755,-0.0613810221,0.0231883138,3.6958821614,2.3115132650,-1.6980946858
0.9754447937,-0.1811722005,-0.0750528971,0.0231883138,3.6958821614,2.3115132650,-1.7286122640
0.9781568050,-0.1811722005,-0.0750528971,0.0231883138,3.5738118490,2.1741841634,-1.7286122640
0.9807279110,-0.1811722005,-0.0750528971,0.0231883138,3.5738118490,2.1741841634,-1.7286122640
0.9832949638,-0.1811722005,-0.0740763346,0.0222117513,3.6501057943,2.0978902181,-1.6675771077
0.9858639240,-0.1777542317,-0.0740763346,0.0222117513,3.6501057943,2.0978902181,-1.6675771077
0.9884510040,-0.1777542317,-0.0740763346,0.0222117513,3.4822591146,2.1284077962,-1.6828358968
0.9910199642,-0.1777542317,-0.0740763346,0.0222117513,3.4822591146,2.1284077962,-1.6828358968
0.9935870171,-0.1777542317,-0.0711466471,0.0217234700,3.7416585286,2.3115132650,-1.3318837483
0.9962239265,-0.1801956380,-0.0711466471,0.0217234700,3.7416585286,2.3115132650,-1.3318837483
0.9987838268,-0.1801956380,-0.0711466471,0.0217234700,3.5738118490,2.4488423666,-0.8436024983
1.0013527870,-0.1801956380,-0.0711466471,0.0217234700,3.5738118490,2.4488423666,-0.8436024983
1.0039188862,-0.1801956380,-0.0799357096,0.0192820638,3.9857991536,2.1894429525,-0.9809315999
1.0065639019,-0.1777542317,-0.0799357096,0.0192820638,3.9857991536,2.1894429525,-0.9809315999
1.0092480183,-0.1777542317,-0.0799357096,0.0192820638,3.6195882161,2.2199605306,-0.9809315999
1.0118148327,-0.1777542317,-0.0799357096,0.0192820638,3.6195882161,2.2199605306,-0.9809315999
1.0143799782,-0.1767776693,-0.0706583658,0.0227000326,3.6653645833,2.6777242025,-0.8893788655
1.0171167850,-0.1767776693,-0.0706583658,0.0227000326,3.6653645833,2.6777242025,-0.8893788655
1.0196859837,-0.1767776693,-0.0706583658,0.0227000326,3.6653645833,2.7845357259,-0.5384267171
1.0222539902,-0.1767776693,-0.0706583658,0.0227000326,3.4822591146,2.7845357259,-0.5384267171
1.0248169899,-0.1748245443,-0.0657755534,0.0202586263,3.4822591146,2.8608296712,-0.5689442952
1.0275199413,-0.1748245443,-0.0657755534,0.0202586263,2.9024251302,2.8608296712,-0.5689442952
1.0300920010,-0.1748245443,-0.0657755534,0.0202586263,2.9024251302,2.8608296712,-0.5994618733
1.0326578617,-0.1748245443,-0.0657755534,0.0202586263,2.6888020833,2.7845357259,-0.5994618733
1.0352258682,-0.1709182943,-0.0740763346,0.0270945638,2.6888020833,2.7845357259,-0.5384267171
1.0378489494,-0.1709182943,-0.0740763346,0.0270945638,2.9024251302,3.3796284994,-0.5384267171
1.0404109955,-0.1709182943,-0.0740763346,0.0270945638,2.9024251302,3.3796284994,-0.5384267171
1.0429790020,-0.1709182943,-0.0740763346,0.0270945638,2.2310384114,3.1965230306,-0.6452382405
1.0455398560,-0.1699417317,-0.0696818034,0.0241648763,2.2310384114,3.1965230306,-0.6452382405
1.0481488705,-0.1699417317,-0.0696818034,0.0241648763,2.5209554036,2.6777242025,-0.7062733968
1.0507159233,-0.1699417317,-0.0696818034,0.0241648763,2.5209554036,2.6777242025,-0.7062733968
1.0532779694,-0.1699417317,-0.0696818034,0.0241648763,1.4986165364,2.9676411947,-0.8588612874
1.0558438301,-0.1645706380,-0.0613810221,0.0183055013,1.4986165364,2.9676411947,-0.8588612874
1.0584139824,-0.1645706380,-0.0613810221,0.0183055013,0.4152425130,3.2117818197,-1.2403310140
1.0609738827,-0.1645706380,-0.0613810221,0.0183055013,0.4152425130,3.2117818197,-1.2403310140
1.0635418892,-0.1645706380,-0.0613810221,0.0183055013,0.1405843099,2.7692769369,-1.1335194905
1.0663998127,-0.1753128255,-0.0672403971,0.0231883138,0.1405843099,2.7692769369,-1.1335194905
1.0689628124,-0.1753128255,-0.0672403971,0.0231883138,0.1253255208,3.3796284994,-1.3318837483
1.0721797943,-0.1753128255,-0.0672403971,0.0231883138,0.1253255208,3.3796284994,-1.3318837483
1.0747489929,-0.1738479817,-0.0730997721,0.0100047200,0.2779134114,2.9523824056,-1.3318837483
1.0773208141,-0.1738479817,-0.0730997721,0.0100047200,0.2779134114,2.9523824056,-1.3318837483
1.0798788071,-0.1738479817,-0.0730997721,0.0100047200,0.3084309896,3.3185933431,-1.1182607014
1.0824368000,-0.1738479817,-0.0730997721,0.0100047200,0.3084309896,3.3185933431,-1.1182607014
1.0849988461,-0.1836136067,-0.0740763346,0.0173289388,0.4152425130,3.2270406087,-1.0419667561
1.0876088142,-0.1836136067,-0.0740763346,0.0173289388,0.4152425130,3.2270406087,-1.0419667561
1.0901730061,-0.1836136067,-0.0740763346,0.0173289388,0.4152425130,3.2270406087,-0.7978261311
1.0927298069,-0.1836136067,-0.0740763346,0.0173289388,0.2779134114,3.2270406087,-0.7978261311
1.0952939987,-0.1933792317,-0.0814005534,0.0158640950,0.2779134114,3.2270406087,-0.3400624593
1.0978598595,-0.1933792317,-0.0814005534,0.0158640950,0.2779134114,3.3033345540,-0.3400624593
1.1004238129,-0.1933792317,-0.0814005534,0.0158640950,0.2779134114,3.3033345540,-0.3400624593
1.1029849052,-0.1933792317,-0.0814005534,0.0158640950,0.2626546224,3.0439351400,-0.0654042561
1.1055479050,-0.1894729817,-0.0833536784,0.0192820638,0.2626546224,3.0439351400,-0.0654042561
1.1081538200,-0.1894729817,-0.0833536784,0.0192820638,0.5067952474,3.0439351400,-0.0196278890
1.1107168198,-0.1894729817,-0.0833536784,0.0192820638,0.5067952474,3.0439351400,-0.0196278890
1.1132779121,-0.1894729817,-0.0833536784,0.0192820638,0.6746419271,3.3033345540,0.2397715251
1.1158399582,-0.1880081380,-0.0794474284,0.0109812826,0.6746419271,3.3033345540,0.2397715251
1.1184887886,-0.1880081380,-0.0794474284,0.0109812826,0.5373128255,2.9828999837,0.4228769939
1.1210558414,-0.1880081380,-0.0794474284,0.0109812826,0.5373128255,2.9828999837,0.4228769939
1.1236188412,-0.1880081380,-0.0794474284,0.0109812826,0.7814534505,2.8760884603,0.6365000407
1.1263527870,-0.1845901693,-0.0774943034,0.0163523763,0.7814534505,2.8760884603,0.6365000407
1.1290500164,-0.1845901693,-0.0774943034,0.0163523763,1.0561116536,2.7387593587,0.2855478923
1.1317489147,-0.1845901693,-0.0774943034,0.0163523763,1.0561116536,2.7387593587,0.2855478923
1.1344540119,-0.1845901693,-0.0774943034,0.0231883138,1.6817220052,2.6166890462,0.1787363689
1.1372690201,-0.1714065755,-0.0647989908,0.0231883138,1.6817220052,2.6166890462,0.1787363689
1.1399729252,-0.1714065755,-0.0647989908,0.0231883138,2.0937093099,2.5556538900,-0.0654042561
1.1426718235,-0.1714065755,-0.0647989908,0.0231883138,2.0937093099,2.5556538900,-0.0654042561
1.1453719139,-0.1714065755,-0.0667521158,0.0153758138,2.7040608724,3.1660054525,-0.6604970296
1.1479868889,-0.1714065755,-0.0667521158,0.0153758138,2.7040608724,3.1660054525,-0.6604970296
1.1505548954,-0.1714065755,-0.0667521158,0.0153758138,2.8719075521,3.0439351400,-0.9351552327
1.1531209946,-0.1714065755,-0.0667521158,0.0153758138,2.8719075521,3.0439351400,-0.9351552327
1.1556859016,-0.1733597005,-0.0604044596,0.0183055013,6.7781575521,2.9828999837,-0.9961903890
1.1582558155,-0.1733597005,-0.0604044596,0.0183055013,3.1923421224,2.9828999837,-0.9961903890
1.1608228683,-0.1733597005,-0.0604044596,0.0183055013,3.1923421224,2.9828999837,-1.0724843343
1.1633818150,-0.1733597005,-0.0604044596,0.0183055013,3.0550130208,2.6777242025,-1.0724843343
1.1660008430,-0.1801956380,-0.0623575846,0.0007273763,3.0550130208,2.6777242025,-1.7438710530
1.1686589718,-0.1801956380,-0.0623575846,0.0007273763,2.9482014974,3.1812642416,-1.7438710530
1.1712818146,-0.1801956380,-0.0623575846,0.0007273763,2.9482014974,3.1812642416,-1.7438710530
1.1738498211,-0.1801956380,-0.0623575846,0.0007273763,1.4833577474,3.7000630697,-1.9727528890
1.1764719486,-0.1811722005,-0.0696818034,0.0134226888,1.4833577474,3.7000630697,-1.9727528890
1.1790308952,-0.1811722005,-0.0696818034,0.0134226888,-0.2561442057,4.0052388509,-1.8049062093
1.1815979481,-0.1811722005,-0.0696818034,0.0134226888,-0.2561442057,4.0052388509,-1.8049062093
1.1842479706,-0.1811722005,-0.0696818034,0.0134226888,-1.5073649089,3.3948872884,-1.5760243733
1.1874768734,-0.1889847005,-0.0828653971,0.0124461263,-1.5073649089,3.3948872884,-1.5760243733
1.1900429726,-0.1889847005,-0.0828653971,0.0124461263,-1.8125406901,3.0897115072,-0.7673085530
1.1926009655,-0.1889847005,-0.0828653971,0.0124461263,-1.8125406901,3.0897115072,-0.7673085530
1.1951599121,-0.1889847005,-0.0828653971,0.0202586263,-1.7362467448,2.5556538900,-0.4773915608
1.1977717876,-0.1904495443,-0.0916544596,0.0202586263,-1.7362467448,2.5556538900,-0.4773915608
1.2004427910,-0.1904495443,-0.0916544596,0.0202586263,-2.6975504557,2.8303120931,0.1329600017
1.2030048370,-0.1904495443,-0.0916544596,0.0202586263,-2.6975504557,2.8303120931,0.1329600017
1.2055659294,-0.1904495443,-0.0989786784,0.0285594076,-4.6048990886,3.1812642416,0.7738291423
1.2082049847,-0.1821487630,-0.0989786784,0.0285594076,-4.6048990886,3.1812642416,0.7738291423
1.2107698917,-0.1821487630,-0.0989786784,0.0285594076,-4.5743815104,3.3338521322,1.5520273845
1.2133269310,-0.1821487630,-0.0989786784,0.0285594076,-4.5743815104,3.3338521322,1.5520273845
1.2158877850,-0.1821487630,-0.0960489908,0.0285594076,-3.4452311198,3.6848042806,2.3454844157
1.2184498310,-0.1811722005,-0.0960489908,0.0285594076,-3.4452311198,3.6848042806,2.3454844157
1.2210078239,-0.1811722005,-0.0960489908,0.0285594076,-3.4452311198,3.9136861166,3.0321299236
1.2235648632,-0.1811722005,-0.0960489908,0.0285594076,-2.8196207682,3.9136861166,3.0321299236
1.2261838913,-0.1880081380,-0.0955607096,0.0368601888,-2.8196207682,3.9136861166,2.7269541423
1.2287468910,-0.1880081380,-0.0955607096,0.0368601888,-2.4228922526,4.0815327962,2.7269541423
1.2313067913,-0.1880081380,-0.0955607096,0.0368601888,-2.4228922526,4.0815327962,3.0931650798
1.2338719368,-0.1880081380,-0.0955607096,0.0368601888,-2.4686686198,4.2036031087,3.0931650798
1.2365758419,-0.1884964193,-0.0882364908,0.0187937826,-2.4686686198,4.2036031087,3.0931650798
1.2391419411,-0.1884964193,-0.0882364908,0.0187937826,-2.3313395182,4.5698140462,3.8713633220
1.2416949272,-0.1884964193,-0.0882364908,0.0187937826,-2.3313395182,4.5698140462,3.8713633220
1.2442510128,-0.1884964193,-0.0882364908,0.0187937826,-1.9193522136,4.8749898275,4.6037851970
1.2469599247,-0.1909378255,-0.0799357096,0.0270945638,-1.9193522136,4.8749898275,4.6037851970
1.2495269775,-0.1909378255,-0.0799357096,0.0270945638,-1.6599527995,5.5311177572,4.8174082439
1.2520887852,-0.1909378255,-0.0799357096,0.0270945638,-1.6599527995,5.5311177572,4.8174082439
1.2546498775,-0.1909378255,-0.0799357096,0.0270945638,-2.6975504557,6.3245747884,5.6719004314
1.2572879791,-0.1865432943,-0.0867716471,0.0363719076,-2.6975504557,6.3245747884,5.6719004314
1.2599859238,-0.1865432943,-0.0867716471,0.0363719076,-3.8724772136,7.0112202962,6.6332041423
1.2627918720,-0.1865432943,-0.0867716471,0.0363719076,-3.8724772136,7.0112202962,6.6332041423
1.2654838562,-0.1865432943,-0.0867716471,0.0363719076,-6.1155192057,7.4079488119,7.3351084392
1.2681889534,-0.1943557943,-0.1014200846,0.0339305013,-6.1155192057,7.4079488119,7.3351084392
1.2708919048,-0.1943557943,-0.1014200846,0.0339305013,-7.8702799479,8.0488179525,8.4795176189
1.2735688686,-0.1943557943,-0.1014200846,0.0339305013,-7.8702799479,8.0488179525,8.4795176189
1.2763497829,-0.1943557943,-0.0950724284,0.0183055013,-7.4125162760,8.2776997884,9.9138437907
1.2790138721,-0.2090042317,-0.0950724284,0.0183055013,-7.4125162760,8.2776997884,9.9138437907
1.2817149162,-0.2090042317,-0.0950724284,0.0183055013,-7.1683756510,8.2776997884,11.6686045329
1.2846989632,-0.2090042317,-0.0950724284,0.0183055013,-7.1683756510,8.2776997884,11.6686045329
1.2873558998,-0.2114456380,-0.0843302408,0.0119578450,-5.0626627604,8.7202046712,13.5759531657
1.2899279594,-0.2114456380,-0.0843302408,0.0119578450,-5.0626627604,8.7202046712,13.5759531657
1.2924959660,-0.2114456380,-0.0843302408,0.0119578450,-1.9040934245,8.4608052572,16.0936533610
1.2950608730,-0.2114456380,-0.0843302408,0.0119578450,-1.9040934245,8.4608052572,16.0936533610
1.2976379395,-0.2173050130,-0.0814005534,0.0261180013,0.5067952474,9.1779683431,18.9775644939
1.3001987934,-0.2173050130,-0.0814005534,0.0261180013,0.5067952474,9.1779683431,18.9775644939
1.3027648926,-0.2173050130,-0.0814005534,0.0261180013,1.5596516927,10.7801411947,21.8919932048
1.3053319454,-0.2173050130,-0.0814005534,0.0261180013,1.5596516927,10.7801411947,21.8919932048
1.3079500198,-0.2314651693,-0.1009318034,0.0519969076,1.5596516927,11.2226460775,26.0118662517
1.3105158806,-0.2314651693,-0.1009318034,0.0519969076,3.9705403646,11.2226460775,26.0118662517
1.3130798340,-0.2314651693,-0.1009318034,0.0519969076,3.9705403646,11.2226460775,31.2761484782
1.3156418800,-0.2314651693,-0.1009318034,0.0519969076,7.7394612630,11.5583394369,31.2761484782
1.3182909489,-0.2280472005,-0.1380411784,0.0568797200,7.7394612630,11.5583394369,36.5862070720
1.3208508492,-0.2280472005,-0.1380411784,0.0568797200,11.0811360677,12.5349019369,36.5862070720
1.3234128952,-0.2280472005,-0.1380411784,0.0568797200,11.0811360677,12.5349019369,36.5862070720
1.3261198997,-0.2280472005,-0.1380411784,0.0568797200,13.5988362630,13.6487935384,43.0559336345
1.3287010193,-0.2339065755,-0.1941935221,0.0852000326,13.5988362630,13.6487935384,43.0559336345
1.3312699795,-0.2339065755,-0.1941935221,0.0852000326,13.8734944661,14.8237202962,50.7616221110
1.3338508606,-0.2339065755,-0.1941935221,0.0852000326,13.8734944661,14.8237202962,50.7616221110
1.3365678787,-0.2339065755,-0.1941935221,0.0646922200,12.1645100911,15.5561421712,58.1621348064
1.3391427994,-0.2583206380,-0.2405802408,0.0646922200,12.1645100911,15.5561421712,58.1621348064
1.3417179585,-0.2583206380,-0.2405802408,0.0646922200,9.6925862630,16.2885640462,66.5849863689
1.3442900181,-0.2583206380,-0.2405802408,0.0646922200,9.6925862630,16.2885640462,66.5849863689
1.3469250202,-0.2583206380,-0.2205607096,0.0397898763,8.4108479818,15.6476949056,75.7860361736
1.3496279716,-0.2832229817,-0.2205607096,0.0397898763,8.4108479818,15.6476949056,75.7860361736
1.3523328304,-0.2832229817,-0.2205607096,0.0397898763,5.9084065755,13.6335347494,85.2770029704
1.3550388813,-0.2832229817,-0.2205607096,0.0397898763,5.9084065755,13.6335347494,85.2770029704
1.3577508926,-0.2500198567,-0.2645060221,-0.0051319987,1.4680989583,11.1310933431,94.0355478923
1.3604578972,-0.2500198567,-0.2645060221,-0.0051319987,1.4680989583,11.1310933431,94.0355478923
1.3631589413,-0.2500198567,-0.2645060221,-0.0051319987,-6.5580240886,6.5229390462,101.0240732829
1.3658649921,-0.2500198567,-0.2645060221,-0.0051319987,-6.5580240886,6.5229390462,101.0240732829
1.3685657978,-0.1972854817,-0.3167521158,-0.0007374674,-17.2849527995,2.3115132650,106.1205088298
1.3712699413,-0.1972854817,-0.3167521158,-0.0007374674,-17.2849527995,2.3115132650,106.1205088298
1.3740580082,-0.1972854817,-0.3167521158,-0.0007374674,-23.5410563151,-2.4034525553,108.6382090251
1.3768119812,-0.1972854817,-0.3167521158,-0.0500538737,-23.5410563151,-2.4034525553,108.6382090251
1.3794767857,-0.2324417317,-0.1458536784,-0.0500538737,-26.3028971354,-6.1571146647,108.6076914470
1.3823308945,-0.2324417317,-0.1458536784,-0.0500538737,-26.3028971354,-6.1571146647,108.6076914470
1.3850009441,-0.2324417317,-0.1458536784,-0.0500538737,-25.9519449870,-8.3848978678,107.3717295329
1.3876638412,-0.2324417317,0.0670369466,-0.1477101237,-25.9519449870,-8.3848978678,107.3717295329
1.3903508186,-0.2876175130,0.0670369466,-0.1477101237,-24.6854654948,-9.9107767741,108.0736338298
1.3929247856,-0.2876175130,0.0670369466,-0.1477101237,-24.6854654948,-9.9107767741,108.0736338298
1.3954977989,-0.2876175130,0.0670369466,-0.1477101237,-23.2511393229,-10.7500101725,108.2109629314
1.3980758190,-0.2734573567,0.0675252279,-0.2102101237,-23.2511393229,-10.7500101725,108.2109629314
1.4006459713,-0.2734573567,0.0675252279,-0.2102101237,-19.3448893229,-11.0094095866,107.9973398845
1.4032168388,-0.2734573567,0.0675252279,-0.2102101237,-19.9857584636,-11.0094095866,107.9973398845
1.4057929516,-0.2734573567,0.0675252279,-0.2102101237,-19.9857584636,-11.0094095866,107.4937998454
1.4083838463,-0.1963089193,0.0299275716,-0.0988819987,-16.3694254557,-12.4132181803,107.4937998454
1.4109539986,-0.1963089193,0.0299275716,-0.0988819987,-16.3694254557,-12.4132181803,104.7624766032
1.4135258198,-0.1963089193,0.0299275716,-0.0988819987,-10.6016031901,-13.0388285319,104.7624766032
1.4160988331,-0.1963089193,0.0299275716,-0.0988819987,-10.6016031901,-13.0388285319,100.8562266032
1.4186718464,-0.2578323567,0.0108846029,-0.1096241862,-2.5754801432,-10.0328470866,101.3292490642
1.4212379456,-0.2578323567,0.0108846029,-0.1096241862,-2.5754801432,-10.0328470866,101.3292490642
1.4238138199,-0.2578323567,0.0108846029,-0.1096241862,0.9187825521,-6.5843607584,97.4077402751
1.4265580177,-0.2578323567,0.0108846029,-0.1096241862,0.9187825521,-6.5843607584,97.4077402751
1.4291348457,-0.2353714193,0.0777791342,-0.1486866862,-0.3171793620,-3.8225199381,93.8371836345
1.4317049980,-0.2353714193,0.0777791342,-0.1486866862,-0.3171793620,-3.8225199381,93.8371836345
1.4342739582,-0.2353714193,0.0777791342,-0.1486866862,-4.0861002604,-1.1217142741,92.5249277751
1.4369537830,-0.2353714193,0.0777791342,-0.1486866862,-4.0861002604,-1.1217142741,92.5249277751
1.4395279884,-0.1552932943,0.1266072592,-0.0896046550,-8.9231363932,0.9992574056,91.7467295329
1.4421069622,-0.1552932943,0.1266072592,-0.0896046550,-8.9231363932,0.9992574056,91.7467295329
1.4446909428,-0.1552932943,0.1266072592,-0.0896046550,-12.2800699870,2.3725484212,90.4649912517
1.4473459721,-0.1552932943,0.1266072592,-0.0896046550,-12.2800699870,2.3725484212,90.4649912517
1.4500529766,-0.0068557943,0.1109822592,-0.0344288737,-13.3634440104,3.9442036947,89.6104990642
1.4528629780,-0.0068557943,0.1109822592,-0.0344288737,-13.3634440104,3.9442036947,89.6104990642
1.4555668831,-0.0068557943,0.1109822592,-0.0344288737,-12.8141276042,4.8292134603,89.0001475017
1.4582839012,0.1181442057,0.1710408529,-0.0236866862,-12.8141276042,4.8292134603,89.0001475017
1.4609858990,0.1401168620,0.1710408529,-0.0236866862,-12.0664469401,4.9665425619,89.0917002360
1.4636909962,0.1401168620,0.1710408529,-0.0236866862,-12.0664469401,4.9665425619,89.0917002360
1.4664299488,0.1401168620,0.1710408529,-0.0236866862,-12.3716227214,5.3480122884,88.8933359782
1.4691329002,0.2245895183,0.1793416342,0.0124461263,-12.3716227214,5.3480122884,88.8933359782
1.4718430042,0.2245895183,0.1793416342,0.0124461263,-15.6980387370,4.3561909994,86.8791758220
1.4745519161,0.2245895183,0.1793416342,0.0124461263,-15.6980387370,4.3561909994,86.8791758220
1.4774298668,0.2245895183,0.1793416342,0.0124461263,-20.6571451823,2.8150533040,84.5903574626
1.4801039696,0.3041793620,0.1646931966,0.0744578450,-20.6571451823,2.8150533040,84.5903574626
1.4830498695,0.3041793620,0.1646931966,0.0744578450,-25.2195231120,0.4651997884,83.4154307048
1.4856238365,0.3041793620,0.1646931966,0.0744578450,-25.2195231120,0.4651997884,83.4154307048
1.4882907867,0.3041793620,0.2320760092,0.1247508138,-30.0718180339,-2.6323343913,82.8661142986
1.4908599854,0.3530074870,0.2320760092,0.1247508138,-30.0718180339,-2.6323343913,82.8661142986
1.4934289455,0.3530074870,0.2320760092,0.1247508138,-32.9557291667,-5.9282328288,81.0808359782
1.4959928989,0.3530074870,0.2320760092,0.1247508138,-32.9557291667,-5.9282328288,81.0808359782
1.4985640049,0.3530074870,0.2433064779,0.1911570638,-32.9557291667,-7.8813578288,77.3729502360
1.5011358261,0.3471481120,0.2433064779,0.1911570638,-33.9628092448,-7.8813578288,77.3729502360
1.5037047863,0.3471481120,0.2433064779,0.1911570638,-33.9628092448,-11.7876078288,74.7179209392
1.5062868595,0.3471481120,0.2433064779,0.1911570638,-34.4205729167,-10.7347513834,74.7179209392
1.5088598728,0.3471481120,0.1876424154,0.2121531576,-34.4205729167,-10.7347513834,72.1239267986
1.5114278793,0.3495895183,0.1876424154,0.2121531576,-33.0625406901,-14.4121195475,72.1239267986
1.5140018463,0.3495895183,0.1876424154,0.2121531576,-33.0625406901,-14.4121195475,68.2176767986
1.5167429447,0.3495895183,0.1876424154,0.2121531576,-27.2642008464,-18.3946634928,68.6754404704
1.5193178654,0.3090621745,0.1461385092,0.2473094076,-27.2642008464,-18.3946634928,68.6754404704
1.5218899250,0.3090621745,0.1461385092,0.2473094076,-17.5138346354,-24.7728373210,64.2503916423
1.5244629383,0.3090621745,0.1461385092,0.2473094076,-17.5138346354,-24.7728373210,64.2503916423
1.5271549225,0.3090621745,0.1461385092,0.2473094076,-5.9781901042,-29.3199564616,60.6950937907
1.5297198296,0.1562301433,0.0768025716,0.2517039388,-5.9781901042,-29.3199564616,60.6950937907
1.5322887897,0.1562301433,0.0768025716,0.2517039388,5.5574544271,-32.6921488444,58.2231699626
1.5348579884,0.1562301433,0.0768025716,0.2517039388,5.5574544271,-32.6921488444,58.2231699626
1.5375390053,0.1562301433,0.0768025716,0.2517039388,14.1481526693,-37.8343607584,57.1855723064
1.5401098728,0.1274215495,0.0758260092,0.2893015950,14.1481526693,-37.8343607584,57.1855723064
1.5426788330,0.1274215495,0.0758260092,0.2893015950,23.1660970052,-42.4272562663,55.4613291423
1.5452558994,0.1274215495,0.0758260092,0.2893015950,23.1660970052,-42.4272562663,55.4613291423
1.5478320122,0.1274215495,0.0758260092,0.2893015950,36.5938313802,-42.4425150553,50.4106699626
1.5504069328,-0.3320511067,0.3736775716,0.1745555013,36.5938313802,-42.4425150553,50.4106699626
1.5529808998,-0.3320511067,0.3736775716,0.1745555013,48.3125813802,-35.7133890788,45.8177744548
1.5555539131,-0.3320511067,0.3736775716,0.1745555013,48.3278401693,-35.7133890788,45.8177744548
1.5582959652,-0.3320511067,0.3736775716,-0.5754444987,48.3278401693,-25.0322367350,46.3213144939
1.5610048771,-1.1069534505,0.3956502279,-0.5495655924,48.8008626302,-25.0322367350,46.3213144939
1.5637128353,-1.1069534505,0.3956502279,-0.5495655924,48.8008626302,-18.5319925944,50.8531748454
1.5664629936,-1.1069534505,0.3956502279,-0.5495655924,46.5883382161,-18.5319925944,50.8531748454
1.5691750050,-1.1069534505,0.0108846029,-0.6374562174,46.5883382161,-16.2736918131,54.8052012126
1.5718820095,-1.1870315755,0.0108846029,-0.6374562174,39.4624837240,-16.2736918131,54.8052012126
1.5745868683,-1.1870315755,0.0108846029,-0.6374562174,39.4624837240,-15.7091166178,64.4487559001
1.5773007870,-1.1870315755,0.0108846029,-0.6374562174,27.9268391927,-15.7091166178,64.4487559001
1.5802810192,-0.2934768880,-0.0667521158,0.1560008138,16.2080891927,-15.8464457194,71.2694346110
1.5829889774,-0.2934768880,-0.0667521158,0.1560008138,17.5661214193,-15.8464457194,71.2694346110
1.5856959820,-0.2934768880,-0.0667521158,0.1560008138,12.2102864583,-19.6916605631,75.2519785564
1.5884499550,-0.2934768880,-0.0667521158,0.1560008138,12.2102864583,-19.6916605631,75.2519785564
1.5911588669,0.1205856120,0.2955525716,0.5114695638,17.1541341146,-24.0098978678,72.4291025798
1.5939569473,0.1205856120,0.2955525716,0.5114695638,17.1541341146,-24.0098978678,72.4291025798
1.5974419117,0.1205856120,0.2955525716,0.5114695638,28.8423665364,-29.8387552897,66.2340342204
1.6000168324,-0.0039261067,0.3214314779,0.2170359700,28.8423665364,-29.8387552897,66.2340342204
1.6025879383,-0.0039261067,0.3214314779,0.2170359700,35.5867513021,-31.8986918131,61.0613047282
1.6051678658,-0.0039261067,0.3214314779,0.2170359700,35.5867513021,-31.8986918131,61.0613047282
1.6078269482,-0.0039261067,0.3214314779,0.2170359700,36.6090901693,-29.0452982584,57.5365244548
1.6104028225,-0.2461136067,0.3316853842,-0.0236866862,36.6090901693,-29.0452982584,57.5365244548
1.6129758358,-0.2461136067,0.3316853842,-0.0236866862,36.6090901693,-25.3221537272,55.8427988689
1.6155478954,-0.2461136067,0.3316853842,-0.0236866862,36.0597737630,-25.3221537272,55.8427988689
1.6181669235,-0.2461136067,0.3316853842,-0.0236866862,36.0597737630,-25.0017191569,53.7065684001
1.6207427979,-0.1259964193,0.3565877279,-0.0422413737,35.2205403646,-25.0017191569,53.7065684001
1.6233170033,-0.1259964193,0.3565877279,-0.0422413737,35.2205403646,-25.0017191569,49.0526377360
1.6258909702,-0.1259964193,0.3565877279,-0.0422413737,34.3813069661,-24.8033548991,49.0526377360
1.6284728050,-0.1259964193,0.3565877279,-0.0422413737,34.3813069661,-24.8033548991,45.1463877360
1.6310420036,-0.1206253255,0.3385213216,-0.0285694987,32.0009358724,-24.0404154460,45.3142344157
1.6336178780,-0.1206253255,0.3385213216,-0.0285694987,32.0009358724,-24.0404154460,45.3142344157
1.6362547874,-0.1206253255,0.3385213216,-0.0285694987,26.5840657552,-24.2845560710,42.3082529704
1.6388268471,-0.1206253255,0.3385213216,-0.0285694987,26.5840657552,-24.2845560710,42.3082529704
1.6413989067,-0.1299026693,0.3331502279,-0.0012257487,20.9993489583,-23.4758402506,39.5769297282
1.6440949440,-0.1299026693,0.3331502279,-0.0012257487,20.9993489583,-23.4758402506,39.5769297282
1.6467888355,-0.1299026693,0.3331502279,-0.0012257487,16.5590413411,-21.4769388834,36.9219004314
1.6493668556,-0.1299026693,0.3331502279,-0.1262257487,16.5590413411,-21.4769388834,36.9219004314
1.6519398689,-0.0800979817,0.3038533529,-0.0481007487,11.2489827474,-19.6458841960,35.4417978923
1.6545159817,-0.0800979817,0.3038533529,-0.0481007487,11.2489827474,-19.6458841960,35.4417978923
1.6571779251,-0.0800979817,0.3038533529,-0.0481007487,4.5198567708,-16.7619730631,32.6341807048
1.6597478390,-0.0800979817,0.3038533529,-0.0202687174,4.5198567708,-16.7619730631,32.6341807048
1.6623129845,-0.0644729817,0.2960408529,-0.0202687174,-0.6986490886,-14.6867777506,29.1246592204
1.6648838520,-0.0644729817,0.2960408529,-0.0202687174,-0.6986490886,-14.6867777506,29.1246592204
1.6674618721,-0.0644729817,0.2960408529,-0.0202687174,-3.5978190104,-14.1222025553,25.7066904704
1.6700308323,-0.0644729817,0.4210408529,0.0705515950,-3.5978190104,-14.1222025553,25.7066904704
1.6725988388,-0.0537307943,0.3560994466,0.0705515950,-3.5978190104,-13.1761576334,22.0140635173
1.6751718521,-0.0537307943,0.3560994466,0.0705515950,-5.9934488932,-13.1761576334,22.0140635173
1.6777839661,-0.0537307943,0.3560994466,0.0705515950,-5.9934488932,-13.1761576334,18.2146250407
1.6804900169,-0.0537307943,0.3624471029,0.0808055013,-7.4735514323,-12.4437357584,18.2146250407
1.6830649376,0.0492965495,0.3624471029,0.0808055013,-7.4735514323,-12.4437357584,13.6369883220
1.6856379509,0.0492965495,0.3624471029,0.0808055013,-7.2751871745,-11.2993265788,13.6369883220
1.6883809566,0.0492965495,0.3624471029,0.0808055013,-7.2751871745,-11.2993265788,8.6626230876
1.6910448074,0.1747848307,0.3692830404,0.1208445638,-7.5651041667,-9.5903422038,8.6626230876
1.6942257881,0.1747848307,0.3692830404,0.1208445638,-7.5651041667,-9.5903422038,3.3067881267
1.6968669891,0.1747848307,0.3692830404,0.1208445638,-7.0463053386,-8.0492045084,3.3067881267
1.6994400024,0.1747848307,0.3692830404,0.1208445638,-7.0463053386,-8.0492045084,-3.0713857014
1.7020118237,0.2895309245,0.4308064779,0.1267039388,-2.6059977214,-6.9658304850,-3.0713857014
1.7045738697,0.2895309245,0.4308064779,0.1267039388,-2.6059977214,-6.9658304850,-10.8838857014
1.7072958946,0.2895309245,0.4308064779,0.1267039388,1.8037923177,-6.0808207194,-10.5787099202
1.7098670006,0.2895309245,0.4308064779,0.0017039388,1.8037923177,-6.0808207194,-10.5787099202
1.7124378681,0.1850387370,0.3131306966,0.0964305013,1.6206868490,-5.5925394694,-16.7737782796
1.7150058746,0.1850387370,0.3131306966,0.0964305013,1.6206868490,-5.5925394694,-16.7737782796
1.7176189423,0.1850387370,0.3131306966,0.0964305013,0.4152425130,-4.8296000163,-21.5345204671
1.7201879025,0.1850387370,0.3131306966,0.1047312826,0.4152425130,-4.8296000163,-21.5345204671
1.7227609158,0.0214645183,0.3302205404,0.1047312826,-0.3324381510,-4.8448588053,-25.5323232014
1.7253248692,0.0214645183,0.3302205404,0.1047312826,-0.3324381510,-4.8448588053,-25.5323232014
1.7279458046,0.0214645183,0.3302205404,0.1047312826,-0.1035563151,-5.6383158366,-29.5759023030
1.7305178642,0.0214645183,0.3302205404,0.0617625326,-0.1035563151,-5.6383158366,-29.5759023030
1.7330868244,-0.1875198567,0.3346150716,0.0617625326,0.9798177083,-6.0503031413,-34.1230214436
1.7356569767,-0.1875198567,0.3346150716,0.0617625326,0.9798177083,-6.0503031413,-34.1230214436
1.7383170128,-0.1875198567,0.3346150716,0.0617625326,0.4610188802,-6.6148783366,-38.7311757405
1.7408947945,-0.1875198567,0.3648885092,-0.0109913737,0.4610188802,-6.6148783366,-38.7311757405
1.7434718609,-0.3130081380,0.3648885092,-0.0109913737,0.4610188802,-7.7898050944,-42.7137196858
1.7460718155,-0.3130081380,0.3648885092,-0.0109913737,-0.5765787760,-7.7898050944,-42.7137196858
1.7487800121,-0.3130081380,0.3648885092,-0.0109913737,-0.5765787760,-8.1254984538,-46.7878163655
1.7514967918,-0.4199417317,0.3600056966,-0.0983937174,-1.2174479167,-8.1254984538,-46.7878163655
1.7541999817,-0.4199417317,0.3600056966,-0.0983937174,-1.2174479167,-7.8050638834,-50.8161366780
1.7569179535,-0.4199417317,0.3600056966,-0.0983937174,-1.4158121745,-7.8050638834,-50.8161366780
1.7596218586,-0.4199417317,0.3600056966,-0.0983937174,-1.4158121745,-7.0879007975,-55.2106679280
1.7623229027,-0.4516800130,0.4029744466,-0.1355030924,-1.9346110026,-7.0879007975,-55.2106679280
1.7650318146,-0.4516800130,0.4029744466,-0.1355030924,-1.9346110026,-5.3941752116,-60.7496083577
1.7676618099,-0.4516800130,0.4029744466,-0.1355030924,-1.1869303386,-5.3941752116,-60.7496083577
1.7702279091,-0.4516800130,0.4029744466,-0.1355030924,-1.1869303386,-5.3941752116,-66.2427724202
1.7729129791,-0.4643753255,0.4376424154,-0.1140187174,1.0561116536,-3.3342386881,-66.2427724202
1.7754859924,-0.4643753255,0.4376424154,-0.1140187174,1.0561116536,-3.3342386881,-70.7593739827
1.7781767845,-0.4643753255,0.4376424154,-0.1140187174,5.2522786458,-1.6252543131,-70.7593739827
1.7808799744,-0.4643753255,0.4376424154,-0.0490773112,5.2522786458,-1.6252543131,-75.8405507405
1.7835829258,-0.4194534505,0.4757283529,-0.0490773112,11.4015706380,-0.2214457194,-75.8405507405
1.7862949371,-0.4194534505,0.4757283529,-0.0490773112,11.4015706380,-0.2214457194,-81.4863026936
1.7889988422,-0.4194534505,0.4757283529,-0.0490773112,22.5099690755,1.8537495931,-81.4863026936
1.7917048931,-0.2944534505,0.5006306966,0.0319773763,22.5099690755,1.8537495931,-90.9467519124
1.7944219112,-0.3139847005,0.5006306966,0.0319773763,32.5960286458,2.4946187337,-90.9467519124
1.7971417904,-0.3139847005,0.5006306966,0.0319773763,32.5960286458,2.4946187337,-98.7592519124
1.7998538017,-0.3139847005,0.5006306966,0.0319773763,44.2995198568,3.7305806478,-100.4377187093
1.8027448654,-0.1914261067,0.5294392904,0.0788523763,44.2995198568,3.7305806478,-112.7973378499
1.8054378033,-0.1914261067,0.5294392904,0.0788523763,53.3784993490,3.4711812337,-112.7973378499
1.8084008694,-0.1914261067,0.5294392904,0.0788523763,53.3784993490,3.4711812337,-127.5525868733
1.8111038208,-0.1914261067,0.5294392904,0.0480906576,61.0536702474,4.4782613119,-127.5525868733
1.8138129711,-0.1411331380,0.5435994466,0.0480906576,61.0536702474,4.4782613119,-145.6952870686
1.8165159225,-0.1411331380,0.5435994466,0.0480906576,63.8460286458,5.0733540853,-145.6952870686
1.8190939426,-0.1411331380,0.5435994466,0.0480906576,63.8460286458,5.0733540853,-165.7148183186
1.8216738701,-0.1411331380,0.4952596029,-0.0637257487,63.2509358724,6.8433736166,-165.7148183186
1.8242418766,-0.3921097005,0.4952596029,-0.0637257487,63.2509358724,6.8433736166,-185.2460683186
1.8269138336,-0.3921097005,0.4952596029,-0.0637257487,70.7887776693,9.0864156087,-187.0618642171
1.8296258450,-0.3921097005,0.4952596029,-0.0637257487,70.7887776693,9.0864156087,-210.4993642171
1.8323338032,-0.8076370443,0.5182088216,-0.2053273112,81.0426839193,15.0831197103,-210.0416005452
1.8350520134,-0.8076370443,0.5182088216,-0.2053273112,81.0426839193,15.0831197103,-210.0416005452
1.8377978802,-0.8076370443,0.5182088216,-0.2053273112,92.4562581380,26.0541890462,-233.4028065999
1.8403708935,-0.8076370443,0.5182088216,-0.2053273112,92.4562581380,26.0541890462,-233.4028065999
1.8429529667,-1.3628128255,0.3385213216,-0.4094288737,109.1188557943,40.9162495931,-263.0353749593
1.8455288410,-1.3628128255,0.3385213216,-0.4094288737,109.1188557943,40.9162495931,-263.0353749593
1.8481569290,-1.3628128255,0.3385213216,-0.4094288737,122.4092610677,53.9167378744,-297.0929921468
1.8507390022,-1.3628128255,0.3385213216,-0.4094288737,122.4092610677,53.9167378744,-297.0929921468
1.8533167839,-2.0844925130,-0.2947794596,-0.4397023112,133.6092122396,65.2845357259,-338.2612050374
1.8559010029,-2.0844925130,-0.2947794596,-0.4397023112,133.6092122396,65.2845357259,-338.2612050374
1.8586449623,-2.0844925130,-0.2947794596,-0.4397023112,158.8167317708,75.8131001790,-379.0479482014
1.8612229824,-2.0844925130,-0.2947794596,-0.4397023112,158.8167317708,75.8131001790,-379.0479482014
1.8638069630,-3.6640823567,-1.5330607096,-0.0227101237,196.9179280599,89.0882466634,-416.6303456624
1.8665378094,-3.6640823567,-1.5330607096,-0.0227101237,196.9179280599,89.0882466634,-416.6303456624
1.8691148758,-3.6640823567,-1.5330607096,-0.0227101237,243.0299886068,93.8795064290,-434.6051991780
1.8716959953,-3.6640823567,-1.5330607096,0.8332469076,243.0299886068,93.8795064290,-434.6051991780
1.8742659092,-6.0249222005,-1.7933146158,0.8332469076,246.9362386068,62.9957173666,-368.3820546468
1.8769068718,-6.0249222005,-1.7933146158,0.8332469076,248.5384114583,62.9957173666,-368.3820546468
1.8796157837,-6.0249222005,-1.7933146158,0.8332469076,166.5071614583,12.3823140462,-208.4089101155
1.8823239803,-6.0249222005,5.7735799154,3.4435984700,164.8744710286,12.3823140462,-208.4089101155
1.8850319386,-6.0996292317,5.7735799154,3.4435984700,223.4682210286,6.5381978353,-165.1807607014
1.8877439499,-6.0996292317,5.7735799154,3.4435984700,224.7957356771,6.5381978353,-165.1807607014
1.8904500008,-6.0996292317,5.7735799154,3.4435984700,384.9519856771,45.1429341634,-308.4913075764
1.8931620121,3.6157027995,13.2769978842,1.4948680013,381.8849690755,45.1429341634,-308.4913075764
1.8958699703,3.6157027995,13.2769978842,1.4948680013,495.1662190755,-88.1425882975,-373.9972890218
1.8985848427,3.6157027995,13.2769978842,1.4948680013,495.7918294271,-88.1425882975,-373.9972890218
1.9013988972,3.6157027995,13.2769978842,1.4948680013,499.6980794271,-135.9636332194,-198.2465565999
1.9041028023,1.2690231120,-1.1370646158,0.4621531576,500.4610188802,-135.9636332194,-198.2465565999
1.9068589211,1.2690231120,-1.1370646158,0.4621531576,500.4610188802,-114.2961527506,9.2424570720
1.9095699787,1.2690231120,-1.1370646158,0.4621531576,500.4610188802,-114.2961527506,9.2424570720
1.9122798443,1.2690231120,0.2379353842,-0.0280812174,500.4610188802,-50.6364847819,165.5840098064
1.9149978161,-1.0888870443,0.3097127279,-0.0280812174,500.4610188802,-50.6364847819,165.5840098064
1.9176399708,-1.0888870443,0.3097127279,-0.0280812174,496.5547688802,17.2956441244,201.5489756267
1.9202198982,-1.0888870443,0.3097127279,-0.0280812174,498.4621175130,17.2956441244,201.5489756267
1.9230079651,0.9111129557,-1.6399943034,0.7990672200,498.4621175130,84.4800923666,210.5516611736
1.9255847931,0.8920699870,-1.6399943034,0.7990672200,376.7732747396,84.4800923666,210.5516611736
1.9285418987,0.8920699870,-1.6399943034,0.7990672200,56.4607747396,121.7725728353,238.8872324626
1.9312489033,0.8920699870,-1.6399943034,0.7990672200,57.0100911458,121.7725728353,238.8872324626
1.9339640141,-0.4160354817,-5.7010294596,0.4587351888,-220.3336588542,123.0695699056,214.8088633220
1.9366848469,-0.4160354817,-5.7010294596,0.4587351888,-221.7069498698,123.0695699056,214.8088633220
1.9393908978,-0.4160354817,-5.7010294596,0.4587351888,-420.9256998698,130.1801656087,233.4551035564
1.9421069622,-0.4160354817,-5.7010294596,0.0837351888,-422.2532145182,130.1801656087,233.4551035564
1.9448149204,-0.2529495443,-2.1360880534,0.0402781576,-492.5657145182,119.4837544759,219.8442637126
1.9475378990,-0.2529495443,-2.1360880534,0.0402781576,-493.1608072917,119.4837544759,219.8442637126
1.9502518177,-0.2529495443,-2.1360880534,0.0402781576,-477.5358072917,102.6075337728,174.9681650798
1.9529650211,-0.2529495443,-0.8157755534,0.7951609700,-475.3843180339,102.6075337728,174.9681650798
1.9556739330,0.8866988933,-0.8157755534,0.7951609700,-475.3843180339,71.7695210775,129.7105967204
1.9582660198,0.8866988933,-0.8157755534,0.7951609700,-422.3142496745,71.7695210775,129.7105967204
1.9608438015,0.8866988933,-0.8157755534,0.7951609700,-422.3142496745,71.7695210775,102.9161631267
1.9634289742,0.5116988933,-1.0398966471,0.9157664388,-370.1139322917,14.7169087728,102.9161631267
1.9661738873,0.4628707683,-1.0398966471,0.9157664388,-370.1139322917,14.7169087728,70.1402842204
1.9687500000,0.4628707683,-1.0398966471,0.9157664388,-322.9947916667,-7.2252298991,70.1402842204
1.9713318348,0.4628707683,-1.0398966471,0.9157664388,-322.9947916667,-7.2252298991,38.8902842204
1.9739038944,0.4462692057,-0.4471232096,0.0798289388,-261.7460123698,-27.6109720866,37.8984629314
1.9765977859,0.4462692057,-0.4471232096,0.0798289388,-261.7460123698,-27.6109720866,37.8984629314
1.9791769981,0.4462692057,-0.4471232096,0.0798289388,-188.6869303386,-37.0714213053,9.8680674236
1.9817559719,0.4462692057,-0.4471232096,0.0798289388,-188.6869303386,-37.0714213053,9.8680674236
1.9843389988,0.4467574870,-0.3621622721,-0.1057179362,-120.2207438151,-39.2839457194,-21.2598622640
1.9871029854,0.4467574870,-0.3621622721,-0.1057179362,-120.2207438151,-39.2839457194,-21.2598622640
1.9899048805,0.4467574870,-0.3621622721,-0.1057179362,-71.6520182292,-38.7193705241,-49.5038808186
1.9927129745,0.4467574870,-0.3621622721,0.0192820638,-71.6520182292,-38.7193705241,-49.5038808186
1.9953029156,0.4877731120,-0.2942911784,0.0842234700,-37.7164713542,-39.1313578288,-70.6983388264
1.9980499744,0.4877731120,-0.2942911784,0.0842234700,-37.7164713542,-39.1313578288,-70.6983388264
2.0007247925,0.4877731120,-0.2942911784,0.0842234700,-12.9056803386,-37.9564310710,-82.0661366780
2.0039048195,0.3964645183,-0.2610880534,-0.0075734050,-12.9056803386,-37.9564310710,-85.9723866780
2.0065109730,0.3964645183,-0.2610880534,-0.0075734050,-2.2855631510,-37.8038431803,-86.6285146077
2.0090858936,0.3964645183,-0.2610880534,-0.0075734050,-2.2855631510,-37.8038431803,-86.6285146077
2.0116558075,0.3964645183,-0.2610880534,-0.0075734050,1.8648274740,-38.6888529460,-84.0040028890
2.0142250061,0.4286910807,-0.2723185221,-0.1853077800,1.8648274740,-38.6888529460,-84.0040028890
2.0168428421,0.4286910807,-0.2723185221,-0.1853077800,5.1607259114,-38.4447123210,-74.7724355061
2.0194129944,0.4286910807,-0.2723185221,-0.1853077800,5.1607259114,-38.4447123210,-74.7724355061
2.0219838619,0.4286910807,-0.2723185221,-0.1853077800,7.9530843099,-35.3776957194,-65.3272450764
2.0245490074,0.4282027995,-0.2620646158,-0.3015187174,7.9530843099,-35.3776957194,-65.3272450764
2.0271368027,0.4282027995,-0.2620646158,-0.3015187174,10.6996663411,-30.6016947428,-58.4760487874
2.0298178196,0.4282027995,-0.2620646158,-0.3015187174,10.6996663411,-30.6016947428,-58.4760487874
2.0323917866,0.4282027995,-0.2620646158,-0.3015187174,15.9792073568,-25.2458597819,-51.4417470296
2.0349647999,0.5810348307,-0.2630411784,-0.3566944987,15.9792073568,-25.2458597819,-51.4417470296
2.0376729965,0.5810348307,-0.2630411784,-0.3566944987,20.6331380208,-20.4240824381,-44.3921864827
2.0402488708,0.5810348307,-0.2630411784,-0.3566944987,20.6331380208,-20.4240824381,-44.3921864827
2.0428237915,0.5810348307,-0.2630411784,-0.3566944987,20.6331380208,-15.0987650553,-37.5715077718
2.0453908443,0.6757613933,-0.2874552408,-0.3024952800,30.2919514974,-15.0987650553,-37.5715077718
2.0481288433,0.6757613933,-0.2874552408,-0.3024952800,30.2919514974,-15.0987650553,-35.2216542561
2.0507059097,0.6757613933,-0.2874552408,-0.3024952800,42.4684651693,-15.1140238444,-35.2216542561
2.0532839298,0.6757613933,-0.2874552408,-0.1774952800,42.4684651693,-15.1140238444,-37.5715077718
2.0558619499,0.6591598307,-0.2957560221,-0.2502491862,60.0313313802,-14.8698832194,-37.5715077718
2.0585319996,0.6591598307,-0.2957560221,-0.2502491862,60.0313313802,-14.8698832194,-40.6995595296
2.0611038208,0.6591598307,-0.2957560221,-0.2502491862,77.6247151693,-14.3358256022,-40.6995595296
2.0636749268,0.6591598307,-0.2957560221,-0.2932179362,77.6247151693,-14.3358256022,-40.6995595296
2.0662839413,0.6386520183,-0.4393107096,-0.2932179362,90.7472737630,-16.2431742350,-44.4074452718
2.0688598156,0.6386520183,-0.4393107096,-0.2932179362,90.7472737630,-16.2431742350,-44.4074452718
2.0714290142,0.6386520183,-0.4393107096,-0.2932179362,95.9962972005,-17.6317240397,-47.8254140218
2.0740048885,0.6386520183,-0.4393107096,-0.3635304362,95.9962972005,-17.6317240397,-47.8254140218
2.0766668320,0.6342574870,-0.4754435221,-0.3635304362,96.0878499349,-17.7690531413,-50.6177724202
2.0793747902,0.6342574870,-0.4754435221,-0.3635304362,96.0878499349,-17.7690531413,-50.6177724202
2.0820848942,0.6342574870,-0.4754435221,-0.3635304362,92.8987630208,-16.4110209147,-51.7926991780
2.0847918987,0.6357223307,-0.3963419596,-0.3278859050,92.8987630208,-16.4110209147,-51.7926991780
2.0875120163,0.6357223307,-0.3963419596,-0.3278859050,86.0170491536,-14.4578959147,-51.0450185140
2.0902190208,0.6357223307,-0.3963419596,-0.3278859050,86.0170491536,-14.4578959147,-51.0450185140
2.0930368900,0.6357223307,-0.3963419596,-0.3278859050,74.2067464193,-11.6197611491,-49.4123280843
2.0957498550,0.5722457683,-0.3382364908,-0.2023976237,74.2067464193,-11.6197611491,-49.4123280843
2.0984749794,0.5722457683,-0.3382364908,-0.2023976237,56.7201741536,-7.8203226725,-46.3147939046
2.1011757851,0.5722457683,-0.3382364908,-0.2023976237,56.7201741536,-7.8203226725,-46.3147939046
2.1038827896,0.5722457683,-0.3382364908,-0.2023976237,36.9600423177,-3.4868265788,-43.5071767171
2.1065759659,0.5063277995,-0.3074747721,-0.1335499674,36.9600423177,-3.4868265788,-43.5071767171
2.1091527939,0.5063277995,-0.3074747721,-0.1335499674,17.9323323568,0.7093404134,-41.1573232014
2.1117269993,0.5063277995,-0.3074747721,-0.1335499674,17.9323323568,0.7093404134,-41.1573232014
2.1144418716,0.5063277995,-0.3074747721,-0.1228077800,-2.0261637370,4.3714497884,-36.2592519124
2.1173138618,0.4609176433,-0.2322794596,-0.1228077800,-2.0261637370,4.3714497884,-36.2592519124
2.1198818684,0.4609176433,-0.2322794596,-0.1228077800,-19.8026529948,8.0183003744,-32.1698964436
2.1224548817,0.4609176433,-0.2322794596,-0.1228077800,-19.8026529948,8.0183003744,-32.1698964436
2.1250228882,0.4609176433,-0.0745646158,-0.1296437174,-33.3066813151,11.5430806478,-30.5524648030
2.1276409626,0.4648238933,-0.0745646158,-0.1296437174,-33.3066813151,11.5430806478,-30.5524648030
2.1302127838,0.4648238933,-0.0745646158,-0.1296437174,-42.1872965495,13.0689595540,-28.8587392171
2.1327869892,0.4648238933,-0.0745646158,-0.1296437174,-42.1872965495,13.0689595540,-28.8587392171
2.1353609562,0.4897262370,0.0699666342,-0.1022999674,-46.0935465495,13.0231831869,-28.9502919514
2.1379837990,0.4897262370,0.0699666342,-0.1022999674,-44.5829264323,13.0231831869,-28.9502919514
2.1405589581,0.4897262370,0.0699666342,-0.1022999674,-44.5829264323,13.0231831869,-29.2554677327
2.1431338787,0.4897262370,0.0699666342,-0.1022999674,-42.8586832682,11.7719624837,-29.2554677327
2.1457068920,0.5409957683,0.1393025716,-0.0886280924,-42.8586832682,11.7719624837,-29.2402089436
2.1483299732,0.5409957683,0.1393025716,-0.0886280924,-37.3197428386,10.4139302572,-29.2402089436
2.1509058475,0.5409957683,0.1393025716,-0.0886280924,-37.3197428386,10.4139302572,-29.2402089436
2.1534769535,0.5409957683,0.1393025716,-0.0886280924,-27.8898111979,7.7589009603,-28.7214101155
2.1562039852,0.5698043620,0.1031697592,-0.1003468424,-27.8898111979,7.7589009603,-28.7214101155
2.1587769985,0.5698043620,0.1031697592,-0.1003468424,-16.3846842448,3.5627339681,-27.0734608968
2.1613438129,0.5698043620,0.1031697592,-0.1003468424,-16.3846842448,3.5627339681,-27.0734608968
2.1639099121,0.5698043620,0.1031697592,-0.1003468424,-4.9253336589,0.7398579916,-27.5770009358
2.1665909290,0.5820113933,-0.0389200846,-0.0988819987,-4.9253336589,0.7398579916,-27.5770009358
2.1691629887,0.5820113933,-0.0389200846,-0.0988819987,6.1983235677,-2.6781107584,-29.8810780843
2.1717278957,0.5820113933,-0.0389200846,-0.0988819987,6.1983235677,-2.6781107584,-29.8810780843
2.1742999554,0.5820113933,-0.0389200846,-0.0988819987,19.0614827474,-4.9516703288,-31.9257558186
2.1770398617,0.6025192057,-0.1497599284,-0.0944874674,19.0614827474,-4.9516703288,-31.9257558186
2.1797409058,0.6025192057,-0.1497599284,-0.0944874674,32.8096516927,-6.5233256022,-34.0314687093
2.1824429035,0.6025192057,-0.1497599284,-0.0944874674,32.8096516927,-6.5233256022,-34.0314687093
2.1851530075,0.6025192057,-0.2747599284,-0.1223194987,43.8570149740,-7.4693705241,-37.3731435140
2.1878719330,0.6249801433,-0.2513224284,-0.1223194987,43.8570149740,-7.4693705241,-37.3731435140
2.1905779839,0.6249801433,-0.2513224284,-0.1223194987,54.8280843099,-6.3249613444,-39.8450673421
2.1932837963,0.6249801433,-0.2513224284,-0.1223194987,54.8280843099,-6.3249613444,-39.8450673421
2.1959979534,0.5732223307,-0.2772013346,-0.1359913737,63.1288655599,-3.3647562663,-41.0810292561
2.1987018585,0.5732223307,-0.2772013346,-0.1359913737,63.1288655599,-3.3647562663,-41.0810292561
2.2014009953,0.5732223307,-0.2772013346,-0.1359913737,69.9342854818,-0.2214457194,-40.5011952718
2.2041118145,0.5732223307,-0.2772013346,-0.1359913737,69.9342854818,-0.2214457194,-40.5011952718
2.2068297863,0.5239059245,-0.1326700846,-0.1164601237,76.9991048177,2.6472066244,-38.6243642171
2.2094068527,0.5239059245,-0.1326700846,-0.1164601237,76.9991048177,2.6472066244,-38.6243642171
2.2119870186,0.5239059245,-0.1326700846,-0.1164601237,84.6742757161,5.7142232259,-35.8625233968
2.2145619392,0.5239059245,-0.1326700846,-0.1164601237,84.6742757161,5.7142232259,-35.8625233968
2.2172629833,0.4648238933,0.0118611654,-0.0988819987,89.9385579427,8.1098531087,-31.7731679280
2.2200789452,0.4648238933,0.0118611654,-0.0988819987,89.9385579427,8.1098531087,-31.7731679280
2.2227849960,0.4648238933,0.0118611654,-0.0988819987,93.5701497396,10.9937642416,-26.6309560140
2.2254898548,0.4648238933,0.1368611654,-0.0598194987,93.5701497396,10.9937642416,-26.6309560140
2.2282018661,0.4325973307,0.1197713216,-0.0598194987,95.9962972005,14.7016499837,-20.5884755452
2.2309079170,0.4325973307,0.1197713216,-0.0598194987,95.9962972005,14.7016499837,-20.5884755452
2.2338089943,0.4325973307,0.1197713216,-0.0598194987,98.1172688802,16.7005513509,-13.6915028890
2.2368929386,0.4433395183,0.1266072592,-0.0134327800,98.1172688802,16.7005513509,-13.6915028890
2.2396090031,0.4433395183,0.1266072592,-0.0134327800,100.7875569661,17.6771138509,-7.0691884358
2.2423179150,0.4433395183,0.1266072592,-0.0134327800,100.7875569661,17.6771138509,-7.0691884358
2.2450268269,0.4433395183,0.1266072592,-0.0134327800,100.5739339193,19.0961812337,-2.4152577718
2.2477488518,0.4570113933,-0.0218302408,0.0822703450,100.5739339193,19.0961812337,-2.4152577718
2.2504498959,0.4570113933,-0.0218302408,0.0822703450,94.4704182943,19.5234273275,0.2855478923
2.2531518936,0.4570113933,-0.0218302408,0.0822703450,94.4704182943,19.5234273275,0.2855478923
2.2558619976,0.4570113933,-0.2718302408,0.0891062826,86.3069661458,18.5468648275,0.0566660564
2.2584547997,0.4677535807,-0.2752482096,0.0891062826,86.3069661458,18.5468648275,0.0566660564
2.2610299587,0.4677535807,-0.2752482096,0.0891062826,81.0884602864,16.7158101400,-1.9574940999
2.2636008263,0.4677535807,-0.2752482096,0.0891062826,81.0884602864,16.7158101400,-1.9574940999
2.2662467957,0.4677535807,-0.3426310221,0.0036570638,76.8312581380,13.7556050619,-5.3296864827
2.2688219547,0.5248824870,-0.3426310221,0.0036570638,76.8312581380,13.7556050619,-5.3296864827
2.2713940144,0.5248824870,-0.3426310221,0.0036570638,76.8312581380,10.2155659994,-9.0986073811
2.2739648819,0.5248824870,-0.3426310221,0.0036570638,70.3920491536,10.2155659994,-9.0986073811
2.2765347958,0.6498824870,-0.3133341471,-0.0622609050,70.3920491536,10.2155659994,-13.3558095296
2.2791149616,0.6093551433,-0.3133341471,-0.0622609050,63.2356770833,7.4232076009,-13.3558095296
2.2816889286,0.6093551433,-0.3133341471,-0.0622609050,63.2356770833,7.4232076009,-17.2620595296
2.2843708992,0.6093551433,-0.3133341471,-0.0622609050,57.2389729818,4.4630025228,-17.0179189046
2.2871158123,0.6152145183,-0.2317911784,-0.0910694987,57.2389729818,4.4630025228,-20.9241689046
2.2896909714,0.6152145183,-0.2317911784,-0.0910694987,54.2787679036,1.3959859212,-20.1001942952
2.2922689915,0.6152145183,-0.2317911784,-0.0910694987,54.2787679036,1.3959859212,-20.1001942952
2.2949309349,0.6152145183,-0.2317911784,-0.0910694987,55.0722249349,-1.7168070475,-23.2587636311
2.2976338863,0.5859176433,-0.2000528971,-0.0266163737,55.0722249349,-1.7168070475,-23.2587636311
2.3002128601,0.5859176433,-0.2000528971,-0.0266163737,61.3130696614,-4.5396830241,-24.6778310140
2.3027880192,0.5859176433,-0.2000528971,-0.0266163737,61.3130696614,-4.5396830241,-24.6778310140
2.3053648472,0.5859176433,-0.2000528971,-0.0266163737,63.4798177083,-4.1887308756,-23.6097157796
2.3081939220,0.4804488933,-0.2801310221,-0.0490773112,63.4798177083,-4.1887308756,-23.6097157796
2.3108630180,0.4804488933,-0.2801310221,-0.0490773112,51.3338216146,-2.5560404460,-20.6189931233
2.3137388229,0.4804488933,-0.2801310221,-0.0490773112,51.3338216146,-2.5560404460,-20.6189931233
2.3164029121,0.4804488933,-0.4051310221,-0.1501515300,29.3306477864,-1.2895609538,-15.5835927327
2.3189888000,0.4316207683,-0.3387247721,-0.1501515300,29.3306477864,-1.2895609538,-15.5835927327
2.3215568066,0.4316207683,-0.3387247721,-0.1501515300,8.3040364583,0.3126118978,-8.6103261311
2.3241209984,0.4316207683,-0.3387247721,-0.1501515300,8.3040364583,0.3126118978,-8.6103261311
2.3266940117,0.4316207683,-0.3274943034,-0.1071827800,-10.5863444010,2.1894429525,-1.4539540608
2.3292639256,0.3959762370,-0.3274943034,-0.1071827800,-10.5863444010,2.1894429525,-1.4539540608
2.3318338394,0.3959762370,-0.3274943034,-0.1071827800,-26.7148844401,3.5779927572,4.4817148845
2.3343977928,0.3959762370,-0.3274943034,-0.1071827800,-26.7148844401,3.5779927572,4.4817148845
2.3370099068,0.3959762370,-0.3279825846,-0.0402882487,-39.8832194010,5.6531880697,8.8915049236
2.3395810127,0.3681442057,-0.3279825846,-0.0402882487,-39.8832194010,5.6531880697,8.8915049236
2.3421528339,0.3681442057,-0.3279825846,-0.0402882487,-39.8832194010,8.6439107259,12.0348154704
2.3447189331,0.3681442057,-0.3279825846,-0.0402882487,-50.1829020182,8.6439107259,12.0348154704
2.3474040031,0.3271285807,-0.3523966471,-0.0783741862,-50.1829020182,12.5501607259,13.0571543376
2.3499829769,0.3271285807,-0.3523966471,-0.0783741862,-59.9180094401,11.9703267416,13.0571543376
2.3525519371,0.3271285807,-0.3523966471,-0.0783741862,-59.9180094401,11.9703267416,11.1192881267
2.3551278114,0.3271285807,-0.3523966471,-0.0783741862,-67.4863688151,14.5338033040,11.1192881267
2.3577599525,0.2997848307,-0.4168497721,-0.0681202800,-67.4863688151,14.5338033040,7.2130381267
2.3603398800,0.2997848307,-0.4168497721,-0.0681202800,-67.3642985026,15.6629536947,6.0991465251
2.3629179001,0.2997848307,-0.4168497721,-0.0681202800,-67.3642985026,15.6629536947,6.0991465251
2.3654878139,0.2997848307,-0.4168497721,-0.0681202800,-66.4487711589,18.2111714681,-2.1253407796
2.3682668209,0.3451949870,-0.4998575846,-0.1677296550,-66.4487711589,18.2111714681,-2.1253407796
2.3709750175,0.3451949870,-0.4998575846,-0.1677296550,-73.2847086589,20.7899068197,-12.6844228108
2.3736839294,0.3451949870,-0.4998575846,-0.1677296550,-73.2847086589,20.7899068197,-12.6844228108
2.3763949871,0.3451949870,-0.4998575846,-0.1677296550,-82.6993815104,20.1948140462,-22.5416005452
2.3791029453,0.4736129557,-0.3748575846,-0.1823780924,-82.6993815104,20.1948140462,-22.5416005452
2.3818128109,0.4736129557,-0.3748575846,-0.1823780924,-84.6677652995,20.6373189290,-31.5442860921
2.3845210075,0.4736129557,-0.3748575846,-0.1823780924,-84.6677652995,20.6373189290,-31.5442860921
2.3872749805,0.4736129557,-0.1028849284,0.0148875326,-76.1686197917,20.6525777181,-40.2723134358
2.3899888992,0.5361129557,-0.1028849284,0.0148875326,-76.1686197917,20.6525777181,-40.2723134358
2.3926978111,0.5361129557,-0.1028849284,0.0148875326,-60.6046549479,19.1114400228,-46.1164296468
2.3953998089,0.5361129557,-0.1028849284,0.0148875326,-60.6046549479,19.1114400228,-46.1164296468
2.3981428146,0.4399215495,0.2457478842,0.0778758138,-41.0734049479,16.3343404134,-47.6575673421
2.4007248878,0.4399215495,0.2457478842,0.0778758138,-41.0734049479,16.3343404134,-47.6575673421
2.4033038616,0.4399215495,0.2457478842,0.0778758138,-17.5290934245,13.6793111166,-43.4156239827
2.4058849812,0.4399215495,0.2457478842,0.0778758138,-17.5290934245,13.6793111166,-43.4156239827
2.4086198807,0.3105270183,0.5470174154,0.0925242513,10.4555257161,10.3223775228,-34.8707021077
2.4123589993,0.3105270183,0.5470174154,0.0925242513,10.4555257161,10.3223775228,-23.6097157796
2.4149320126,0.3105270183,0.5470174154,0.0925242513,39.8439534505,7.0264790853,-23.6097157796
2.4175128937,0.3105270183,0.5182088216,-0.0002491862,39.8439534505,7.0264790853,-23.6097157796
2.4200878143,0.2319137370,0.5182088216,-0.0002491862,59.3904622396,4.3714497884,-10.8381093343
2.4226570129,0.2319137370,0.5182088216,-0.0002491862,59.3904622396,4.3714497884,-10.8381093343
2.4252309799,0.2319137370,0.5182088216,-0.0002491862,69.8122151693,3.5016988119,2.3760019939
2.4278078079,0.2319137370,0.2706502279,-0.0637257487,69.8122151693,3.5016988119,2.3760019939
2.4303748608,0.1386520183,0.2706502279,-0.0637257487,77.3042805990,3.5169576009,16.2157236736
2.4329428673,0.1386520183,0.2706502279,-0.0637257487,77.3042805990,3.5169576009,16.2157236736
2.4355130196,0.1386520183,0.2706502279,-0.0637257487,75.8394368490,5.9431050619,30.5437266032
2.4381308556,0.1386520183,0.0108846029,-0.2194874674,75.8394368490,5.9431050619,30.5437266032
2.4407029152,0.0981246745,0.0108846029,-0.2194874674,58.5359700521,9.8035786947,48.0608164470
2.4432718754,0.0981246745,0.0108846029,-0.2194874674,58.5359700521,9.8035786947,48.0608164470
2.4458489418,0.0981246745,0.0108846029,-0.2194874674,28.6287434896,13.8624165853,70.9184824626
2.4484288692,0.0370895183,-0.0599161784,-0.2136280924,28.6287434896,13.8624165853,70.9184824626
2.4509999752,0.0370895183,-0.0599161784,-0.2136280924,28.6287434896,19.1877339681,95.8666025798
2.4535779953,0.0370895183,-0.0599161784,-0.2136280924,-14.2179361979,19.1877339681,95.8666025798
2.4563679695,0.0370895183,-0.0599161784,-0.2136280924,-14.2179361979,23.0939839681,120.6926523845
2.4589509964,-0.0566604817,-0.0574747721,0.0700633138,-64.1752115886,24.4672749837,120.6926523845
2.4615259171,-0.0566604817,-0.0574747721,0.0700633138,-64.1752115886,24.4672749837,142.1007334392
2.4640979767,-0.0566604817,-0.0574747721,0.0700633138,-107.8763834636,28.0073140462,142.1007334392
2.4668068886,-0.0566604817,-0.0574747721,0.0700633138,-107.8763834636,28.0073140462,159.6178232829
2.4693808556,-0.0132034505,0.1056111654,0.3400828450,-141.5830485026,29.2890523275,159.6178232829
2.4719488621,-0.0132034505,0.1056111654,0.3400828450,-141.5830485026,29.2890523275,159.6178232829
2.4745287895,-0.0132034505,0.1056111654,0.3400828450,-155.1328531901,31.1506245931,182.7959238689
2.4772229195,-0.0132034505,0.1056111654,0.3400828450,-155.1328531901,31.1506245931,182.7959238689
2.4798069000,0.4648238933,6.9142049154,2.5104930013,11.5388997396,0.9382222494,238.7041269939
2.4823729992,0.4648238933,6.9142049154,2.5104930013,11.5388997396,0.9382222494,238.7041269939
2.4849419594,0.4648238933,6.9142049154,2.5104930013,323.3217366536,46.8671773275,271.9682871501
2.4875288010,0.4648238933,6.9142049154,2.5104930013,323.3217366536,46.8671773275,271.9682871501
2.4901018143,-4.0991409505,7.2130330404,-3.0061085612,-264.0653483073,245.2314351400,382.6402842204
2.4926688671,-4.0991409505,7.2130330404,-3.0061085612,-264.0653483073,245.2314351400,382.6402842204
2.4952437878,-4.0991409505,7.2130330404,-3.0061085612,173.9534505208,2.6319478353,332.6677500407
2.4979319572,-4.0991409505,7.2130330404,1.2951609700,173.9534505208,2.6319478353,332.6677500407
2.5006408691,-8.5561722005,-5.5022989908,1.2951609700,248.0196126302,-6.6301371256,251.9945322673
2.5032207966,-8.5561722005,-5.5022989908,1.2951609700,248.0196126302,-6.6301371256,251.9945322673
2.5057938099,-8.5561722005,-5.5022989908,1.2951609700,-145.3519694010,-68.8402201334,105.8611094157
2.5086050034,-8.5561722005,-7.2796427408,2.2131297200,-145.3519694010,-68.8402201334,105.8611094157
2.5127518177,-3.8730667317,-7.2796427408,2.2131297200,-63.0002848307,-63.8658548991,129.1765391032
2.5153269768,-3.8730667317,-7.2796427408,2.2131297200,-63.0002848307,-63.8658548991,129.1765391032
2.5179708004,-3.8730667317,-7.2796427408,0.8381297200,71.8111165364,14.2591451009,245.9978281657
2.5205388069,-1.7104690755,0.9234822592,0.8532664388,71.8111165364,14.2591451009,245.9978281657
2.5231108665,-1.7104690755,0.9234822592,0.8532664388,-30.5143229167,-28.6943461100,263.2250010173
2.5256788731,-1.7104690755,0.9234822592,0.8532664388,-30.5143229167,-28.6943461100,263.2250010173
2.5282599926,-1.7104690755,0.9234822592,-1.7995655924,-90.8628336589,-61.0277201334,249.2937266032
2.5308268070,-0.7470901693,3.3785603842,-1.7995655924,-90.8628336589,-61.0277201334,249.2937266032
2.5333969593,-0.7470901693,3.3785603842,-1.7995655924,-35.0156656901,-74.4401957194,192.2563730876
2.5360009670,-0.7470901693,3.3785603842,-1.7995655924,-35.0156656901,-74.4401957194,192.2563730876
2.5386559963,-0.7470901693,0.1285603842,-1.7468312174,24.0968831380,-70.5797220866,132.8233896892
2.5413358212,0.6733199870,0.0665486654,-1.7468312174,24.0968831380,-70.5797220866,132.8233896892
2.5439109802,0.6733199870,0.0665486654,-1.7468312174,17.0168050130,-43.9378763834,105.5254160564
2.5465478897,0.6733199870,0.0665486654,-1.7468312174,17.0168050130,-43.9378763834,105.5254160564
2.5491240025,0.6733199870,0.8541463216,-1.4909718424,1.3918050130,-17.1129252116,68.2329355876
2.5516989231,0.6713668620,0.8541463216,-1.4909718424,-0.1645914714,-17.1129252116,68.2329355876
2.5542709827,0.6713668620,0.8541463216,-1.4909718424,-0.1645914714,-1.4879252116,37.8984629314
2.5569570065,0.6713668620,0.8541463216,-1.4909718424,-29.1868082682,-0.0688578288,37.8984629314
2.5595338345,-0.3149612630,0.3863728842,-0.3864796550,-29.1868082682,-0.0688578288,20.8696543376
2.5621049404,-0.3149612630,0.3863728842,-0.3864796550,-67.5779215495,2.9676411947,20.8696543376
2.5646789074,-0.3149612630,0.3863728842,-0.3864796550,-67.5779215495,2.9676411947,12.1874033610
2.5674169064,-0.3149612630,0.3863728842,-0.3864796550,-89.0928141276,7.7894185384,12.1874033610
2.5701220036,-0.0581253255,0.3316853842,1.0353953450,-89.0928141276,7.7894185384,10.0359141032
2.5728228092,-0.0581253255,0.3316853842,1.0353953450,-79.4034830729,-1.7015482584,10.0359141032
2.5755219460,-0.0581253255,0.3316853842,1.0353953450,-79.4034830729,-1.7015482584,-1.4844716390
2.5782678127,-0.0581253255,0.3316853842,1.0353953450,-64.4651285807,-15.1903177897,-1.4844716390
2.5809738636,-0.1777542317,0.4073689779,0.7136180013,-64.4651285807,-15.1903177897,-17.6893056233
2.5836799145,-0.1777542317,0.4073689779,0.7136180013,-37.7469889323,-9.8802591960,-17.6893056233
2.5863759518,-0.1777542317,0.4073689779,0.7136180013,-37.7469889323,-9.8802591960,-29.4080556233
2.5889489651,-0.1777542317,0.4073689779,-0.1955616862,-17.5290934245,-1.6862894694,-27.6532948811
2.5915207863,-0.7549026693,0.3775838216,-0.1955616862,-17.5290934245,-1.6862894694,-27.6532948811
2.5940949917,-0.7549026693,0.3775838216,-0.1955616862,-15.6064860026,6.2482808431,-33.0091298421
2.5966989994,-0.7549026693,0.3775838216,-0.1955616862,-15.6064860026,6.2482808431,-33.0091298421
2.5994088650,-0.7549026693,0.3609822592,-0.4392140300,-17.8342692057,13.3741353353,-33.5431874593
2.6021389961,-0.3877151693,0.3609822592,-0.4392140300,-17.8342692057,13.3741353353,-33.5431874593
2.6048278809,-0.3877151693,0.3609822592,-0.4392140300,-22.1067301432,17.0362447103,-35.4657948811
2.6076037884,-0.3877151693,0.3609822592,-0.4392140300,-22.1067301432,17.0362447103,-35.4657948811
2.6102728844,0.0366012370,0.1544392904,-0.2004444987,-26.0282389323,16.5937398275,-35.2826894124
2.6131958961,0.0366012370,0.1544392904,-0.2004444987,-26.0282389323,16.5937398275,-35.2826894124
2.6159110069,0.0366012370,0.1544392904,-0.2004444987,-29.4004313151,16.8531392416,-33.7262929280
2.6186618805,0.0366012370,0.1544392904,-0.2004444987,-29.4004313151,16.8531392416,-33.7262929280
2.6213698387,0.0414840495,0.2828572592,-0.0090382487,-31.8723551432,17.6008199056,-34.8554433186
2.6240758896,0.0414840495,0.2828572592,-0.0090382487,-31.8723551432,17.6008199056,-34.8554433186
2.6267888546,0.0414840495,0.2828572592,-0.0090382487,-31.8113199870,16.3190816244,-39.9213612874
2.6294949055,0.0414840495,0.2828572592,0.0183055013,-31.8113199870,16.3190816244,-39.9213612874
2.6322028637,-0.2500198567,0.2633260092,0.0183055013,-28.0271402995,14.4727681478,-45.1093495686
2.6349198818,-0.2500198567,0.2633260092,0.0183055013,-28.0271402995,14.4727681478,-45.1093495686
2.6375918388,-0.2500198567,0.2633260092,0.0183055013,-21.3895670573,11.8635152181,-49.1071523030
2.6401679516,-0.2500198567,0.0792439779,-0.0280812174,-21.3895670573,11.8635152181,-49.1071523030
2.6427488327,-0.2920120443,0.0792439779,-0.0280812174,-14.2331949870,8.4913228353,-51.7926991780
2.6453249454,-0.2920120443,0.0792439779,-0.0280812174,-14.2331949870,8.4913228353,-51.7926991780
2.6479589939,-0.2920120443,0.0792439779,-0.0280812174,-10.0065104167,4.9055074056,-52.4793446858
2.6505339146,-0.1938675130,0.0089314779,-0.0612843424,-10.0065104167,4.9055074056,-52.4793446858
2.6531069279,-0.1938675130,0.0089314779,-0.0612843424,-10.3422037760,2.4030659994,-51.8537343343
2.6556909084,-0.1938675130,0.0089314779,-0.0612843424,-10.3422037760,2.4030659994,-51.8537343343
2.6583077908,-0.1938675130,0.0089314779,-0.0612843424,-11.3340250651,-0.2214457194,-52.5861562093
2.6608839035,-0.1455276693,0.1666463216,-0.0466359050,-11.3340250651,-0.2214457194,-52.5861562093
2.6634638309,-0.1455276693,0.1666463216,-0.0466359050,-11.3340250651,-2.0067240397,-54.0662587483
2.6661019325,-0.1455276693,0.1666463216,-0.0466359050,-11.5629069010,-2.0067240397,-54.0662587483
2.6689419746,-0.1455276693,0.1666463216,-0.0466359050,-11.2882486979,-3.3800150553,-56.0956776936
2.6716477871,-0.1626175130,0.1866658529,-0.0397999674,-11.2882486979,-3.3800150553,-56.0956776936
2.6743559837,-0.1626175130,0.1866658529,-0.0397999674,-11.2882486979,-2.8001810710,-58.4760487874
2.6770780087,-0.1626175130,0.1866658529,-0.0397999674,-10.1590983073,-2.8001810710,-58.4760487874
2.6797869205,-0.1626175130,0.1866658529,0.0183055013,-6.2528483073,-2.2356058756,-60.3376210530
2.6824920177,-0.1723831380,0.0602010092,0.0183055013,-7.9618326823,-2.2356058756,-60.3376210530
2.6852009296,-0.1723831380,0.0602010092,0.0183055013,-7.9618326823,-1.9304300944,-62.0466054280
2.6878228188,-0.1723831380,0.0602010092,0.0183055013,-6.8326822917,-1.9304300944,-62.0466054280
2.6903929710,-0.1723831380,0.0811971029,0.0651805013,-6.8326822917,-1.9304300944,-64.4117177327
2.6929619312,-0.1596878255,0.0811971029,0.0651805013,-5.5204264323,-2.1745707194,-64.4117177327
2.6955318451,-0.1596878255,0.0811971029,0.0651805013,-5.5204264323,-2.1745707194,-67.0209706624
2.6982839108,-0.1596878255,0.0811971029,0.0651805013,-3.7046305339,-2.1287943522,-67.0209706624
2.7009828091,-0.1342972005,0.2301228842,0.0358836263,-3.7046305339,-2.1287943522,-70.4847157796
2.7036869526,-0.1342972005,0.2301228842,0.0358836263,-2.3160807292,-2.2661234538,-70.4847157796
2.7064368725,-0.1342972005,0.2301228842,0.0358836263,-2.3160807292,-2.2661234538,-75.4743398030
2.7091429234,-0.1342972005,0.2301228842,0.0358836263,-0.1798502604,-1.4726664225,-75.4743398030
2.7118458748,-0.1425979817,0.2750447592,-0.0109913737,-0.1798502604,-1.4726664225,-80.5707753499
2.7145359516,-0.1425979817,0.2750447592,-0.0109913737,3.9400227864,-0.8470560710,-80.5707753499
2.7172529697,-0.1425979817,0.2750447592,-0.0109913737,3.9400227864,-0.8470560710,-85.8350575764
2.7199628353,-0.1425979817,0.2750447592,0.1140086263,8.9754231771,-1.4116312663,-85.8350575764
2.7229328156,-0.1577347005,0.2389119466,-0.0051319987,8.9754231771,-5.3178812663,-90.2143300374
2.7260549068,-0.1577347005,0.2389119466,-0.0051319987,14.2702229818,-2.4187113444,-90.2143300374
2.7286310196,-0.1577347005,0.2389119466,-0.0051319987,14.2702229818,-3.3189798991,-95.1886952718
2.7312068939,-0.1963089193,0.1534627279,0.0280711263,19.7481282552,-3.3189798991,-95.1886952718
2.7338960171,-0.1963089193,0.1534627279,0.0280711263,19.7481282552,-3.3189798991,-100.1325429280
2.7364978790,-0.1963089193,0.1534627279,0.0280711263,23.0135091146,-5.1958109538,-100.1325429280
2.7392079830,-0.1963089193,0.1534627279,0.0280711263,23.0135091146,-9.1020609538,-104.4660390218
2.7419228554,-0.2412307943,0.2013142904,-0.0056202800,24.1121419271,-6.9047953288,-104.4660390218
2.7446279526,-0.2412307943,0.2013142904,-0.0056202800,24.1121419271,-6.9047953288,-107.5940907796
2.7473537922,-0.2412307943,0.2013142904,-0.0056202800,25.3938802083,-8.5069681803,-107.5940907796
2.7500598431,-0.2412307943,0.2013142904,-0.0056202800,25.3938802083,-12.4132181803,-108.3875478108
2.7527718544,-0.3237503255,0.2804158529,-0.0495655924,26.2178548177,-10.0175882975,-108.3875478108
2.7554869652,-0.3237503255,0.2804158529,-0.0495655924,26.2178548177,-10.0175882975,-107.9297841390
2.7580869198,-0.3237503255,0.2804158529,-0.0495655924,29.7273763021,-10.8263041178,-107.9297841390
2.7606649399,-0.3237503255,0.2804158529,-0.1203663737,29.7273763021,-10.8263041178,-104.0235341390
2.7632489204,-0.2993362630,0.2018025716,-0.1203663737,33.1453450521,-11.0551859538,-103.3521474202
2.7658259869,-0.2993362630,0.2018025716,-0.1203663737,33.1453450521,-11.0551859538,-103.3521474202
2.7684199810,-0.2993362630,0.2018025716,-0.1203663737,28.5219319661,-12.0317484538,-94.9445546468
2.7710018158,-0.2993362630,0.0768025716,-0.1145069987,28.5219319661,-12.0317484538,-94.9445546468
2.7735779285,-0.2182815755,0.1725056966,-0.1145069987,20.2669270833,-11.9096781413,-83.5004628499
2.7763459682,-0.2182815755,0.1725056966,-0.1145069987,20.2669270833,-11.9096781413,-83.5004628499
2.7789249420,-0.2182815755,0.1725056966,-0.1145069987,12.5764973958,-8.8426615397,-72.3005116780
2.7814998627,-0.2182815755,0.0738728842,-0.1897023112,12.5764973958,-8.8426615397,-72.3005116780
2.7840797901,-0.2558792317,0.0738728842,-0.1897023112,2.4599202474,-6.4775492350,-61.2531483968
2.7867980003,-0.2558792317,0.0738728842,-0.1897023112,2.4599202474,-6.4775492350,-61.2531483968
2.7895028591,-0.2558792317,0.0738728842,-0.1897023112,-11.3645426432,-3.3952738444,-46.7115224202
2.7922039032,-0.4502151693,0.1978963216,-0.3508351237,-11.3645426432,-3.3952738444,-46.7115224202
2.7949140072,-0.4502151693,0.1978963216,-0.3508351237,-21.2980143229,5.4548238119,-21.9312489827
2.7977747917,-0.4502151693,0.1978963216,-0.3508351237,-21.2980143229,5.4548238119,-21.9312489827
2.8004798889,-0.4502151693,0.1978963216,-0.3508351237,-37.7622477214,15.1746724447,2.7727305095
2.8031818867,-0.5683792317,0.8468221029,-0.4890187174,-37.7622477214,15.1746724447,2.7727305095
2.8058907986,-0.5683792317,0.8468221029,-0.4890187174,-67.4405924479,19.9659322103,20.1677500407
2.8086009026,-0.5683792317,0.8468221029,-0.4890187174,-67.4405924479,19.9659322103,20.1677500407
2.8113198280,-0.5683792317,0.9718221029,-0.1916554362,-88.0552164714,25.3522847494,28.3922373454
2.8140249252,-0.3794143880,0.9996541342,-0.1916554362,-88.0552164714,25.3522847494,28.3922373454
2.8167428970,-0.3794143880,0.9996541342,-0.1916554362,-96.6916910807,30.7844136556,33.8701426189
2.8194589615,-0.3794143880,0.9996541342,-0.1916554362,-96.6916910807,30.7844136556,33.8701426189
2.8221678734,-0.0630081380,0.5333455404,-0.0739796550,-108.0747477214,33.8972066244,45.1006113689
2.8248798847,-0.0630081380,0.5333455404,-0.0739796550,-108.0747477214,33.8972066244,45.1006113689
2.8275218010,-0.0630081380,0.5333455404,-0.0739796550,-123.4403483073,36.2623189290,56.0869394939
2.8301010132,-0.0630081380,0.5333455404,-0.0739796550,-123.4403483073,36.2623189290,56.0869394939
2.8326838017,0.1215621745,0.0108846029,-0.1286671550,-133.0686442057,38.2612202962,61.9768320720
2.8352608681,0.1215621745,0.0108846029,-0.1286671550,-133.0686442057,38.2612202962,61.9768320720
2.8379499912,0.1215621745,0.0108846029,-0.1286671550,-133.8926188151,40.1685689290,64.1740976970
2.8406589031,0.1215621745,0.0108846029,-0.1286671550,-133.8926188151,40.1685689290,64.1740976970
2.8434398174,0.2739059245,-0.2527872721,-0.2102101237,-128.9335123698,41.1756490072,62.9533945720
2.8465979099,0.2739059245,-0.2527872721,-0.2102101237,-128.9335123698,41.1756490072,62.9533945720
2.8493130207,0.2739059245,-0.2527872721,-0.2102101237,-121.3041178386,41.7097066244,58.0705820720
2.8520228863,0.2739059245,-0.4139200846,-0.1814015300,-121.3041178386,41.7097066244,58.0705820720
2.8547329903,0.4194137370,-0.4139200846,-0.1814015300,-113.0948893229,42.3047993978,49.8918711345
2.8574478626,0.4194137370,-0.4139200846,-0.1814015300,-113.0948893229,42.3047993978,49.8918711345
2.8601579666,0.4194137370,-0.4139200846,-0.1814015300,-107.5101725260,42.1979878744,38.2036387126
2.8629808426,0.5190231120,-0.5394083658,0.0598094076,-107.5101725260,42.1979878744,38.2036387126
2.8656938076,0.5190231120,-0.5394083658,0.0598094076,-106.6709391276,36.4606831869,23.0364023845
2.8684558868,0.5190231120,-0.5394083658,0.0598094076,-106.6709391276,36.4606831869,23.0364023845
2.8711738586,0.5190231120,-0.5394083658,0.0598094076,-119.1831461589,31.8372701009,1.5367685954
2.8738789558,0.4570113933,-0.8397013346,0.1901805013,-119.1831461589,31.8372701009,1.5367685954
2.8765718937,0.4570113933,-0.8397013346,0.1901805013,-120.0986735026,38.5053609212,-18.8947499593
2.8791458607,0.4570113933,-0.8397013346,0.1901805013,-120.0986735026,38.5053609212,-18.8947499593
2.8817229271,0.4570113933,-0.8397013346,-0.1916554362,-106.1216227214,42.4116109212,-30.9949696858
2.8843019009,0.2348434245,-1.0423380534,-0.1916554362,-106.1216227214,42.4116109212,-30.9949696858
2.8868889809,0.2348434245,-1.0423380534,-0.1916554362,-106.6709391276,31.6999409994,-41.9660390218
2.8894758224,0.2348434245,-1.0423380534,-0.1916554362,-106.6709391276,31.6999409994,-41.9660390218
2.8920509815,0.2348434245,-1.0423380534,0.1491648763,-102.7646891276,21.5681050619,-51.0450185140
2.8946309090,0.2138473307,-0.6780802408,0.1491648763,-102.7341715495,21.5681050619,-51.0450185140
2.8973670006,0.2138473307,-0.6780802408,0.1491648763,-102.7341715495,21.5986226400,-59.4068349202
2.8999450207,0.2138473307,-0.6780802408,0.1491648763,-75.1310221354,21.5986226400,-59.4068349202
2.9025189877,0.2138473307,-0.6287638346,0.3615672200,-75.1310221354,17.6923726400,-64.0302480061
2.9050989151,-0.1235550130,-0.6287638346,0.3615672200,-46.2461344401,20.5762837728,-64.0302480061
2.9077849388,-0.1235550130,-0.6287638346,0.3615672200,-46.2461344401,20.5762837728,-64.6405995686
2.9105238914,-0.1235550130,-0.6287638346,0.3615672200,-34.7715250651,11.9703267416,-64.6405995686
2.9130969048,-0.2241409505,-0.1790568034,0.5993601888,-34.7715250651,11.9703267416,-60.7343495686
2.9156699181,-0.2241409505,-0.1790568034,0.5993601888,-33.8254801432,0.7703755697,-61.4515126546
2.9183399677,-0.2241409505,-0.1790568034,0.5993601888,-33.8254801432,0.7703755697,-61.4515126546
2.9209129810,-0.2241409505,-0.1790568034,0.5993601888,-31.5061442057,-9.2088724772,-52.7540028890
2.9241018295,-0.5161331380,-0.1731974284,0.7258250326,-31.5061442057,-9.2088724772,-47.9932607014
2.9268178940,-0.5161331380,-0.1731974284,0.7258250326,-23.9530436198,-14.8698832194,-47.9932607014
2.9293909073,-0.5161331380,-0.1731974284,0.7258250326,-23.9530436198,-14.8698832194,-47.9932607014
2.9319648743,-0.5161331380,-0.1731974284,0.7258250326,-3.3841959636,-19.2338968913,-49.6106923421
2.9345288277,-0.6299026693,-0.3753458658,0.5524851888,-3.3841959636,-19.2338968913,-49.6106923421
2.9371018410,-0.6299026693,-0.3753458658,0.5524851888,18.0696614583,-19.9663187663,-47.2455800374
2.9396719933,-0.6299026693,-0.3753458658,0.5524851888,18.0696614583,-19.9663187663,-47.2455800374
2.9422388077,-0.6299026693,-0.3753458658,0.3024851888,22.8151448568,-20.4088236491,-41.3099110921
2.9448089600,-0.4048050130,-0.2605997721,0.2502390950,22.8151448568,-20.4088236491,-41.3099110921
2.9474380016,-0.4048050130,-0.2605997721,0.2502390950,27.6216634114,-18.6082865397,-36.0456288655
2.9500138760,-0.4048050130,-0.2605997721,0.2502390950,27.6216634114,-18.6082865397,-36.0456288655
2.9525899887,-0.4048050130,-0.2605997721,-0.1857960612,31.1617024740,-10.7805277506,-33.3600819905
2.9551608562,-0.3950393880,-0.0940958658,-0.1857960612,31.1617024740,-10.7805277506,-33.3600819905
2.9577798843,-0.3950393880,-0.0940958658,-0.1857960612,26.2941487630,-1.6862894694,-28.0042470296
2.9603528976,-0.3950393880,-0.0940958658,-0.1857960612,26.2941487630,-1.6862894694,-28.0042470296
2.9629249573,-0.3950393880,0.0309041342,-0.4382374674,13.6903889974,5.0733540853,-19.3067372640
2.9654939175,-0.3696487630,-0.0076700846,-0.4382374674,13.6903889974,5.0733540853,-19.3067372640
2.9681298733,-0.3696487630,-0.0076700846,-0.4382374674,13.6903889974,9.2695210775,-11.5705312093
2.9707059860,-0.3696487630,-0.0076700846,-0.4382374674,-1.8888346354,9.2695210775,-11.5705312093
2.9732778072,-0.3696487630,-0.0740763346,-0.3176319987,-1.8888346354,9.2695210775,-5.2839101155
2.9758408070,-0.2353714193,-0.0740763346,-0.3176319987,-15.2555338542,10.0019429525,-5.2839101155
2.9785048962,-0.2353714193,-0.0740763346,-0.3176319987,-15.2555338542,10.0019429525,-0.9961903890
2.9810769558,-0.2353714193,-0.0740763346,-0.3176319987,-25.2500406901,7.6520894369,-0.9961903890
2.9836499691,-0.3227737630,-0.1238810221,-0.1355030924,-25.2500406901,7.6520894369,-0.9961903890
2.9862709045,-0.3227737630,-0.1238810221,-0.1355030924,-27.4930826823,6.5381978353,1.3994394939
2.9890809059,-0.3227737630,-0.1238810221,-0.1355030924,-27.4930826823,6.5381978353,1.3994394939
2.9917848110,-0.3227737630,-0.1238810221,-0.1355030924,-28.6069742839,5.2259419759,3.4746348064
2.9944930077,-0.3862503255,-0.0853068034,-0.0568898112,-28.6069742839,5.2259419759,7.3808848064
2.9972410202,-0.3862503255,-0.0853068034,-0.0568898112,-30.0870768229,2.6624654134,5.9465586345
2.9999418259,-0.3862503255,-0.0853068034,-0.0568898112,-30.0870768229,2.6624654134,5.9465586345
3.0026497841,-0.3862503255,-0.0853068034,-0.0568898112,-26.4860026042,-0.8623148600,6.0228525798
3.0053529739,-0.2925003255,0.0206502279,-0.0363819987,-26.4860026042,-0.8623148600,2.1166025798
3.0080709457,-0.2925003255,0.0206502279,-0.0363819987,-21.5726725260,-3.6241556803,3.6424814860
3.0107779503,-0.2925003255,0.0206502279,-0.0363819987,-21.5726725260,-3.6241556803,3.6424814860
3.0134418011,-0.2925003255,0.0206502279,-0.1037648112,-18.1852213542,-5.0279642741,1.2773691814
3.0161218643,-0.2309768880,0.0558064779,-0.1037648112,-18.1852213542,-5.0279642741,1.2773691814
3.0188078880,-0.2309768880,0.0558064779,-0.1037648112,-14.1111246745,-6.6911722819,-0.1416982014
3.0222449303,-0.2309768880,0.0558064779,-0.1037648112,-14.1111246745,-6.6911722819,-2.4915517171
3.0248198509,-0.2075393880,0.0807088216,-0.0446827800,-9.4724527995,-7.6982523600,-2.4915517171
3.0274519920,-0.2075393880,0.0807088216,-0.0446827800,-9.4724527995,-7.6982523600,-5.1160634358
3.0300259590,-0.2075393880,0.0807088216,-0.0446827800,-5.3068033854,-7.8355814616,-5.1160634358
3.0325949192,-0.2075393880,0.0807088216,-0.0446827800,-5.3068033854,-7.8355814616,-5.1160634358
3.0351529121,-0.1582229817,0.0435994466,0.0622508138,-2.9874674479,-6.7979838053,-7.4201405843
3.0378258228,-0.1582229817,0.0435994466,0.0622508138,-2.9874674479,-6.7979838053,-7.4201405843
3.0403888226,-0.1582229817,0.0435994466,0.0622508138,-2.0566813151,-5.1347757975,-9.0680898030
3.0429608822,-0.1582229817,0.0435994466,0.0622508138,-2.0566813151,-5.1347757975,-9.0680898030
3.0455219746,-0.1953323567,-0.0398966471,0.0944773763,-1.5073649089,-4.3260599772,-10.9144032796
3.0481498241,-0.1953323567,-0.0398966471,0.0944773763,-1.5073649089,-4.3260599772,-10.9144032796
3.0507199764,-0.1953323567,-0.0398966471,0.0944773763,-1.7362467448,-3.4410502116,-11.0822499593
3.0533878803,-0.1953323567,-0.0398966471,0.0944773763,-1.7362467448,-3.4410502116,-11.0822499593
3.0559828281,-0.2304886067,-0.0936075846,0.0285594076,-2.9874674479,-3.1511332194,-10.5024159749
3.0585718155,-0.2304886067,-0.0936075846,0.0285594076,-2.9874674479,-3.1511332194,-10.5024159749
3.0611388683,-0.2304886067,-0.0936075846,0.0285594076,-4.3454996745,-3.0595804850,-9.8615468343
3.0637118816,-0.2304886067,-0.0936075846,0.0002390950,-4.3454996745,-3.0595804850,-9.8615468343
3.0663969517,-0.2231643880,-0.0501505534,0.0002390950,-4.7727457682,-2.7849222819,-9.2664540608
3.0689649582,-0.2231643880,-0.0501505534,0.0002390950,-4.7727457682,-2.7849222819,-9.2664540608
3.0715339184,-0.2231643880,-0.0501505534,0.0002390950,-4.7727457682,-3.3494974772,-9.2206776936
3.0740978718,-0.2231643880,-0.0501505534,-0.0070851237,-4.0861002604,-3.3494974772,-9.2206776936
3.0767798424,-0.2153518880,-0.0223185221,-0.0070851237,-4.0861002604,-3.3494974772,-9.4343007405
3.0793488026,-0.2153518880,-0.0223185221,-0.0070851237,-3.1247965495,-4.6159769694,-9.4343007405
3.0819079876,-0.2153518880,-0.0223185221,-0.0070851237,-3.1247965495,-4.6159769694,-10.0599110921
3.0844779015,-0.2153518880,-0.0521036784,0.0012156576,-2.3771158854,-5.5009867350,-10.0599110921
3.0871458054,-0.1782425130,-0.0521036784,0.0012156576,-2.3771158854,-5.5009867350,-10.0599110921
3.0897169113,-0.1782425130,-0.0521036784,0.0012156576,-1.8277994792,-5.7451273600,-10.2887929280
3.0922899246,-0.1782425130,-0.0521036784,0.0012156576,-1.8277994792,-5.7451273600,-10.2887929280
3.0948538780,-0.1972854817,-0.1312052408,0.0373484700,-1.7209879557,-6.0503031413,-9.9836171468
3.0974338055,-0.1972854817,-0.1312052408,0.0373484700,-1.7209879557,-6.0503031413,-9.9836171468
3.1000068188,-0.1972854817,-0.1312052408,0.0373484700,-4.1471354167,-6.6148783366,-9.2817128499
3.1025698185,-0.1972854817,-0.1312052408,0.0373484700,-4.1471354167,-6.6148783366,-9.2817128499
3.1051378250,-0.1943557943,-0.1609903971,0.0451609700,-7.7787272136,-6.6911722819,-8.1983388264
3.1077508926,-0.1943557943,-0.1609903971,0.0451609700,-7.7787272136,-6.6911722819,-8.1983388264
3.1103208065,-0.1943557943,-0.1609903971,0.0451609700,-7.9923502604,-5.8061625163,-6.7487538655
3.1128878593,-0.1943557943,-0.1609903971,0.0451609700,-7.9923502604,-5.8061625163,-6.7487538655
3.1156649590,-0.1587112630,0.0060017904,0.0227000326,-6.7869059245,-5.8977152506,-7.4353993733
3.1183228493,-0.1587112630,0.0060017904,0.0227000326,-6.7869059245,-5.8977152506,-7.4353993733
3.1208829880,-0.1587112630,0.0060017904,0.0227000326,-4.1013590495,-6.5538431803,-10.1819814046
3.1240429878,-0.1587112630,0.0060017904,-0.1022999674,-4.1013590495,-6.5538431803,-10.1819814046
3.1266520023,-0.1484573567,0.0318806966,-0.0266163737,-2.7128092448,-6.2334086100,-12.7912343343
3.1292150021,-0.1484573567,0.0318806966,-0.0266163737,-2.7128092448,-6.2334086100,-12.7912343343
3.1317780018,-0.1484573567,0.0318806966,-0.0266163737,-5.3983561198,-5.4857279460,-14.2713368733
3.1343419552,-0.1484573567,0.0318806966,-0.0056202800,-5.3983561198,-5.4857279460,-14.2713368733
3.1369178295,-0.1518753255,-0.0135294596,-0.0056202800,-5.3983561198,-4.9974466960,-15.6598866780
3.1394817829,-0.1518753255,-0.0135294596,-0.0056202800,-6.8631998698,-4.9974466960,-15.6598866780
3.1420428753,-0.1518753255,-0.0135294596,-0.0056202800,-6.8631998698,-4.9974466960,-16.3465321858
3.1446089745,-0.1518753255,-0.0135294596,0.0183055013,-7.0615641276,-5.3331400553,-16.3465321858
3.1472389698,-0.1650589193,-0.0472208658,0.0183055013,-7.0615641276,-5.3331400553,-16.0871327718
3.1498048306,-0.1650589193,-0.0472208658,0.0183055013,-7.1683756510,-5.0889994303,-16.0871327718
3.1523718834,-0.1650589193,-0.0472208658,0.0183055013,-7.1683756510,-5.0889994303,-16.0871327718
3.1549448967,-0.1650589193,-0.1722208658,0.0334422200,-7.0310465495,-5.1958109538,-15.5072987874
3.1575717926,-0.1728714193,-0.0779825846,0.0334422200,-7.0310465495,-5.1958109538,-15.5072987874
3.1601419449,-0.1728714193,-0.0779825846,0.0334422200,-6.9242350260,-5.2568461100,-14.5459950764
3.1627128124,-0.1728714193,-0.0779825846,0.0334422200,-6.9242350260,-5.2568461100,-14.5459950764
3.1652870178,-0.1728714193,-0.0960489908,0.0363719076,-6.0850016276,-4.7990824381,-13.5083974202
3.1679279804,-0.1792190755,-0.0960489908,0.0363719076,-6.0850016276,-4.7990824381,-13.5083974202
3.1704978943,-0.1792190755,-0.0960489908,0.0363719076,-6.6800944010,-4.5091654460,-11.6315663655
3.1730628014,-0.1792190755,-0.0960489908,0.0363719076,-6.6800944010,-4.5091654460,-11.6315663655
3.1756358147,-0.1894729817,-0.1048380534,0.0275828450,-7.7634684245,-4.5396830241,-9.6784413655
3.1783030033,-0.1894729817,-0.1048380534,0.0275828450,-7.7634684245,-4.5396830241,-9.6784413655
3.1809878349,-0.1894729817,-0.1048380534,0.0275828450,-8.5264078776,-4.4481302897,-8.1067860921
3.1835608482,-0.1894729817,-0.1048380534,0.0275828450,-8.5264078776,-4.4481302897,-8.1067860921
3.1861999035,-0.1821487630,-0.1092325846,0.0432078450,-9.3046061198,-4.9669291178,-6.5656483968
3.1889019012,-0.1821487630,-0.1092325846,0.0432078450,-9.3046061198,-4.9669291178,-6.5656483968
3.1916007996,-0.1821487630,-0.1092325846,0.0432078450,-8.2059733073,-4.4939066569,-5.1770985921
3.1943018436,-0.1821487630,-0.1092325846,0.0432078450,-8.2059733073,-4.4939066569,-5.1770985921
3.1970520020,-0.1899612630,-0.1014200846,0.0505320638,-5.6577555339,-4.0514017741,-3.4986317952
3.1997439861,-0.1899612630,-0.1014200846,0.0505320638,-5.6577555339,-4.0514017741,-3.4986317952
3.2024447918,-0.1899612630,-0.1014200846,0.0505320638,-3.1400553386,-3.5631205241,-2.0948232014
3.2051398754,-0.1899612630,-0.1014200846,0.0568797200,-3.1400553386,-3.5631205241,-2.0948232014
3.2078478336,-0.1816604817,-0.0901896158,0.0568797200,-2.2245279948,-3.0748392741,-0.6757558186
3.2105448246,-0.1816604817,-0.0901896158,0.0568797200,-2.2245279948,-3.0748392741,-0.6757558186
3.2132389545,-0.1816604817,-0.0901896158,0.0568797200,-2.9416910807,-2.1898295084,0.4076182048
3.2161459923,-0.1831253255,-0.1097208658,0.0710398763,-2.9416910807,-2.1898295084,0.4076182048
3.2187337875,-0.1831253255,-0.1097208658,0.0710398763,-2.9416910807,-1.6710306803,1.9945322673
3.2220439911,-0.1831253255,-0.1097208658,0.0710398763,-2.1634928386,-1.6710306803,1.9945322673
3.2246170044,-0.1831253255,-0.1097208658,0.0710398763,-2.5754801432,-0.3282572428,3.6272226970
3.2272548676,-0.2026565755,-0.1243693034,0.0778758138,-2.5754801432,-0.3282572428,3.6272226970
3.2298119068,-0.2026565755,-0.1243693034,0.0778758138,-3.8267008464,1.5027974447,4.7105967204
3.2323758602,-0.2026565755,-0.1243693034,0.0778758138,-3.8267008464,1.5027974447,4.7105967204
3.2349338531,-0.2026565755,-0.1243693034,0.0778758138,-3.8267008464,3.0286763509,5.1073252360
3.2375040054,-0.2163284505,-0.0564982096,0.0607859700,-4.1013590495,3.0286763509,5.1073252360
3.2400658131,-0.2163284505,-0.0564982096,0.0607859700,-4.1013590495,3.0286763509,4.4206797282
3.2426187992,-0.2163284505,-0.0564982096,0.0607859700,-3.0179850260,3.3796284994,4.4206797282
3.2452929020,-0.2163284505,-0.0564982096,0.0607859700,-3.0179850260,3.3796284994,4.0392100017
3.2478609085,-0.1948440755,-0.0379435221,0.0329539388,-1.4463297526,3.0897115072,4.0392100017
3.2504239082,-0.1948440755,-0.0379435221,0.0329539388,-1.4463297526,3.0897115072,4.0392100017
3.2529938221,-0.1948440755,-0.0379435221,0.0329539388,0.0032552083,3.3796284994,3.8408457439
3.2555489540,-0.1948440755,-0.0379435221,0.0275828450,0.0032552083,3.3796284994,3.8408457439
3.2581579685,-0.1826370443,-0.0496622721,0.0275828450,1.2086995443,3.2880757650,4.0697275798
3.2607169151,-0.1826370443,-0.0496622721,0.0275828450,1.2086995443,3.2880757650,4.0697275798
3.2632768154,-0.1826370443,-0.0496622721,0.0275828450,2.1852620443,2.9676411947,3.3067881267
3.2658510208,-0.1826370443,-0.0496622721,0.0197703450,2.1852620443,2.9676411947,3.3067881267
3.2685019970,-0.1699417317,-0.0457560221,0.0197703450,3.0855305990,2.6624654134,3.3830820720
3.2710688114,-0.1699417317,-0.0457560221,0.0197703450,3.0855305990,2.6624654134,3.3830820720
3.2736439705,-0.1699417317,-0.0457560221,0.0197703450,3.1007893880,2.1131490072,3.1999766032
3.2763588428,-0.1699417317,-0.0433146158,0.0109812826,3.1007893880,2.1131490072,3.1999766032
3.2790629864,-0.1640823567,-0.0433146158,0.0109812826,2.8719075521,2.1589253744,2.4675547282
3.2817618847,-0.1640823567,-0.0433146158,0.0109812826,2.8719075521,2.1589253744,2.4675547282
3.2844588757,-0.1640823567,-0.0433146158,0.0109812826,2.7650960286,2.3725484212,2.3454844157
3.2871649265,-0.1518753255,-0.0330607096,-0.0061085612,2.7650960286,2.3725484212,2.3454844157
3.2898600101,-0.1518753255,-0.0330607096,-0.0061085612,2.5972493490,2.4793599447,2.3149668376
3.2925579548,-0.1518753255,-0.0330607096,-0.0061085612,2.5972493490,2.4793599447,2.3149668376
3.2952618599,-0.1518753255,-0.0330607096,-0.0061085612,1.6664632161,2.8913472494,2.1928965251
3.2979588509,-0.1718948567,-0.0789591471,0.0090281576,1.6664632161,2.8913472494,2.1928965251
3.3006639481,-0.1718948567,-0.0789591471,0.0090281576,-1.2174479167,3.4101460775,2.4675547282
3.3033609390,-0.1718948567,-0.0789591471,0.0090281576,-1.2174479167,3.4101460775,2.4675547282
3.3060688972,-0.1718948567,-0.0789591471,0.0412547200,-6.1155192057,3.7916158040,2.6201426189
3.3088839054,-0.2021682943,-0.1170450846,0.0412547200,-6.1155192057,3.7916158040,2.6201426189
3.3115818501,-0.2021682943,-0.1170450846,0.0412547200,-10.7541910807,4.0357564290,2.8490244548
3.3142859936,-0.2021682943,-0.1170450846,0.0412547200,-10.7541910807,4.0357564290,2.8490244548
3.3169980049,-0.0771682943,-0.0364786784,0.0456492513,-13.1650797526,4.3867085775,2.4217783610
3.3195888996,-0.1777542317,-0.0364786784,0.0456492513,-13.1650797526,4.3867085775,2.4217783610
3.3221609592,-0.1777542317,-0.0364786784,0.0456492513,-13.4397379557,4.4019673666,1.3231455486
3.3247299194,-0.1777542317,-0.0364786784,0.0456492513,-13.4397379557,4.4019673666,1.3231455486
3.3273799419,-0.1401565755,0.0294392904,0.0192820638,-9.5334879557,4.0204976400,-0.2790273030
