# time_stamp before, Acceleration x, Acceleration y, Acceleration z, Gyro x, Gyro y, Gyro z
0.0000000000,-0.7348632812,0.0732421875,0.0493164062,-1.5258789062,-1.3580322266,-5.2490234375
0.0025629997,-0.7348632812,0.0732421875,0.0493164062,-1.9531250000,-1.1138916016,-4.6844482422
0.0051238537,-0.7348632812,0.0732421875,0.0493164062,-1.9531250000,-1.1138916016,-4.6844482422
0.0076858997,-0.7309570312,0.0717773438,0.0449218750,-2.1362304688,-0.8544921875,-3.8452148438
0.0104498863,-0.7309570312,0.0717773438,0.0449218750,-2.1362304688,-0.8544921875,-3.8452148438
0.0131289959,-0.7309570312,0.0717773438,0.0449218750,-2.2583007812,-1.1291503906,-3.7078857422
0.0158059597,-0.7309570312,0.0717773438,0.0449218750,-2.2583007812,-1.1291503906,-3.7078857422
0.0185368061,-0.7270507812,0.0781250000,0.0600585938,-2.2430419922,-0.5645751953,-3.8146972656
0.0212090015,-0.7270507812,0.0781250000,0.0600585938,-2.2430419922,-0.5645751953,-3.8146972656
0.0238878727,-0.7270507812,0.0781250000,0.0600585938,-2.4566650391,-0.9765625000,-3.6315917969
0.0265629292,-0.7270507812,0.0781250000,0.0429687500,-2.4566650391,-0.9765625000,-3.6315917969
0.0291860104,-0.7270507812,0.0766601562,0.0429687500,-2.0904541016,-0.9918212891,-4.0435791016
0.0317468643,-0.7270507812,0.0766601562,0.0429687500,-2.0904541016,-0.9918212891,-4.0435791016
0.0343058109,-0.7270507812,0.0766601562,0.0429687500,-2.0904541016,-1.2207031250,-3.8909912109
0.0369138718,-0.7270507812,0.0766601562,0.0590820312,-2.2277832031,-1.2207031250,-3.8909912109
0.0395507812,-0.7280273438,0.0708007812,0.0590820312,-2.2277832031,-1.2207031250,-3.6315917969
0.0421168804,-0.7280273438,0.0708007812,0.0590820312,-2.0446777344,-0.9307861328,-3.6315917969
0.0446918011,-0.7280273438,0.0708007812,0.0590820312,-2.0446777344,-0.9307861328,-3.6163330078
0.0472559929,-0.7280273438,0.0766601562,0.0454101562,-1.5716552734,-1.3732910156,-3.6163330078
0.0499858856,-0.7246093750,0.0766601562,0.0454101562,-1.5716552734,-1.3732910156,-3.6163330078
0.0528509617,-0.7246093750,0.0766601562,0.0454101562,-1.7089843750,-1.4801025391,-3.5858154297
0.0555489063,-0.7246093750,0.0766601562,0.0454101562,-1.7089843750,-1.4801025391,-3.6010742188
0.0582568645,-0.7319335938,0.0742187500,0.0507812500,-1.7395019531,-1.2817382812,-3.6010742188
0.0609469414,-0.7319335938,0.0742187500,0.0507812500,-1.7395019531,-1.2817382812,-3.4027099609
0.0636458397,-0.7319335938,0.0742187500,0.0507812500,-1.1444091797,-1.4343261719,-3.4027099609
0.0665218830,-0.7319335938,0.0742187500,0.0507812500,-1.1444091797,-1.4343261719,-2.9144287109
0.0693538189,-0.7236328125,0.0688476562,0.0507812500,-1.0528564453,-1.6937255859,-2.9144287109
0.0720658302,-0.7236328125,0.0688476562,0.0507812500,-1.0528564453,-1.6937255859,-2.8228759766
0.0747649670,-0.7236328125,0.0688476562,0.0507812500,-1.4801025391,-1.7852783203,-2.8228759766
0.0774619579,-0.7236328125,0.0654296875,0.0478515625,-1.4801025391,-1.7852783203,-2.8533935547
0.0800578594,-0.7348632812,0.0654296875,0.0478515625,-1.0528564453,-2.1972656250,-2.8533935547
0.0826199055,-0.7348632812,0.0654296875,0.0478515625,-1.0528564453,-2.1972656250,-2.8533935547
0.0851860046,-0.7348632812,0.0654296875,0.0478515625,-0.7476806641,-2.1820068359,-2.8076171875
0.0877590179,-0.7348632812,0.0634765625,0.0468750000,-0.7476806641,-2.1820068359,-2.3498535156
0.0909709930,-0.7338867188,0.0634765625,0.0468750000,-1.1291503906,-1.9989013672,-2.3498535156
0.0935389996,-0.7338867188,0.0634765625,0.0468750000,-1.1291503906,-1.9989013672,-2.3498535156
0.0960948467,-0.7338867188,0.0634765625,0.0468750000,-1.9378662109,-1.7089843750,-1.9989013672
0.0987348557,-0.7270507812,0.0781250000,0.0478515625,-1.9378662109,-1.7089843750,-1.9989013672
0.1012978554,-0.7270507812,0.0781250000,0.0478515625,-2.3345947266,-1.7852783203,-1.8463134766
0.1038589478,-0.7270507812,0.0781250000,0.0478515625,-2.3345947266,-1.7852783203,-1.8463134766
0.1064188480,-0.7270507812,0.0781250000,0.0478515625,-1.8615722656,-1.7242431641,-1.7852783203
0.1089839935,-0.7270507812,0.0859375000,0.0600585938,-1.8615722656,-1.7242431641,-1.7852783203
0.1115469933,-0.7270507812,0.0859375000,0.0600585938,-1.4953613281,-1.5869140625,-1.6174316406
0.1141119003,-0.7270507812,0.0859375000,0.0600585938,-1.4953613281,-1.5869140625,-1.6174316406
0.1167969704,-0.7270507812,0.0859375000,0.0600585938,-1.7089843750,-1.1291503906,-1.4953613281
0.1193718910,-0.7348632812,0.0659179688,0.0581054688,-1.7089843750,-1.1291503906,-1.4953613281
0.1219389439,-0.7348632812,0.0659179688,0.0581054688,-2.1667480469,-1.0986328125,-0.8239746094
0.1245009899,-0.7348632812,0.0659179688,0.0581054688,-2.1667480469,-1.0986328125,-0.8239746094
0.1270608902,-0.7348632812,0.0659179688,0.0581054688,-2.1667480469,-1.4953613281,-0.4882812500
0.1296658516,-0.7290039062,0.0678710938,0.0517578125,-2.2735595703,-1.4953613281,-0.4882812500
0.1322209835,-0.7290039062,0.0678710938,0.0517578125,-2.2735595703,-1.4953613281,-0.4730224609
0.1347827911,-0.7290039062,0.0678710938,0.0517578125,-2.5177001953,-1.3885498047,-0.4730224609
0.1373429298,-0.7290039062,0.0678710938,0.0517578125,-2.5177001953,-1.3885498047,-0.3204345703
0.1400330067,-0.7250976562,0.0698242188,0.0664062500,-2.4871826172,-1.3427734375,-0.3204345703
0.1426019669,-0.7250976562,0.0698242188,0.0664062500,-2.4871826172,-1.3427734375,-0.3204345703
0.1451640129,-0.7250976562,0.0698242188,0.0664062500,-2.3651123047,-1.4190673828,-0.2288818359
0.1477229595,-0.7250976562,0.0698242188,0.0590820312,-2.3651123047,-1.4190673828,-0.2288818359
0.1505699158,-0.7270507812,0.0810546875,0.0590820312,-2.4108886719,-0.9155273438,-0.2593994141
0.1532588005,-0.7270507812,0.0810546875,0.0590820312,-2.4108886719,-0.9155273438,-0.2593994141
0.1559419632,-0.7270507812,0.0810546875,0.0590820312,-2.3193359375,-0.5645751953,-0.4577636719
0.1588099003,-0.7294921875,0.0834960938,0.0610351562,-2.3193359375,-0.5645751953,-0.4577636719
0.1615118980,-0.7294921875,0.0834960938,0.0610351562,-2.2277832031,-0.7019042969,-0.1831054688
0.1642029285,-0.7294921875,0.0834960938,0.0610351562,-2.2277832031,-0.7019042969,-0.1831054688
0.1668918133,-0.7294921875,0.0834960938,0.0610351562,-1.9989013672,-1.1138916016,-0.1068115234
0.1697080135,-0.7280273438,0.0712890625,0.0512695312,-1.9989013672,-1.1138916016,-0.1068115234
0.1723959446,-0.7280273438,0.0712890625,0.0512695312,-2.1514892578,-0.9460449219,-0.1525878906
0.1750779152,-0.7280273438,0.0712890625,0.0512695312,-2.1514892578,-0.9460449219,-0.1525878906
0.1777658463,-0.7280273438,0.0712890625,0.0512695312,-2.0446777344,-1.0986328125,-0.1525878906
0.1805469990,-0.7221679688,0.0688476562,0.0493164062,-2.0446777344,-1.0986328125,-0.1525878906
0.1831209660,-0.7221679688,0.0688476562,0.0493164062,-1.2207031250,-1.1596679688,-0.2593994141
0.1856868267,-0.7221679688,0.0688476562,0.0493164062,-1.2207031250,-1.1596679688,-0.2593994141
0.1882758141,-0.7221679688,0.0688476562,0.0595703125,-0.9918212891,-1.3427734375,-0.4730224609
0.1911849976,-0.7280273438,0.0791015625,0.0595703125,-0.9918212891,-1.3427734375,-0.4730224609
0.1938748360,-0.7280273438,0.0791015625,0.0595703125,-1.7089843750,-1.0528564453,-0.3509521484
0.1965579987,-0.7280273438,0.0791015625,0.0595703125,-1.7089843750,-1.0528564453,-0.3509521484
0.1992750168,-0.7241210938,0.0825195312,0.0478515625,-1.4801025391,-1.2969970703,-0.4882812500
0.2019720078,-0.7241210938,0.0825195312,0.0478515625,-1.4801025391,-1.2969970703,-0.4882812500
0.2047989368,-0.7241210938,0.0825195312,0.0478515625,-1.1444091797,-1.6784667969,-0.4730224609
0.2083299160,-0.7241210938,0.0825195312,0.0532226562,-1.1444091797,-1.6784667969,-0.4272460938
0.2109019756,-0.7324218750,0.0825195312,0.0532226562,-0.8392333984,-1.3732910156,-0.4272460938
0.2134659290,-0.7324218750,0.0825195312,0.0532226562,-0.8392333984,-1.3732910156,-0.6408691406
0.2160258293,-0.7324218750,0.0825195312,0.0532226562,-1.6021728516,-1.3275146484,-0.6408691406
0.2186880112,-0.7324218750,0.0825195312,0.0615234375,-1.6021728516,-1.3275146484,-0.6408691406
0.2212529182,-0.7304687500,0.0834960938,0.0615234375,-1.3580322266,-1.0681152344,-0.6103515625
0.2238118649,-0.7304687500,0.0834960938,0.0615234375,-1.3580322266,-1.0681152344,-0.6103515625
0.2263748646,-0.7304687500,0.0834960938,0.0615234375,-1.3275146484,-1.5716552734,-0.3509521484
0.2289409637,-0.7304687500,0.0747070312,0.0571289062,-1.3275146484,-1.5716552734,-0.3509521484
0.2315049171,-0.7275390625,0.0747070312,0.0571289062,-0.9765625000,-1.1291503906,-0.5798339844
0.2340688705,-0.7275390625,0.0747070312,0.0571289062,-0.9765625000,-1.1291503906,-0.5798339844
0.2366290092,-0.7275390625,0.0747070312,0.0571289062,-0.8544921875,-0.9155273438,-0.3509521484
0.2391979694,-0.7275390625,0.0654296875,0.0585937500,-0.8544921875,-0.9155273438,-0.3509521484
0.2417628765,-0.7226562500,0.0654296875,0.0585937500,-1.2817382812,-1.1291503906,-0.2288818359
0.2444260120,-0.7226562500,0.0654296875,0.0585937500,-1.2817382812,-1.1291503906,-0.2288818359
0.2469890118,-0.7226562500,0.0654296875,0.0585937500,-0.9307861328,-1.2207031250,-0.0457763672
0.2495508194,-0.7270507812,0.0693359375,0.0522460938,-0.9307861328,-1.2207031250,-0.0457763672
0.2521159649,-0.7270507812,0.0693359375,0.0522460938,-0.9307861328,-0.5950927734,0.1525878906
0.2546799183,-0.7270507812,0.0693359375,0.0522460938,-0.8239746094,-0.5950927734,0.1525878906
0.2572379112,-0.7270507812,0.0693359375,0.0522460938,-0.8239746094,-0.5950927734,0.3204345703
0.2599878311,-0.7226562500,0.0747070312,0.0493164062,-0.2593994141,-0.5645751953,0.3204345703
0.2625567913,-0.7226562500,0.0747070312,0.0493164062,-0.2593994141,-0.5645751953,0.0457763672
0.2651188374,-0.7226562500,0.0747070312,0.0493164062,0.0762939453,-1.1444091797,0.0457763672
0.2676858902,-0.7226562500,0.0747070312,0.0493164062,0.0762939453,-1.1444091797,0.1831054688
0.2704839706,-0.7270507812,0.0874023438,0.0590820312,0.1220703125,-0.4730224609,0.1831054688
0.2731850147,-0.7270507812,0.0874023438,0.0590820312,0.1220703125,-0.4730224609,0.1831054688
0.2758829594,-0.7270507812,0.0874023438,0.0590820312,-0.2136230469,-0.5187988281,0.1525878906
0.2785658836,-0.7270507812,0.0874023438,0.0590820312,-0.2136230469,-0.5187988281,0.1525878906
0.2811248302,-0.7255859375,0.0834960938,0.0576171875,0.1678466797,-0.5340576172,0.1983642578
0.2836899757,-0.7255859375,0.0834960938,0.0576171875,0.1678466797,-0.5340576172,0.1983642578
0.2862539291,-0.7255859375,0.0834960938,0.0576171875,0.3967285156,-0.7019042969,-0.1068115234
0.2888758183,-0.7255859375,0.0834960938,0.0576171875,0.3967285156,-0.7019042969,-0.1068115234
0.2915768623,-0.7285156250,0.0678710938,0.0566406250,-0.2136230469,-0.5187988281,0.0762939453
0.2942719460,-0.7285156250,0.0678710938,0.0566406250,-0.2136230469,-0.5187988281,0.0762939453
0.2969708443,-0.7285156250,0.0678710938,0.0566406250,-0.1373291016,-0.3814697266,0.1068115234
0.2996737957,-0.7285156250,0.0703125000,0.0517578125,-0.1373291016,-0.3814697266,0.1068115234
0.3023748398,-0.7246093750,0.0703125000,0.0517578125,-0.4730224609,-0.5340576172,0.0152587891
0.3050749302,-0.7246093750,0.0703125000,0.0517578125,-0.4730224609,-0.5340576172,0.0152587891
0.3078908920,-0.7246093750,0.0703125000,0.0517578125,-0.6561279297,-0.5340576172,0.2136230469
0.3105909824,-0.7319335938,0.0781250000,0.0537109375,-0.6561279297,-0.5340576172,0.2136230469
0.3132867813,-0.7319335938,0.0781250000,0.0537109375,-0.3051757812,-0.8087158203,0.5187988281
0.3159828186,-0.7319335938,0.0781250000,0.0537109375,-0.3051757812,-0.8087158203,0.5187988281
0.3187279701,-0.7319335938,0.0781250000,0.0537109375,0.2593994141,-1.0528564453,0.2441406250
0.3214278221,-0.7290039062,0.0737304688,0.0615234375,0.2593994141,-1.0528564453,0.2441406250
0.3242239952,-0.7290039062,0.0737304688,0.0615234375,0.0457763672,-1.0528564453,0.1983642578
0.3269238472,-0.7290039062,0.0737304688,0.0615234375,0.0457763672,-1.0528564453,0.1983642578
0.3298189640,-0.7290039062,0.0737304688,0.0590820312,-0.1831054688,-0.7476806641,0.1983642578
0.3323860168,-0.7275390625,0.0776367188,0.0590820312,-0.1831054688,-0.7476806641,0.1983642578
0.3349559307,-0.7275390625,0.0776367188,0.0590820312,0.0152587891,-0.5035400391,0.7629394531
0.3375179768,-0.7275390625,0.0776367188,0.0590820312,0.0152587891,-0.5035400391,0.7629394531
0.3402140141,-0.7275390625,0.0844726562,0.0502929688,-0.5035400391,-0.7934570312,0.6866455078
0.3429169655,-0.7363281250,0.0844726562,0.0502929688,-0.5035400391,-0.7934570312,0.6866455078
0.3456189632,-0.7363281250,0.0844726562,0.0502929688,-0.5950927734,-0.7324218750,0.1831054688
0.3483338356,-0.7363281250,0.0844726562,0.0502929688,-0.5950927734,-0.7324218750,0.1831054688
0.3510329723,-0.7314453125,0.0776367188,0.0644531250,0.1220703125,-0.6256103516,0.4730224609
0.3537328243,-0.7314453125,0.0776367188,0.0644531250,0.1220703125,-0.6256103516,0.4730224609
0.3564360142,-0.7314453125,0.0776367188,0.0644531250,0.2899169922,-1.1444091797,0.7019042969
0.3590829372,-0.7314453125,0.0776367188,0.0644531250,0.2899169922,-1.1444091797,0.7019042969
0.3616478443,-0.7236328125,0.0825195312,0.0537109375,0.1220703125,-1.2359619141,0.8544921875
0.3642129898,-0.7236328125,0.0825195312,0.0537109375,0.1220703125,-1.2359619141,0.8544921875
0.3667848110,-0.7236328125,0.0825195312,0.0537109375,-0.0457763672,-0.9918212891,0.8544921875
0.3693628311,-0.7236328125,0.0825195312,0.0537109375,-0.0457763672,-0.9918212891,0.8544921875
0.3720288277,-0.7250976562,0.0727539062,0.0522460938,-0.0457763672,-0.8392333984,0.7781982422
0.3745899200,-0.7250976562,0.0727539062,0.0522460938,-0.2899169922,-0.8392333984,0.7781982422
0.3771548271,-0.7250976562,0.0727539062,0.0522460938,-0.2899169922,-1.0070800781,1.1749267578
0.3798317909,-0.7250976562,0.0727539062,0.0522460938,0.7781982422,-1.0070800781,1.1749267578
0.3823988438,-0.7343750000,0.0737304688,0.0556640625,0.7781982422,-1.0070800781,1.3275146484
0.3849678040,-0.7343750000,0.0737304688,0.0556640625,1.2664794922,-1.2207031250,1.3275146484
0.3875370026,-0.7343750000,0.0737304688,0.0556640625,1.2664794922,-1.2207031250,1.4801025391
0.3903539181,-0.7343750000,0.0737304688,0.0595703125,1.6784667969,-1.2512207031,1.4801025391
0.3930439949,-0.7304687500,0.0771484375,0.0595703125,1.6784667969,-1.2512207031,1.4953613281
0.3959059715,-0.7304687500,0.0771484375,0.0595703125,2.1209716797,-1.3427734375,1.4953613281
0.3986809254,-0.7304687500,0.0771484375,0.0595703125,2.1209716797,-1.3427734375,1.5106201172
0.4013450146,-0.7319335938,0.0761718750,0.0488281250,2.3498535156,-1.1901855469,1.5106201172
0.4048559666,-0.7319335938,0.0761718750,0.0488281250,2.7160644531,-1.2664794922,1.7700195312
0.4074208736,-0.7319335938,0.0761718750,0.0488281250,2.7160644531,-1.2664794922,1.7700195312
0.4100728035,-0.7319335938,0.0761718750,0.0488281250,2.7160644531,-1.2664794922,1.9683837891
0.4126288891,-0.7285156250,0.0795898438,0.0600585938,3.3874511719,-1.2664794922,1.9683837891
0.4151909351,-0.7285156250,0.0795898438,0.0600585938,3.3874511719,-1.2664794922,2.1667480469
0.4177498817,-0.7285156250,0.0795898438,0.0600585938,3.3874511719,-1.5106201172,2.1667480469
0.4203178883,-0.7285156250,0.0795898438,0.0493164062,3.3874511719,-1.5106201172,2.3956298828
0.4228739738,-0.7280273438,0.0839843750,0.0493164062,3.4179687500,-1.2207031250,2.3956298828
0.4254310131,-0.7280273438,0.0839843750,0.0493164062,3.4179687500,-1.2207031250,2.3956298828
0.4279890060,-0.7280273438,0.0839843750,0.0493164062,3.4179687500,-1.3580322266,2.4108886719
0.4305558205,-0.7280273438,0.0839843750,0.0541992188,3.4179687500,-1.3580322266,2.4108886719
0.4331128597,-0.7280273438,0.0791015625,0.0541992188,3.8146972656,-1.4953613281,2.8533935547
0.4356758595,-0.7280273438,0.0791015625,0.0541992188,3.8146972656,-1.4953613281,2.8533935547
0.4384739399,-0.7280273438,0.0791015625,0.0541992188,4.1961669922,-1.5869140625,3.0059814453
0.4410378933,-0.7280273438,0.0761718750,0.0605468750,4.1961669922,-1.5869140625,3.0059814453
0.4435949326,-0.7329101562,0.0761718750,0.0605468750,3.8757324219,-1.7242431641,3.3111572266
0.4461569786,-0.7329101562,0.0761718750,0.0605468750,3.8757324219,-1.7242431641,3.3111572266
0.4488759041,-0.7329101562,0.0761718750,0.0605468750,3.8146972656,-2.2583007812,3.6926269531
0.4514458179,-0.7329101562,0.0708007812,0.0541992188,3.8146972656,-2.2583007812,3.6926269531
0.4540028572,-0.7294921875,0.0708007812,0.0541992188,3.2348632812,-1.9531250000,3.6773681641
0.4565689564,-0.7294921875,0.0708007812,0.0541992188,3.2348632812,-1.9531250000,3.6773681641
0.4592978954,-0.7294921875,0.0708007812,0.0541992188,3.5400390625,-1.7395019531,3.8909912109
0.4619917870,-0.7275390625,0.0712890625,0.0629882812,3.5400390625,-1.7395019531,3.8909912109
0.4646799564,-0.7275390625,0.0712890625,0.0629882812,3.8299560547,-1.7547607422,3.9978027344
0.4673759937,-0.7275390625,0.0712890625,0.0629882812,3.8299560547,-1.7547607422,3.9978027344
0.4700789452,-0.7275390625,0.0712890625,0.0629882812,4.1351318359,-1.8463134766,4.7760009766
0.4727768898,-0.7304687500,0.0776367188,0.0498046875,4.1351318359,-1.8463134766,4.7760009766
0.4754679203,-0.7304687500,0.0776367188,0.0498046875,5.1422119141,-1.8615722656,5.1422119141
0.4781639576,-0.7304687500,0.0776367188,0.0498046875,5.1422119141,-1.8615722656,5.1422119141
0.4807288647,-0.7304687500,0.0776367188,0.0498046875,5.1422119141,-1.8920898438,5.3558349609
0.4832949638,-0.7285156250,0.0703125000,0.0620117188,5.7983398438,-1.8920898438,5.3558349609
0.4858608246,-0.7285156250,0.0703125000,0.0620117188,5.7983398438,-1.8920898438,5.6457519531
0.4884619713,-0.7285156250,0.0703125000,0.0620117188,7.3089599609,-1.7089843750,5.6457519531
0.4911599159,-0.7285156250,0.0703125000,0.0664062500,7.3089599609,-1.7089843750,6.0272216797
0.4938609600,-0.7387695312,0.0698242188,0.0664062500,9.0942382812,-1.5869140625,6.0272216797
0.4965538979,-0.7387695312,0.0698242188,0.0664062500,9.0942382812,-1.5869140625,6.1645507812
0.4993519783,-0.7387695312,0.0698242188,0.0664062500,10.0250244141,-1.2817382812,6.1645507812
0.5021538734,-0.7382812500,0.0722656250,0.0576171875,10.0250244141,-1.2817382812,6.6528320312
0.5048398972,-0.7382812500,0.0722656250,0.0576171875,10.2233886719,-1.4648437500,6.6528320312
0.5075259209,-0.7382812500,0.0722656250,0.0576171875,10.2233886719,-1.4648437500,6.9732666016
0.5103828907,-0.7382812500,0.0722656250,0.0576171875,10.5590820312,-1.3732910156,6.9732666016
0.5130767822,-0.7260742188,0.0937500000,0.0561523438,10.5590820312,-1.1901855469,6.9427490234
0.5159637928,-0.7260742188,0.0937500000,0.0561523438,10.6506347656,-1.1901855469,6.9427490234
0.5188498497,-0.7260742188,0.0937500000,0.0561523438,10.6506347656,-1.1901855469,6.9732666016
0.5215539932,-0.7260742188,0.0937500000,0.0546875000,10.7116699219,-1.1901855469,6.9732666016
0.5242547989,-0.7285156250,0.0966796875,0.0546875000,10.7116699219,-1.2512207031,7.1411132812
0.5269589424,-0.7285156250,0.0966796875,0.0546875000,10.6201171875,-1.2512207031,7.1411132812
0.5295739174,-0.7285156250,0.0966796875,0.0546875000,10.6201171875,-1.2512207031,7.2326660156
0.5321469307,-0.7285156250,0.1093750000,0.0634765625,10.7269287109,-1.4038085938,7.2326660156
0.5347199440,-0.7265625000,0.1093750000,0.0634765625,10.7269287109,-1.4038085938,6.6986083984
0.5372929573,-0.7265625000,0.1093750000,0.0634765625,10.9405517578,-1.2207031250,6.6986083984
0.5399928093,-0.7265625000,0.1093750000,0.0634765625,10.9405517578,-1.2207031250,6.2408447266
0.5426928997,-0.7192382812,0.1176757812,0.0639648438,10.7269287109,-0.7324218750,6.2408447266
0.5453908443,-0.7192382812,0.1176757812,0.0639648438,10.7269287109,-0.7324218750,5.6304931641
0.5481269360,-0.7192382812,0.1176757812,0.0639648438,9.8724365234,-1.0833740234,5.6304931641
0.5506949425,-0.7192382812,0.1176757812,0.0639648438,9.8724365234,-1.0833740234,5.6304931641
0.5532639027,-0.7163085938,0.1206054688,0.0576171875,9.3078613281,-1.2969970703,5.0354003906
0.5558300018,-0.7163085938,0.1206054688,0.0576171875,9.3078613281,-1.2969970703,5.0354003906
0.5584018230,-0.7163085938,0.1206054688,0.0576171875,9.3688964844,-0.8850097656,4.4097900391
0.5609719753,-0.7163085938,0.1206054688,0.0576171875,9.3688964844,-0.8850097656,4.4097900391
0.5635449886,-0.7294921875,0.1074218750,0.0561523438,9.5672607422,-0.6866455078,3.9672851562
0.5662147999,-0.7294921875,0.1074218750,0.0561523438,9.5672607422,-0.6866455078,3.9672851562
0.5689067841,-0.7294921875,0.1074218750,0.0561523438,9.1094970703,-0.6866455078,2.7923583984
0.5714788437,-0.7294921875,0.1074218750,0.0561523438,9.1094970703,-0.6866455078,2.7923583984
0.5740478039,-0.7294921875,0.1083984375,0.0585937500,8.7280273438,-0.8087158203,3.0212402344
0.5766198635,-0.7294921875,0.1083984375,0.0585937500,8.7280273438,-0.8087158203,3.0212402344
0.5792748928,-0.7294921875,0.1083984375,0.0585937500,8.3923339844,-0.8544921875,2.6245117188
0.5818448067,-0.7294921875,0.1083984375,0.0585937500,8.3923339844,-0.8544921875,2.6245117188
0.5844199657,-0.7294921875,0.1005859375,0.0527343750,8.5906982422,-1.0681152344,2.0751953125
0.5869820118,-0.7294921875,0.1005859375,0.0527343750,8.5906982422,-1.0681152344,2.0751953125
0.5896489620,-0.7294921875,0.1005859375,0.0527343750,8.5906982422,-1.2817382812,1.5869140625
0.5923488140,-0.7294921875,0.1005859375,0.0566406250,9.0026855469,-1.2817382812,1.5869140625
0.5950438976,-0.7324218750,0.0932617188,0.0566406250,9.0026855469,-1.3885498047,1.6784667969
0.5977377892,-0.7324218750,0.0932617188,0.0566406250,9.2315673828,-1.3885498047,1.6784667969
0.6004488468,-0.7324218750,0.0932617188,0.0566406250,9.2315673828,-1.1291503906,1.4801025391
0.6031448841,-0.7353515625,0.0781250000,0.0439453125,8.5754394531,-1.1291503906,1.4801025391
0.6058399677,-0.7353515625,0.0781250000,0.0439453125,8.5754394531,-1.1291503906,1.6784667969
0.6085188389,-0.7353515625,0.0781250000,0.0439453125,7.7056884766,-1.1291503906,1.6784667969
0.6110827923,-0.7353515625,0.0781250000,0.0439453125,7.7056884766,-1.1291503906,1.9531250000
0.6136479378,-0.7299804688,0.0864257812,0.0478515625,7.0495605469,-1.3885498047,1.9531250000
0.6162118912,-0.7299804688,0.0864257812,0.0478515625,7.0495605469,-1.3885498047,2.4108886719
0.6188869476,-0.7299804688,0.0864257812,0.0478515625,6.2408447266,-1.3122558594,2.4108886719
0.6214528084,-0.7299804688,0.0864257812,0.0478515625,6.2408447266,-1.3122558594,2.4108886719
0.6240170002,-0.7265625000,0.1108398438,0.0571289062,5.5084228516,-1.3580322266,2.4719238281
0.6265788078,-0.7265625000,0.1108398438,0.0571289062,5.5084228516,-1.3580322266,2.4719238281
0.6293888092,-0.7265625000,0.1108398438,0.0571289062,4.8370361328,-1.3580322266,2.1362304688
0.6319608688,-0.7265625000,0.1108398438,0.0571289062,4.8370361328,-1.3580322266,2.1362304688
0.6347467899,-0.7221679688,0.1147460938,0.0625000000,4.8828125000,-1.5716552734,1.8615722656
0.6373169422,-0.7221679688,0.1147460938,0.0625000000,4.8828125000,-1.5716552734,1.8615722656
0.6401479244,-0.7221679688,0.1147460938,0.0625000000,4.6844482422,-1.2054443359,1.6021728516
0.6428449154,-0.7221679688,0.1147460938,0.0595703125,4.6844482422,-1.2054443359,1.6021728516
0.6455459595,-0.7163085938,0.1079101562,0.0595703125,4.1046142578,-1.2512207031,1.5563964844
0.6482529640,-0.7163085938,0.1079101562,0.0595703125,4.1046142578,-1.2512207031,1.5563964844
0.6509590149,-0.7163085938,0.1079101562,0.0595703125,3.8757324219,-1.6174316406,1.3275146484
0.6536588669,-0.7226562500,0.1113281250,0.0629882812,3.8757324219,-1.6174316406,1.3275146484
0.6563549042,-0.7226562500,0.1113281250,0.0629882812,3.1890869141,-1.3122558594,1.1749267578
0.6590650082,-0.7226562500,0.1113281250,0.0629882812,3.1890869141,-1.3122558594,1.1749267578
0.6617619991,-0.7226562500,0.1113281250,0.0629882812,2.6397705078,-1.2207031250,0.8392333984
0.6644599438,-0.7260742188,0.1098632812,0.0581054688,2.6397705078,-1.2207031250,0.8392333984
0.6671588421,-0.7260742188,0.1098632812,0.0581054688,2.2735595703,-1.3580322266,0.3967285156
0.6697688103,-0.7260742188,0.1098632812,0.0581054688,2.2735595703,-1.3580322266,0.3967285156
0.6723318100,-0.7260742188,0.1098632812,0.0581054688,2.0141601562,-1.3122558594,-0.2136230469
0.6748988628,-0.7236328125,0.1142578125,0.0610351562,2.0141601562,-1.3122558594,-0.2136230469
0.6774678230,-0.7236328125,0.1142578125,0.0610351562,1.5716552734,-1.1138916016,-0.1678466797
0.6800878048,-0.7236328125,0.1142578125,0.0610351562,1.5716552734,-1.1138916016,-0.1678466797
0.6826570034,-0.7236328125,0.1142578125,0.0610351562,0.8850097656,-1.4038085938,-0.2136230469
0.6852219105,-0.7109375000,0.1201171875,0.0498046875,0.8850097656,-1.4038085938,-0.2136230469
0.6877889633,-0.7109375000,0.1201171875,0.0498046875,0.6103515625,-1.5411376953,-0.2136230469
0.6904098988,-0.7109375000,0.1201171875,0.0498046875,0.6103515625,-1.5411376953,-0.2136230469
0.6930868626,-0.7109375000,0.1201171875,0.0478515625,0.6103515625,-1.2817382812,-0.8239746094
0.6956617832,-0.7246093750,0.1020507812,0.0478515625,1.3427734375,-1.2817382812,-0.8239746094
0.6983809471,-0.7246093750,0.1020507812,0.0478515625,1.3427734375,-1.4953613281,-0.7171630859
0.7010898590,-0.7246093750,0.1020507812,0.0478515625,1.3427734375,-1.4953613281,-0.7171630859
0.7037858963,-0.7246093750,0.0942382812,0.0537109375,1.3427734375,-1.3580322266,-0.4425048828
0.7064759731,-0.7202148438,0.0942382812,0.0537109375,0.3204345703,-1.3580322266,-0.4425048828
0.7091858387,-0.7202148438,0.0942382812,0.0537109375,0.3204345703,-1.1138916016,-0.2899169922
0.7118859291,-0.7202148438,0.0942382812,0.0537109375,-0.2288818359,-1.1138916016,-0.2899169922
0.7145857811,-0.7255859375,0.1040039062,0.0512695312,-0.2288818359,-1.1138916016,-0.5035400391
0.7172858715,-0.7255859375,0.1040039062,0.0512695312,-0.0915527344,-1.0833740234,-0.5035400391
0.7199938297,-0.7255859375,0.1040039062,0.0512695312,-0.0915527344,-1.0833740234,-0.4272460938
0.7226958275,-0.7255859375,0.1040039062,0.0512695312,0.2136230469,-1.5106201172,-0.4272460938
0.7253940105,-0.7241210938,0.0957031250,0.0527343750,0.2136230469,-1.5106201172,-0.2899169922
0.7281279564,-0.7241210938,0.0957031250,0.0527343750,0.2441406250,-1.5716552734,-0.2899169922
0.7306938171,-0.7241210938,0.0957031250,0.0527343750,0.2441406250,-1.5716552734,-0.0762939453
0.7332630157,-0.7241210938,0.0957031250,0.0527343750,0.5187988281,-1.9226074219,-0.0762939453
0.7358260155,-0.7285156250,0.1000976562,0.0600585938,0.5187988281,-1.9226074219,-0.0762939453
0.7384459972,-0.7285156250,0.1000976562,0.0600585938,-0.1220703125,-2.1209716797,-0.2136230469
0.7411448956,-0.7285156250,0.1000976562,0.0600585938,-0.1220703125,-2.1209716797,-0.2136230469
0.7438428402,-0.7285156250,0.1000976562,0.0590820312,-0.5035400391,-1.9378662109,-0.4272460938
0.7465388775,-0.7241210938,0.1127929688,0.0590820312,-0.5035400391,-1.9378662109,-0.4272460938
0.7492499352,-0.7241210938,0.1127929688,0.0590820312,-0.2593994141,-1.6784667969,-0.3051757812
0.7519478798,-0.7241210938,0.1127929688,0.0590820312,-0.2593994141,-1.6784667969,-0.3051757812
0.7547678947,-0.7299804688,0.1083984375,0.0590820312,0.0305175781,-1.7089843750,-0.2136230469
0.7580130100,-0.7299804688,0.1083984375,0.0590820312,0.0305175781,-1.7089843750,-0.4730224609
0.7607188225,-0.7299804688,0.1083984375,0.0590820312,0.1220703125,-1.6021728516,-0.4730224609
0.7634179592,-0.7299804688,0.1083984375,0.0590820312,0.1220703125,-1.6021728516,-0.3814697266
0.7661190033,-0.7255859375,0.0937500000,0.0649414062,0.4882812500,-1.8615722656,-0.3814697266
0.7688269615,-0.7255859375,0.0937500000,0.0649414062,0.4882812500,-1.8615722656,-0.3051757812
0.7715229988,-0.7255859375,0.0937500000,0.0649414062,0.2593994141,-1.6784667969,-0.3051757812
0.7742218971,-0.7255859375,0.0937500000,0.0678710938,0.2593994141,-1.6784667969,-0.2746582031
0.7769169807,-0.7260742188,0.0991210938,0.0678710938,0.2136230469,-1.9073486328,-0.2746582031
0.7795469761,-0.7260742188,0.0991210938,0.0678710938,0.2136230469,-1.9073486328,-0.5187988281
0.7821118832,-0.7260742188,0.0991210938,0.0678710938,0.3814697266,-1.7089843750,-0.5187988281
0.7846748829,-0.7260742188,0.1030273438,0.0649414062,0.3814697266,-1.7089843750,-0.5187988281
0.7872419357,-0.7221679688,0.1030273438,0.0649414062,1.1749267578,-1.5258789062,-0.5493164062
0.7898550034,-0.7221679688,0.1030273438,0.0649414062,1.1749267578,-1.5258789062,-0.5493164062
0.7924230099,-0.7221679688,0.1030273438,0.0649414062,1.3732910156,-1.7395019531,-0.9765625000
0.7949860096,-0.7290039062,0.1088867188,0.0537109375,1.3732910156,-1.7395019531,-0.9765625000
0.7975540161,-0.7290039062,0.1088867188,0.0537109375,1.4343261719,-1.8310546875,-0.9765625000
0.8001267910,-0.7290039062,0.1088867188,0.0537109375,1.4343261719,-1.8310546875,-0.9765625000
0.8027038574,-0.7290039062,0.1088867188,0.0537109375,1.0223388672,-2.1362304688,-1.0375976562
0.8052649498,-0.7246093750,0.1186523438,0.0532226562,1.0223388672,-2.1362304688,-1.0375976562
0.8084299564,-0.7246093750,0.1186523438,0.0532226562,0.9155273438,-2.1362304688,-1.8157958984
0.8109920025,-0.7246093750,0.1186523438,0.0532226562,0.9155273438,-2.1362304688,-1.8157958984
0.8135550022,-0.7246093750,0.1186523438,0.0532226562,1.4038085938,-2.2735595703,-2.4566650391
0.8161208630,-0.7280273438,0.1191406250,0.0551757812,1.4038085938,-2.2735595703,-2.4566650391
0.8187289238,-0.7280273438,0.1191406250,0.0551757812,2.3345947266,-2.2888183594,-2.9907226562
0.8214077950,-0.7280273438,0.1191406250,0.0551757812,2.3345947266,-2.2888183594,-2.9907226562
0.8239679337,-0.7280273438,0.1191406250,0.0551757812,3.5705566406,-2.4261474609,-2.9754638672
0.8265299797,-0.7231445312,0.0966796875,0.0522460938,3.5705566406,-2.4261474609,-2.9754638672
0.8291277885,-0.7231445312,0.0966796875,0.0522460938,3.5705566406,-2.6397705078,-2.8839111328
0.8316907883,-0.7231445312,0.0966796875,0.0522460938,3.4484863281,-2.6397705078,-2.8839111328
0.8342509270,-0.7231445312,0.0966796875,0.0522460938,3.4484863281,-2.6397705078,-2.8686523438
0.8368198872,-0.7265625000,0.1035156250,0.0488281250,2.9907226562,-2.6092529297,-2.8686523438
0.8393878937,-0.7265625000,0.1035156250,0.0488281250,2.9907226562,-2.6092529297,-2.9602050781
0.8419549465,-0.7265625000,0.1035156250,0.0488281250,2.4871826172,-2.5787353516,-2.9602050781
0.8445119858,-0.7265625000,0.1035156250,0.0537109375,2.4871826172,-2.5787353516,-2.9602050781
0.8470737934,-0.7241210938,0.1025390625,0.0537109375,1.9989013672,-3.0212402344,-2.9296875000
0.8498048782,-0.7241210938,0.1025390625,0.0537109375,1.9989013672,-3.0212402344,-2.9296875000
0.8523719311,-0.7241210938,0.1025390625,0.0537109375,1.3427734375,-3.3569335938,-3.1738281250
0.8549368382,-0.7241210938,0.1025390625,0.0629882812,1.3427734375,-3.3569335938,-3.1738281250
0.8575069904,-0.7260742188,0.1020507812,0.0629882812,1.3885498047,-2.9907226562,-2.8381347656
0.8602828979,-0.7260742188,0.1020507812,0.0629882812,1.3885498047,-2.9907226562,-2.8381347656
0.8629908562,-0.7260742188,0.1020507812,0.0629882812,1.4953613281,-2.8228759766,-2.7465820312
0.8656878471,-0.7163085938,0.1044921875,0.0659179688,1.4953613281,-2.8228759766,-2.7465820312
0.8683888912,-0.7163085938,0.1044921875,0.0659179688,1.5716552734,-3.1585693359,-2.9296875000
0.8710939884,-0.7163085938,0.1044921875,0.0659179688,1.5716552734,-3.1585693359,-2.9296875000
0.8737897873,-0.7163085938,0.1044921875,0.0659179688,1.9378662109,-3.0670166016,-2.8228759766
0.8764820099,-0.7187500000,0.1040039062,0.0644531250,1.9378662109,-3.0670166016,-2.8228759766
0.8791358471,-0.7187500000,0.1040039062,0.0644531250,2.0446777344,-2.9907226562,-2.6702880859
0.8816959858,-0.7187500000,0.1040039062,0.0644531250,2.0446777344,-2.9907226562,-2.6702880859
0.8843688965,-0.7187500000,0.1040039062,0.0644531250,2.3803710938,-2.9602050781,-2.3651123047
0.8869338036,-0.7221679688,0.0991210938,0.0590820312,2.3803710938,-2.9602050781,-2.3651123047
0.8896088600,-0.7221679688,0.0991210938,0.0590820312,2.7465820312,-3.0517578125,-2.4261474609
0.8923130035,-0.7221679688,0.0991210938,0.0590820312,2.7465820312,-3.0517578125,-2.4261474609
0.8950078487,-0.7221679688,0.0991210938,0.0610351562,3.0059814453,-2.5939941406,-2.7618408203
0.8977048397,-0.7260742188,0.0981445312,0.0610351562,3.0059814453,-2.5939941406,-2.7618408203
0.9004168510,-0.7260742188,0.0981445312,0.0610351562,3.1280517578,-1.9073486328,-2.4108886719
0.9031147957,-0.7260742188,0.0981445312,0.0610351562,3.1280517578,-1.9073486328,-2.4108886719
0.9058167934,-0.7260742188,0.0859375000,0.0639648438,3.1585693359,-2.4108886719,-2.3040771484
0.9085609913,-0.7363281250,0.0859375000,0.0639648438,3.1585693359,-2.4108886719,-2.3040771484
0.9112498760,-0.7363281250,0.0859375000,0.0639648438,2.7160644531,-2.4414062500,-2.1209716797
0.9139637947,-0.7363281250,0.0859375000,0.0639648438,2.7160644531,-2.4414062500,-2.1209716797
0.9167108536,-0.7304687500,0.0830078125,0.0654296875,2.8991699219,-2.6245117188,-1.7242431641
0.9198248386,-0.7304687500,0.0830078125,0.0654296875,2.8991699219,-2.6245117188,-1.7242431641
0.9225249290,-0.7304687500,0.0830078125,0.0654296875,2.2735595703,-2.3345947266,-1.3122558594
0.9252228737,-0.7304687500,0.0830078125,0.0654296875,2.2735595703,-2.3345947266,-1.3122558594
0.9279367924,-0.7236328125,0.1040039062,0.0639648438,2.0446777344,-2.1972656250,-1.1901855469
0.9305059910,-0.7236328125,0.1040039062,0.0639648438,2.0446777344,-2.1972656250,-1.1901855469
0.9330728054,-0.7236328125,0.1040039062,0.0639648438,2.2430419922,-2.5177001953,-1.2054443359
0.9356420040,-0.7236328125,0.1040039062,0.0703125000,2.2430419922,-2.5177001953,-1.2054443359
0.9382348061,-0.7255859375,0.0957031250,0.0703125000,2.4871826172,-2.4719238281,-1.2359619141
0.9409379959,-0.7255859375,0.0957031250,0.0703125000,2.4871826172,-2.4719238281,-1.2359619141
0.9436278343,-0.7255859375,0.0957031250,0.0703125000,2.7618408203,-2.3345947266,-1.3885498047
0.9463229179,-0.7255859375,0.1059570312,0.0581054688,2.7618408203,-2.3345947266,-1.3885498047
0.9491000175,-0.7280273438,0.1059570312,0.0581054688,3.0975341797,-2.3803710938,-1.2207031250
0.9516639709,-0.7280273438,0.1059570312,0.0581054688,3.0975341797,-2.3803710938,-1.2207031250
0.9542288780,-0.7280273438,0.1059570312,0.0581054688,3.0975341797,-2.1972656250,-1.0986328125
0.9567949772,-0.7299804688,0.0947265625,0.0664062500,3.1280517578,-2.1972656250,-1.0986328125
0.9593667984,-0.7299804688,0.0947265625,0.0664062500,3.1280517578,-2.1972656250,-1.0986328125
0.9619379044,-0.7299804688,0.0947265625,0.0664062500,3.3264160156,-2.0904541016,-1.0986328125
0.9645059109,-0.7299804688,0.0947265625,0.0664062500,3.3264160156,-2.0904541016,-1.0986328125
0.9670720100,-0.7329101562,0.0961914062,0.0625000000,2.9754638672,-2.0599365234,-0.9460449219
0.9697999954,-0.7329101562,0.0961914062,0.0625000000,2.9754638672,-2.0599365234,-0.9460449219
0.9723668098,-0.7329101562,0.0961914062,0.0625000000,3.1280517578,-2.0294189453,-1.4190673828
0.9749298096,-0.7329101562,0.0961914062,0.0625000000,3.1280517578,-2.0294189453,-1.4190673828
0.9774968624,-0.7231445312,0.0971679688,0.0600585938,2.4414062500,-2.0904541016,-0.8087158203
0.9801709652,-0.7231445312,0.0971679688,0.0600585938,2.4414062500,-2.0904541016,-0.8087158203
0.9827418327,-0.7231445312,0.0971679688,0.0600585938,2.2888183594,-1.9226074219,-0.2899169922
0.9853088856,-0.7231445312,0.0971679688,0.0600585938,2.2888183594,-1.9226074219,-0.2899169922
0.9878818989,-0.7275390625,0.1030273438,0.0595703125,2.2430419922,-2.0904541016,-0.4577636719
0.9905807972,-0.7275390625,0.1030273438,0.0595703125,2.2430419922,-2.0904541016,-0.4577636719
0.9932799339,-0.7275390625,0.1030273438,0.0595703125,2.2430419922,-1.8768310547,-0.3662109375
0.9959728718,-0.7275390625,0.1030273438,0.0625000000,2.2430419922,-1.8768310547,-0.3662109375
0.9986789227,-0.7250976562,0.0957031250,0.0625000000,2.5024414062,-1.7700195312,-0.4882812500
1.0013768673,-0.7250976562,0.0957031250,0.0625000000,2.5024414062,-1.7700195312,-0.4882812500
1.0040788651,-0.7250976562,0.0957031250,0.0625000000,3.2653808594,-1.8310546875,-0.4119873047
1.0067799091,-0.7250976562,0.0947265625,0.0761718750,3.2653808594,-1.8310546875,-0.4119873047
1.0094819069,-0.7275390625,0.0947265625,0.0761718750,2.8839111328,-1.5411376953,-0.0762939453
1.0122849941,-0.7275390625,0.0947265625,0.0761718750,2.8839111328,-1.5411376953,-0.0762939453
1.0149788857,-0.7275390625,0.0947265625,0.0761718750,2.6550292969,-1.6479492188,0.0305175781
1.0176718235,-0.7207031250,0.0937500000,0.0659179688,2.6550292969,-1.6479492188,0.0305175781
1.0203168392,-0.7207031250,0.0937500000,0.0659179688,2.5939941406,-1.3427734375,0.3051757812
1.0228807926,-0.7207031250,0.0937500000,0.0659179688,2.5939941406,-1.3427734375,0.3051757812
1.0254478455,-0.7207031250,0.0937500000,0.0659179688,2.5787353516,-1.2969970703,1.0833740234
1.0280709267,-0.7280273438,0.0864257812,0.0722656250,2.5787353516,-1.2969970703,1.0833740234
1.0307447910,-0.7280273438,0.0864257812,0.0722656250,2.8381347656,-1.6174316406,1.1901855469
1.0334289074,-0.7280273438,0.0864257812,0.0722656250,2.8381347656,-1.6174316406,1.1901855469
1.0363628864,-0.7280273438,0.0864257812,0.0722656250,2.8686523438,-1.1596679688,1.4038085938
1.0392258167,-0.7246093750,0.0942382812,0.0649414062,2.8686523438,-1.1596679688,1.4038085938
1.0418858528,-0.7246093750,0.0942382812,0.0649414062,2.2735595703,-0.8697509766,1.5869140625
1.0445439816,-0.7246093750,0.0942382812,0.0649414062,2.2735595703,-0.8697509766,1.5869140625
1.0472059250,-0.7246093750,0.0957031250,0.0678710938,2.1667480469,-0.9613037109,1.6479492188
1.0499429703,-0.7290039062,0.0957031250,0.0678710938,2.1667480469,-0.9613037109,1.6479492188
1.0526390076,-0.7290039062,0.0957031250,0.0678710938,2.7008056641,-1.2817382812,2.0599365234
1.0553398132,-0.7290039062,0.0957031250,0.0678710938,2.7008056641,-1.2817382812,2.0599365234
1.0580809116,-0.7285156250,0.1083984375,0.0629882812,2.8381347656,-1.1749267578,2.2735595703
1.0606479645,-0.7285156250,0.1083984375,0.0629882812,2.8381347656,-1.1749267578,2.2735595703
1.0632109642,-0.7285156250,0.1083984375,0.0629882812,2.8381347656,-1.2817382812,2.0446777344
1.0657768250,-0.7285156250,0.1083984375,0.0629882812,2.7465820312,-1.2817382812,2.0446777344
1.0683679581,-0.7241210938,0.1113281250,0.0615234375,2.7465820312,-1.2817382812,1.9683837891
1.0709359646,-0.7241210938,0.1113281250,0.0615234375,2.4414062500,-1.1596679688,1.9683837891
1.0735039711,-0.7241210938,0.1113281250,0.0615234375,2.4414062500,-1.1596679688,1.6174316406
1.0761759281,-0.7241210938,0.1113281250,0.0615234375,2.5787353516,-1.0986328125,1.6174316406
1.0787467957,-0.7236328125,0.1171875000,0.0566406250,2.5787353516,-1.0986328125,1.6174316406
1.0813138485,-0.7236328125,0.1171875000,0.0566406250,2.8839111328,-1.2969970703,2.1209716797
1.0838799477,-0.7236328125,0.1171875000,0.0566406250,2.8839111328,-1.2969970703,2.1209716797
1.0864439011,-0.7236328125,0.1171875000,0.0566406250,2.3956298828,-1.4648437500,1.8310546875
1.0890588760,-0.7275390625,0.1108398438,0.0659179688,2.3956298828,-1.4648437500,1.8310546875
1.0916218758,-0.7275390625,0.1108398438,0.0659179688,2.8076171875,-1.4495849609,1.5258789062
1.0941889286,-0.7275390625,0.1108398438,0.0659179688,2.8076171875,-1.4495849609,1.5258789062
1.0967669487,-0.7275390625,0.1108398438,0.0659179688,3.1585693359,-1.1749267578,1.9989013672
1.0994958878,-0.7260742188,0.1083984375,0.0698242188,3.1585693359,-1.1749267578,1.9989013672
1.1021978855,-0.7260742188,0.1083984375,0.0698242188,2.8686523438,-1.2359619141,1.9531250000
1.1048898697,-0.7260742188,0.1083984375,0.0698242188,2.8686523438,-1.2359619141,1.9531250000
1.1075909138,-0.7260742188,0.0981445312,0.0698242188,2.5787353516,-1.2512207031,2.0904541016
1.1102099419,-0.7226562500,0.0981445312,0.0698242188,2.5787353516,-1.2512207031,2.0904541016
1.1127748489,-0.7226562500,0.0981445312,0.0698242188,2.6702880859,-0.9002685547,2.1667480469
1.1153428555,-0.7226562500,0.0981445312,0.0698242188,2.6702880859,-0.9002685547,2.1667480469
1.1178820133,-0.7226562500,0.0976562500,0.0664062500,2.6092529297,-0.8087158203,2.6550292969
1.1205790043,-0.7260742188,0.0976562500,0.0664062500,2.6092529297,-0.8087158203,2.6550292969
1.1232769489,-0.7260742188,0.0976562500,0.0664062500,2.2735595703,-0.5035400391,3.1890869141
1.1259698868,-0.7260742188,0.0976562500,0.0664062500,2.2735595703,-0.5035400391,3.1890869141
1.1286759377,-0.7329101562,0.0976562500,0.0615234375,2.2583007812,-0.2441406250,3.3569335938
1.1313738823,-0.7329101562,0.0976562500,0.0615234375,2.2583007812,-0.2441406250,3.3569335938
1.1340727806,-0.7329101562,0.0976562500,0.0615234375,2.3956298828,-0.6103515625,3.4637451172
1.1367688179,-0.7329101562,0.0976562500,0.0615234375,2.3956298828,-0.6103515625,3.4637451172
1.1394758224,-0.7260742188,0.0927734375,0.0732421875,2.3956298828,-0.4730224609,3.9062500000
1.1422798634,-0.7260742188,0.0927734375,0.0732421875,2.2735595703,-0.4730224609,3.9062500000
1.1449799538,-0.7260742188,0.0927734375,0.0732421875,1.8615722656,-0.3814697266,3.7078857422
1.1476747990,-0.7260742188,0.0927734375,0.0561523438,1.8615722656,-0.3814697266,3.7078857422
1.1502659321,-0.7226562500,0.1113281250,0.0561523438,1.8615722656,-0.3967285156,3.9672851562
1.1528367996,-0.7226562500,0.1113281250,0.0561523438,1.9531250000,-0.3967285156,3.9672851562
1.1554999352,-0.7226562500,0.1113281250,0.0561523438,1.9531250000,-0.3967285156,4.0283203125
1.1585459709,-0.7299804688,0.1093750000,0.0634765625,2.1514892578,-0.3967285156,4.0283203125
1.1612458229,-0.7299804688,0.1093750000,0.0634765625,2.1514892578,-0.3509521484,4.0740966797
1.1639440060,-0.7299804688,0.1093750000,0.0634765625,2.1820068359,-0.3509521484,4.0740966797
1.1666429043,-0.7299804688,0.1093750000,0.0634765625,2.1820068359,-0.6256103516,3.8909912109
1.1693530083,-0.7231445312,0.1171875000,0.0654296875,1.8920898438,-0.6256103516,3.8909912109
1.1720519066,-0.7231445312,0.1171875000,0.0654296875,1.8920898438,-0.4882812500,3.6010742188
1.1747620106,-0.7231445312,0.1171875000,0.0654296875,1.7089843750,-0.4882812500,3.6010742188
1.1774599552,-0.7231445312,0.1171875000,0.0654296875,1.7089843750,-0.4119873047,3.3416748047
1.1801710129,-0.7221679688,0.1103515625,0.0659179688,2.1057128906,-0.4119873047,3.3416748047
1.1828689575,-0.7221679688,0.1103515625,0.0659179688,2.1057128906,-0.2746582031,2.9296875000
1.1855659485,-0.7221679688,0.1103515625,0.0659179688,1.9531250000,-0.2746582031,2.9296875000
1.1882638931,-0.7221679688,0.1103515625,0.0654296875,1.9531250000,-0.3356933594,3.2196044922
1.1908278465,-0.7304687500,0.1049804688,0.0654296875,2.2888183594,-0.3356933594,3.2196044922
1.1933898926,-0.7304687500,0.1049804688,0.0654296875,2.2888183594,-0.3356933594,3.4942626953
1.1959619522,-0.7304687500,0.1049804688,0.0654296875,2.4261474609,-0.3509521484,3.4942626953
1.1985650063,-0.7304687500,0.1103515625,0.0556640625,2.4261474609,-0.3509521484,3.4942626953
1.2011640072,-0.7255859375,0.1103515625,0.0556640625,2.1209716797,-0.6256103516,3.3264160156
1.2039508820,-0.7255859375,0.1103515625,0.0556640625,2.1209716797,-0.6256103516,3.3264160156
1.2066259384,-0.7255859375,0.1103515625,0.0556640625,1.8768310547,-0.2593994141,3.4484863281
1.2092468739,-0.7221679688,0.1127929688,0.0717773438,1.8768310547,-0.2593994141,3.4484863281
1.2118148804,-0.7221679688,0.1127929688,0.0717773438,1.8768310547,-0.0457763672,3.6163330078
1.2143828869,-0.7221679688,0.1127929688,0.0717773438,1.8768310547,-0.0457763672,3.6163330078
1.2169508934,-0.7221679688,0.1127929688,0.0717773438,2.4719238281,-0.3204345703,4.1656494141
1.2196888924,-0.7187500000,0.1074218750,0.0581054688,2.4719238281,-0.3204345703,4.1656494141
1.2223908901,-0.7187500000,0.1074218750,0.0581054688,2.2583007812,-0.2288818359,4.4403076172
1.2250897884,-0.7187500000,0.1074218750,0.0581054688,2.2583007812,-0.2288818359,4.4403076172
1.2277798653,-0.7187500000,0.1074218750,0.0581054688,2.1514892578,-0.3509521484,4.1961669922
1.2304859161,-0.7177734375,0.1088867188,0.0629882812,2.1514892578,-0.3509521484,4.1961669922
1.2331738472,-0.7177734375,0.1088867188,0.0629882812,1.6632080078,-0.5340576172,3.9825439453
1.2358667850,-0.7177734375,0.1088867188,0.0629882812,1.6632080078,-0.5340576172,3.9825439453
1.2385568619,-0.7177734375,0.1088867188,0.0668945312,1.6632080078,-0.1525878906,4.3487548828
1.2411248684,-0.7285156250,0.1088867188,0.0668945312,1.6632080078,-0.1525878906,4.3487548828
1.2436947823,-0.7285156250,0.1088867188,0.0668945312,1.9989013672,-0.2136230469,4.8370361328
1.2462599277,-0.7285156250,0.1088867188,0.0668945312,1.9989013672,-0.2136230469,4.8370361328
1.2488789558,-0.7285156250,0.1088867188,0.0595703125,1.6174316406,-0.1983642578,4.9133300781
1.2515799999,-0.7216796875,0.1113281250,0.0595703125,1.6174316406,-0.1983642578,4.9133300781
1.2542729378,-0.7216796875,0.1113281250,0.0595703125,1.6937255859,-0.0610351562,5.5084228516
1.2569708824,-0.7216796875,0.1113281250,0.0595703125,1.6937255859,-0.0610351562,5.5084228516
1.2596769333,-0.7319335938,0.1191406250,0.0629882812,1.5106201172,0.1373291016,5.6610107422
1.2623798847,-0.7319335938,0.1191406250,0.0629882812,1.5106201172,0.1373291016,5.6610107422
1.2650799751,-0.7319335938,0.1191406250,0.0629882812,1.3122558594,-0.2136230469,5.0048828125
1.2677807808,-0.7319335938,0.1191406250,0.0629882812,1.3122558594,-0.2136230469,5.0048828125
1.2705948353,-0.7241210938,0.1215820312,0.0590820312,0.9918212891,-0.0457763672,4.3792724609
1.2732989788,-0.7241210938,0.1215820312,0.0590820312,0.9918212891,-0.0457763672,4.3792724609
1.2761669159,-0.7241210938,0.1215820312,0.0590820312,1.4801025391,-0.1220703125,4.3029785156
1.2790219784,-0.7241210938,0.1215820312,0.0654296875,1.4801025391,-0.1220703125,4.3029785156
1.2817249298,-0.7211914062,0.1201171875,0.0654296875,1.8463134766,0.0000000000,4.4708251953
1.2844238281,-0.7211914062,0.1201171875,0.0654296875,1.8463134766,0.0000000000,4.4708251953
1.2871289253,-0.7211914062,0.1201171875,0.0654296875,2.0294189453,-0.1831054688,4.4250488281
1.2897529602,-0.7211914062,0.1264648438,0.0571289062,2.0294189453,-0.1831054688,4.4250488281
1.2923247814,-0.7197265625,0.1264648438,0.0571289062,2.0294189453,-0.0762939453,4.3945312500
1.2948918343,-0.7197265625,0.1264648438,0.0571289062,2.0294189453,-0.0762939453,4.3945312500
1.2974569798,-0.7197265625,0.1264648438,0.0571289062,2.1667480469,-0.0305175781,4.1809082031
1.3004918098,-0.7255859375,0.1181640625,0.0620117188,2.1667480469,-0.0305175781,4.1809082031
1.3037919998,-0.7255859375,0.1181640625,0.0620117188,2.0446777344,-0.1220703125,4.4555664062
1.3064939976,-0.7255859375,0.1181640625,0.0620117188,2.0446777344,-0.1220703125,4.4555664062
1.3091449738,-0.7255859375,0.1181640625,0.0654296875,1.8768310547,-0.2593994141,3.7689208984
1.3117098808,-0.7241210938,0.1147460938,0.0654296875,1.8768310547,-0.2593994141,3.7689208984
1.3142778873,-0.7241210938,0.1147460938,0.0654296875,1.8005371094,-0.1983642578,4.1961669922
1.3168399334,-0.7241210938,0.1147460938,0.0654296875,1.8005371094,-0.1983642578,4.1961669922
1.3195388317,-0.7241210938,0.1147460938,0.0649414062,1.6174316406,0.0457763672,4.8217773438
1.3222408295,-0.7294921875,0.1201171875,0.0649414062,1.6174316406,0.0457763672,4.8217773438
1.3249390125,-0.7294921875,0.1201171875,0.0649414062,1.4038085938,-0.0457763672,4.8065185547
1.3276410103,-0.7294921875,0.1201171875,0.0649414062,1.4038085938,-0.0457763672,4.8065185547
1.3303430080,-0.7221679688,0.1186523438,0.0571289062,1.3427734375,-0.1220703125,4.5623779297
1.3330409527,-0.7221679688,0.1186523438,0.0571289062,1.3427734375,-0.1220703125,4.5623779297
1.3358550072,-0.7221679688,0.1186523438,0.0571289062,1.2512207031,-0.2441406250,4.6234130859
1.3385407925,-0.7221679688,0.1186523438,0.0571289062,1.2512207031,-0.2441406250,4.6234130859
1.3411059380,-0.7246093750,0.1225585938,0.0639648438,1.3122558594,-0.2136230469,4.4860839844
1.3436768055,-0.7246093750,0.1225585938,0.0639648438,1.3122558594,-0.2136230469,4.4860839844
1.3462409973,-0.7246093750,0.1225585938,0.0639648438,1.3122558594,0.0457763672,4.0893554688
1.3489007950,-0.7246093750,0.1225585938,0.0639648438,1.1291503906,0.0457763672,4.0893554688
1.3514668941,-0.7202148438,0.1235351562,0.0532226562,1.1291503906,0.0457763672,4.3029785156
1.3540308475,-0.7202148438,0.1235351562,0.0532226562,1.1596679688,0.0915527344,4.3029785156
1.3566038609,-0.7202148438,0.1235351562,0.0532226562,1.1596679688,0.0915527344,4.2572021484
1.3593180180,-0.7202148438,0.1235351562,0.0532226562,0.9307861328,-0.0610351562,4.2572021484
1.3620200157,-0.7231445312,0.1279296875,0.0620117188,0.9307861328,-0.0610351562,4.2877197266
1.3647198677,-0.7231445312,0.1279296875,0.0620117188,1.4495849609,0.0610351562,4.2877197266
1.3674159050,-0.7231445312,0.1279296875,0.0620117188,1.4495849609,0.0610351562,4.4555664062
1.3701598644,-0.7231445312,0.1235351562,0.0708007812,1.4190673828,0.2746582031,4.4555664062
1.3728590012,-0.7211914062,0.1235351562,0.0708007812,1.4190673828,0.2746582031,4.3487548828
1.3755569458,-0.7211914062,0.1235351562,0.0708007812,1.2817382812,0.1373291016,4.3487548828
1.3782558441,-0.7211914062,0.1235351562,0.0708007812,1.2817382812,0.1373291016,4.3640136719
1.3809528351,-0.7207031250,0.1225585938,0.0551757812,1.0833740234,0.0305175781,4.3640136719
1.3836519718,-0.7207031250,0.1225585938,0.0551757812,1.0833740234,0.0305175781,4.4250488281
1.3863458633,-0.7207031250,0.1225585938,0.0551757812,0.9460449219,0.0762939453,4.4250488281
1.3890039921,-0.7207031250,0.1225585938,0.0551757812,0.9460449219,0.0762939453,4.4250488281
1.3915657997,-0.7192382812,0.1323242188,0.0664062500,1.1901855469,-0.1373291016,4.2877197266
1.3941287994,-0.7192382812,0.1323242188,0.0664062500,1.1901855469,-0.1373291016,4.2877197266
1.3966908455,-0.7192382812,0.1323242188,0.0664062500,1.4190673828,-0.0457763672,3.8452148438
1.3994410038,-0.7192382812,0.1323242188,0.0664062500,1.4190673828,-0.0457763672,3.8452148438
1.4019978046,-0.7163085938,0.1274414062,0.0507812500,1.0986328125,0.1831054688,3.9672851562
1.4045579433,-0.7163085938,0.1274414062,0.0507812500,1.0986328125,0.1831054688,3.9672851562
1.4071209431,-0.7163085938,0.1274414062,0.0507812500,1.3427734375,0.1831054688,3.5400390625
1.4097199440,-0.7163085938,0.1274414062,0.0507812500,1.3427734375,0.1831054688,3.5400390625
1.4122838974,-0.7285156250,0.1259765625,0.0654296875,1.0375976562,0.0152587891,3.1127929688
1.4148809910,-0.7285156250,0.1259765625,0.0654296875,1.0375976562,0.0152587891,3.1127929688
1.4174499512,-0.7285156250,0.1259765625,0.0654296875,0.8392333984,-0.2899169922,3.0517578125
1.4200677872,-0.7285156250,0.1259765625,0.0654296875,0.8392333984,-0.2899169922,3.0517578125
1.4226279259,-0.7231445312,0.1293945312,0.0678710938,0.6866455078,-0.0610351562,3.1585693359
1.4252448082,-0.7231445312,0.1293945312,0.0678710938,0.6866455078,-0.0610351562,3.1585693359
1.4285678864,-0.7231445312,0.1293945312,0.0678710938,0.9613037109,-0.0457763672,2.7008056641
1.4311327934,-0.7231445312,0.1298828125,0.0517578125,0.9613037109,-0.0457763672,2.7008056641
1.4336938858,-0.7192382812,0.1298828125,0.0517578125,0.9918212891,-0.3051757812,2.8839111328
1.4362587929,-0.7192382812,0.1298828125,0.0517578125,0.9918212891,-0.3051757812,2.8839111328
1.4388267994,-0.7192382812,0.1298828125,0.0517578125,0.9918212891,-0.1831054688,2.5787353516
1.4413897991,-0.7207031250,0.1347656250,0.0605468750,0.6256103516,-0.1831054688,2.5787353516
1.4439468384,-0.7207031250,0.1347656250,0.0605468750,0.6256103516,3.7231445312,2.3498535156
1.4465148449,-0.7207031250,0.1347656250,0.0605468750,0.1983642578,0.0000000000,2.3498535156
1.4491558075,-0.7207031250,0.1347656250,0.0605468750,0.1983642578,0.0000000000,2.3803710938
1.4517168999,-0.7260742188,0.1235351562,0.0537109375,0.4730224609,-0.2746582031,2.3803710938
1.4542798996,-0.7260742188,0.1235351562,0.0537109375,0.4730224609,-0.2746582031,2.3803710938
1.4568397999,-0.7260742188,0.1235351562,0.0537109375,0.4577636719,-0.4119873047,2.1820068359
1.4594638348,-0.7260742188,0.1235351562,0.0537109375,0.4577636719,-0.4119873047,2.1820068359
1.4621348381,-0.7333984375,0.1269531250,0.0615234375,0.4577636719,-0.5035400391,2.1362304688
1.4646999836,-0.7333984375,0.1269531250,0.0615234375,0.4577636719,-0.5035400391,2.1362304688
1.4672608376,-0.7333984375,0.1269531250,0.0615234375,0.3356933594,-0.1983642578,2.4871826172
1.4699828625,-0.7333984375,0.1269531250,0.0615234375,0.3356933594,-0.1983642578,2.4871826172
1.4725439548,-0.7236328125,0.1333007812,0.0615234375,0.5798339844,-0.1983642578,2.4261474609
1.4751088619,-0.7236328125,0.1333007812,0.0615234375,0.5798339844,-0.1983642578,2.4261474609
1.4776699543,-0.7236328125,0.1333007812,0.0615234375,0.3356933594,-0.2288818359,1.9378662109
1.4803609848,-0.7236328125,0.1333007812,0.0615234375,0.3356933594,-0.2288818359,1.9378662109
1.4829239845,-0.7153320312,0.1347656250,0.0625000000,0.5950927734,-0.1525878906,1.9989013672
1.4854898453,-0.7153320312,0.1347656250,0.0625000000,0.5950927734,-0.1525878906,1.9989013672
1.4881148338,-0.7153320312,0.1347656250,0.0625000000,0.7019042969,-0.3662109375,1.8768310547
1.4906818867,-0.7153320312,0.1347656250,0.0625000000,0.7019042969,-0.3662109375,1.8768310547
1.4932539463,-0.7148437500,0.1357421875,0.0527343750,0.7019042969,-0.5798339844,1.8920898438
1.4958219528,-0.7148437500,0.1357421875,0.0527343750,0.6103515625,-0.5798339844,1.8920898438
1.4984188080,-0.7148437500,0.1357421875,0.0527343750,0.6103515625,-0.4882812500,1.6632080078
1.5011188984,-0.7148437500,0.1357421875,0.0620117188,0.3051757812,-0.4882812500,1.6632080078
1.5038208961,-0.7221679688,0.1362304688,0.0620117188,0.3051757812,-0.4882812500,1.5106201172
1.5065169334,-0.7221679688,0.1362304688,0.0620117188,0.7171630859,-0.3814697266,1.5106201172
1.5092329979,-0.7221679688,0.1362304688,0.0620117188,0.7171630859,-0.3814697266,1.2207031250
1.5119318962,-0.7221679688,0.1298828125,0.0673828125,1.1291503906,-0.6866455078,1.2207031250
1.5146238804,-0.7275390625,0.1298828125,0.0673828125,1.1291503906,-0.6866455078,1.2969970703
1.5173199177,-0.7275390625,0.1298828125,0.0673828125,1.0986328125,-0.6866455078,1.2969970703
1.5200297832,-0.7275390625,0.1298828125,0.0673828125,1.0986328125,-0.6866455078,1.3427734375
1.5227248669,-0.7236328125,0.1269531250,0.0488281250,0.9918212891,-0.7934570312,1.3427734375
1.5255348682,-0.7236328125,0.1269531250,0.0488281250,0.9918212891,-0.7934570312,1.5411376953
1.5282449722,-0.7236328125,0.1269531250,0.0488281250,0.7171630859,-0.6408691406,1.5411376953
1.5309469700,-0.7236328125,0.1269531250,0.0488281250,0.7171630859,-0.6408691406,1.4190673828
1.5336489677,-0.7290039062,0.1342773438,0.0551757812,0.5035400391,-0.3814697266,1.4190673828
1.5364289284,-0.7290039062,0.1342773438,0.0551757812,0.5035400391,-0.3814697266,1.3732910156
1.5390889645,-0.7290039062,0.1342773438,0.0551757812,0.3509521484,-0.5493164062,1.3732910156
1.5416560173,-0.7290039062,0.1342773438,0.0639648438,0.3509521484,-0.5493164062,1.3275146484
1.5442278385,-0.7216796875,0.1372070312,0.0639648438,0.5035400391,-0.5035400391,1.3275146484
1.5467908382,-0.7216796875,0.1372070312,0.0639648438,0.5035400391,-0.5035400391,1.3275146484
1.5494439602,-0.7216796875,0.1372070312,0.0639648438,0.9155273438,-0.4882812500,1.1444091797
1.5521569252,-0.7216796875,0.1357421875,0.0507812500,0.9155273438,-0.4882812500,1.1444091797
1.5548558235,-0.7177734375,0.1357421875,0.0507812500,0.2288818359,-0.3204345703,1.1749267578
1.5575549603,-0.7177734375,0.1357421875,0.0507812500,0.2288818359,-0.3204345703,1.1749267578
1.5602629185,-0.7177734375,0.1357421875,0.0507812500,0.1220703125,-0.4119873047,1.2969970703
1.5629568100,-0.7182617188,0.1303710938,0.0590820312,0.1220703125,-0.4119873047,1.2969970703
1.5656609535,-0.7182617188,0.1303710938,0.0590820312,0.1831054688,-0.3967285156,1.2359619141
1.5683529377,-0.7182617188,0.1303710938,0.0590820312,0.1831054688,-0.3967285156,1.2359619141
1.5709228516,-0.7182617188,0.1303710938,0.0590820312,-0.1068115234,-0.3814697266,0.9918212891
1.5734908581,-0.7172851562,0.1342773438,0.0517578125,-0.1068115234,-0.3814697266,0.9918212891
1.5760548115,-0.7172851562,0.1342773438,0.0517578125,-0.1678466797,-0.5187988281,0.7171630859
1.5787398815,-0.7172851562,0.1342773438,0.0517578125,-0.1678466797,-0.5187988281,0.7171630859
1.5813179016,-0.7172851562,0.1342773438,0.0517578125,-0.2593994141,-0.8697509766,1.0070800781
1.5838868618,-0.7226562500,0.1347656250,0.0605468750,-0.2593994141,-0.8697509766,1.0070800781
1.5864529610,-0.7226562500,0.1347656250,0.0605468750,-0.2593994141,-0.4730224609,0.9613037109
1.5891659260,-0.7226562500,0.1347656250,0.0605468750,-0.2593994141,-0.4730224609,0.9613037109
1.5917308331,-0.7226562500,0.1347656250,0.0605468750,-0.0305175781,-0.0152587891,1.0986328125
1.5943019390,-0.7207031250,0.1269531250,0.0708007812,-0.0305175781,-0.0152587891,1.0986328125
1.5968639851,-0.7207031250,0.1269531250,0.0708007812,-0.1678466797,0.0152587891,0.8087158203
1.5995597839,-0.7207031250,0.1269531250,0.0708007812,-0.1678466797,0.0152587891,0.8087158203
1.6022679806,-0.7207031250,0.1269531250,0.0698242188,-0.6103515625,-0.0152587891,0.6256103516
1.6049687862,-0.7187500000,0.1352539062,0.0698242188,-0.6103515625,-0.0152587891,0.6256103516
1.6076669693,-0.7187500000,0.1352539062,0.0698242188,-0.5493164062,0.1068115234,0.3814697266
1.6103768349,-0.7187500000,0.1352539062,0.0698242188,-0.5493164062,0.1068115234,0.3814697266
1.6130759716,-0.7172851562,0.1396484375,0.0595703125,-0.4119873047,-0.2746582031,0.2288818359
1.6157748699,-0.7172851562,0.1396484375,0.0595703125,-0.4119873047,-0.2746582031,0.2288818359
1.6184778214,-0.7172851562,0.1396484375,0.0595703125,-0.4119873047,-0.3967285156,0.1068115234
1.6211748123,-0.7172851562,0.1396484375,0.0595703125,-0.3509521484,-0.3967285156,0.1068115234
1.6238808632,-0.7177734375,0.1474609375,0.0551757812,-0.3509521484,-0.3051757812,0.0915527344
1.6265799999,-0.7177734375,0.1474609375,0.0551757812,-0.9002685547,-0.3051757812,0.0915527344
1.6292808056,-0.7177734375,0.1474609375,0.0551757812,-0.9002685547,-0.1983642578,-0.1220703125
1.6319789886,-0.7177734375,0.1474609375,0.0551757812,-0.4882812500,-0.1983642578,-0.1220703125
1.6346759796,-0.7138671875,0.1352539062,0.0517578125,-0.4882812500,-0.0762939453,-0.1678466797
1.6373767853,-0.7138671875,0.1352539062,0.0517578125,-0.4577636719,-0.0762939453,-0.1678466797
1.6399710178,-0.7138671875,0.1352539062,0.0517578125,-0.4577636719,-0.0762939453,-0.1831054688
1.6425399780,-0.7138671875,0.1352539062,0.0600585938,-0.7171630859,-0.1220703125,-0.1831054688
1.6451098919,-0.7280273438,0.1352539062,0.0600585938,-0.7171630859,-0.1220703125,-0.2136230469
1.6476798058,-0.7280273438,0.1352539062,0.0600585938,-1.0528564453,-0.1068115234,-0.2136230469
1.6503968239,-0.7280273438,0.1352539062,0.0600585938,-1.0528564453,-0.1068115234,-0.2593994141
1.6531980038,-0.7280273438,0.1328125000,0.0571289062,-0.9307861328,-0.2288818359,-0.2593994141
1.6558928490,-0.7241210938,0.1328125000,0.0571289062,-0.9307861328,-0.2288818359,-0.3967285156
1.6585998535,-0.7241210938,0.1328125000,0.0571289062,-1.2817382812,-0.1831054688,-0.3967285156
1.6612999439,-0.7241210938,0.1328125000,0.0571289062,-1.2817382812,-0.1831054688,-0.7019042969
1.6639959812,-0.7187500000,0.1372070312,0.0620117188,-1.1444091797,-0.4119873047,-0.7019042969
1.6667017937,-0.7187500000,0.1372070312,0.0620117188,-1.1444091797,-0.4119873047,-0.7476806641
1.6694109440,-0.7187500000,0.1372070312,0.0620117188,-1.3122558594,-0.2441406250,-0.7476806641
1.6721148491,-0.7187500000,0.1372070312,0.0620117188,-1.3122558594,-0.2441406250,-0.7324218750
1.6748118401,-0.7236328125,0.1362304688,0.0634765625,-1.4038085938,-0.0915527344,-0.7324218750
1.6775078773,-0.7236328125,0.1362304688,0.0634765625,-1.4038085938,-0.0915527344,-0.7324218750
1.6802239418,-0.7236328125,0.1362304688,0.0634765625,-0.7324218750,-0.2441406250,-0.5950927734
1.6829178333,-0.7236328125,0.1362304688,0.0532226562,-0.7324218750,-0.2441406250,-0.5950927734
1.6856138706,-0.7187500000,0.1430664062,0.0532226562,-0.5950927734,-0.7476806641,-0.9918212891
1.6883158684,-0.7187500000,0.1430664062,0.0532226562,-0.5950927734,-0.7476806641,-0.9918212891
1.6908819675,-0.7187500000,0.1430664062,0.0532226562,-0.5798339844,-0.9613037109,-1.5563964844
1.6934537888,-0.7187500000,0.1386718750,0.0649414062,-0.5798339844,-0.9613037109,-1.5563964844
1.6960189342,-0.7167968750,0.1386718750,0.0649414062,-0.4882812500,-0.3356933594,-1.6784667969
1.6986799240,-0.7167968750,0.1386718750,0.0649414062,-0.4882812500,-0.3356933594,-1.6784667969
1.7013838291,-0.7167968750,0.1386718750,0.0649414062,-0.5950927734,-0.3967285156,-1.5411376953
1.7040808201,-0.7158203125,0.1367187500,0.0566406250,-0.5950927734,-0.3967285156,-1.5411376953
1.7067778111,-0.7158203125,0.1367187500,0.0566406250,-0.8850097656,-0.5798339844,-1.3885498047
1.7094860077,-0.7158203125,0.1367187500,0.0566406250,-0.8850097656,-0.5798339844,-1.3885498047
1.7121798992,-0.7158203125,0.1367187500,0.0566406250,-1.4190673828,-0.3967285156,-1.5563964844
1.7148878574,-0.7236328125,0.1396484375,0.0625000000,-1.4190673828,-0.3967285156,-1.5563964844
1.7176859379,-0.7236328125,0.1396484375,0.0625000000,-1.7700195312,-0.5187988281,-1.7395019531
1.7203979492,-0.7236328125,0.1396484375,0.0625000000,-1.7700195312,-0.5187988281,-1.7395019531
1.7231018543,-0.7236328125,0.1396484375,0.0625000000,-1.8157958984,-0.4119873047,-2.0599365234
1.7257959843,-0.7158203125,0.1357421875,0.0566406250,-1.8157958984,-0.4119873047,-2.0599365234
1.7287559509,-0.7158203125,0.1357421875,0.0566406250,-1.6632080078,-0.8697509766,-2.2277832031
1.7314188480,-0.7158203125,0.1357421875,0.0566406250,-1.6632080078,-0.8697509766,-2.2277832031
1.7341628075,-0.7255859375,0.1352539062,0.0678710938,-1.4343261719,-0.5340576172,-2.3193359375
1.7371997833,-0.7255859375,0.1352539062,0.0678710938,-1.4343261719,-0.5340576172,-2.3193359375
1.7398488522,-0.7255859375,0.1352539062,0.0678710938,-1.5563964844,-0.5035400391,-2.7923583984
1.7424190044,-0.7255859375,0.1352539062,0.0678710938,-1.5563964844,-0.5035400391,-2.7923583984
1.7449839115,-0.7114257812,0.1450195312,0.0585937500,-1.6021728516,-0.3051757812,-2.7923583984
1.7475478649,-0.7114257812,0.1450195312,0.0585937500,-1.6021728516,-0.3051757812,-2.7923583984
1.7502398491,-0.7114257812,0.1450195312,0.0585937500,-1.8310546875,-0.2593994141,-3.0670166016
1.7529389858,-0.7114257812,0.1450195312,0.0585937500,-1.8310546875,-0.2593994141,-3.0670166016
1.7556409836,-0.7202148438,0.1337890625,0.0512695312,-1.7089843750,-0.5187988281,-3.5400390625
1.7583529949,-0.7202148438,0.1337890625,0.0512695312,-1.7089843750,-0.5187988281,-3.5400390625
1.7610518932,-0.7202148438,0.1337890625,0.0512695312,-1.3275146484,-0.5645751953,-3.6315917969
1.7637538910,-0.7202148438,0.1337890625,0.0629882812,-1.3275146484,-0.5645751953,-3.6315917969
1.7664577961,-0.7221679688,0.1376953125,0.0629882812,-1.2817382812,-0.4577636719,-3.7384033203
1.7691099644,-0.7221679688,0.1376953125,0.0629882812,-1.2817382812,-0.4577636719,-3.7384033203
1.7716758251,-0.7221679688,0.1376953125,0.0629882812,-1.5106201172,-0.7781982422,-3.6621093750
1.7742447853,-0.7221679688,0.1279296875,0.0556640625,-1.5106201172,-0.7781982422,-3.6621093750
1.7768108845,-0.7265625000,0.1279296875,0.0556640625,-1.8463134766,-1.0223388672,-4.0740966797
1.7794368267,-0.7265625000,0.1279296875,0.0556640625,-1.8463134766,-1.0223388672,-4.0740966797
1.7819998264,-0.7265625000,0.1279296875,0.0556640625,-1.6479492188,-0.6256103516,-4.0588378906
1.7846679688,-0.7270507812,0.1250000000,0.0590820312,-1.6479492188,-0.6256103516,-4.0588378906
1.7872419357,-0.7270507812,0.1250000000,0.0590820312,-1.1291503906,-0.6408691406,-3.3264160156
1.7899699211,-0.7270507812,0.1250000000,0.0590820312,-1.1291503906,-0.6408691406,-3.3264160156
1.7925407887,-0.7270507812,0.1250000000,0.0590820312,-1.1291503906,-0.5645751953,-3.7689208984
1.7951018810,-0.7270507812,0.1274414062,0.0708007812,-1.3580322266,-0.5645751953,-3.7689208984
1.7976667881,-0.7270507812,0.1274414062,0.0708007812,-1.3580322266,-0.5645751953,-3.7078857422
1.8003909588,-0.7270507812,0.1274414062,0.0708007812,-1.3885498047,-0.6561279297,-3.7078857422
1.8030908108,-0.7270507812,0.1274414062,0.0708007812,-1.3885498047,-0.6561279297,-3.6315917969
1.8057839870,-0.7241210938,0.1254882812,0.0634765625,-1.1138916016,-0.9765625000,-3.6315917969
1.8085339069,-0.7241210938,0.1254882812,0.0634765625,-1.1138916016,-0.9765625000,-3.5705566406
1.8112349510,-0.7241210938,0.1254882812,0.0634765625,-1.0375976562,-1.0833740234,-3.5705566406
1.8139319420,-0.7241210938,0.1254882812,0.0634765625,-1.0375976562,-1.0833740234,-3.9215087891
1.8166298866,-0.7299804688,0.1181640625,0.0678710938,-1.2512207031,-1.0986328125,-3.9215087891
1.8193459511,-0.7299804688,0.1181640625,0.0678710938,-1.2512207031,-1.0986328125,-3.9215087891
1.8220458031,-0.7299804688,0.1181640625,0.0678710938,-1.3427734375,-0.7324218750,-3.9215087891
1.8247449398,-0.7299804688,0.1259765625,0.0649414062,-1.3427734375,-0.7324218750,-3.1280517578
1.8274397850,-0.7275390625,0.1259765625,0.0649414062,-0.9155273438,-0.3662109375,-3.1280517578
1.8302829266,-0.7275390625,0.1259765625,0.0649414062,-0.9155273438,-0.3662109375,-2.4871826172
1.8329789639,-0.7275390625,0.1259765625,0.0649414062,-0.8239746094,-0.6561279297,-2.4871826172
1.8356859684,-0.7207031250,0.1250000000,0.0581054688,-0.8239746094,-0.6561279297,-2.3345947266
1.8383829594,-0.7207031250,0.1250000000,0.0581054688,-0.6561279297,-1.0528564453,-2.3345947266
1.8409509659,-0.7207031250,0.1250000000,0.0581054688,-0.6561279297,-1.0528564453,-2.5329589844
1.8435199261,-0.7207031250,0.1250000000,0.0581054688,-0.7171630859,-0.8697509766,-2.5329589844
1.8462150097,-0.7197265625,0.1298828125,0.0556640625,-0.7171630859,-0.8697509766,-2.4566650391
1.8496170044,-0.7197265625,0.1298828125,0.0556640625,-1.0070800781,-0.3814697266,-2.4566650391
1.8521828651,-0.7197265625,0.1298828125,0.0556640625,-1.0070800781,-0.3814697266,-2.4261474609
1.8547468185,-0.7197265625,0.1298828125,0.0659179688,-0.7324218750,-0.0152587891,-2.4261474609
1.8573060036,-0.7231445312,0.1254882812,0.0659179688,-0.7324218750,-0.0152587891,-2.3040771484
1.8599069118,-0.7231445312,0.1254882812,0.0659179688,-0.5493164062,-0.3356933594,-2.3040771484
1.8624689579,-0.7231445312,0.1254882812,0.0659179688,-0.5493164062,-0.3356933594,-2.3040771484
1.8650310040,-0.7231445312,0.1201171875,0.0585937500,-0.4425048828,-0.8544921875,-2.5024414062
1.8675918579,-0.7265625000,0.1201171875,0.0585937500,-0.4425048828,-0.8544921875,-2.5024414062
1.8701589108,-0.7265625000,0.1201171875,0.0585937500,-0.6713867188,-0.5645751953,-2.2888183594
1.8727219105,-0.7265625000,0.1201171875,0.0585937500,-0.6713867188,-0.5645751953,-2.2888183594
1.8752839565,-0.7265625000,0.1245117188,0.0620117188,-0.8850097656,-0.5187988281,-2.0599365234
1.8778789043,-0.7231445312,0.1245117188,0.0620117188,-0.8850097656,-0.5187988281,-2.0599365234
1.8804500103,-0.7231445312,0.1245117188,0.0620117188,-0.8087158203,-0.4882812500,-2.0141601562
1.8830108643,-0.7231445312,0.1245117188,0.0620117188,-0.8087158203,-0.4882812500,-2.0141601562
1.8855698109,-0.7231445312,0.1264648438,0.0644531250,-0.7629394531,-0.4730224609,-1.6632080078
1.8881759644,-0.7236328125,0.1264648438,0.0644531250,-0.7629394531,-0.4730224609,-1.6632080078
1.8907399178,-0.7236328125,0.1264648438,0.0644531250,-0.3204345703,-1.0528564453,-1.8310546875
1.8932979107,-0.7236328125,0.1264648438,0.0644531250,-0.3204345703,-1.0528564453,-1.8310546875
1.8958590031,-0.7290039062,0.1215820312,0.0654296875,-0.3204345703,-0.9155273438,-1.7852783203
1.8985388279,-0.7290039062,0.1215820312,0.0654296875,-0.6866455078,-0.9155273438,-1.7852783203
1.9011089802,-0.7290039062,0.1215820312,0.0654296875,-0.6866455078,-0.9155273438,-1.6937255859
1.9036729336,-0.7290039062,0.1215820312,0.0654296875,-0.3967285156,-0.7934570312,-1.6937255859
1.9062438011,-0.7187500000,0.1181640625,0.0688476562,-0.3967285156,-0.7934570312,-1.5563964844
1.9089357853,-0.7187500000,0.1181640625,0.0688476562,0.1068115234,-0.5798339844,-1.5563964844
1.9117429256,-0.7187500000,0.1181640625,0.0688476562,0.1068115234,-0.5798339844,-1.1749267578
1.9144368172,-0.7187500000,0.1181640625,0.0688476562,-0.1831054688,-0.6866455078,-1.1749267578
1.9171338081,-0.7177734375,0.1323242188,0.0576171875,-0.1831054688,-0.6866455078,-0.8697509766
1.9198458195,-0.7177734375,0.1323242188,0.0576171875,0.0762939453,-0.9460449219,-0.8697509766
1.9225409031,-0.7177734375,0.1323242188,0.0576171875,0.0762939453,-0.9460449219,-1.1901855469
1.9252378941,-0.7177734375,0.1323242188,0.0537109375,-0.2593994141,-0.8087158203,-1.1901855469
1.9279458523,-0.7241210938,0.1269531250,0.0537109375,-0.2593994141,-0.8087158203,-0.9918212891
1.9306418896,-0.7241210938,0.1269531250,0.0537109375,0.0000000000,-0.6866455078,-0.9918212891
1.9334318638,-0.7241210938,0.1269531250,0.0537109375,0.0000000000,-0.6866455078,-0.9918212891
1.9360179901,-0.7241210938,0.1254882812,0.0590820312,-0.0305175781,-0.9460449219,-1.1138916016
1.9386858940,-0.7270507812,0.1254882812,0.0590820312,-0.0305175781,-0.9460449219,-1.1138916016
1.9413509369,-0.7270507812,0.1254882812,0.0590820312,0.0457763672,-1.2359619141,-1.1291503906
1.9447999001,-0.7270507812,0.1254882812,0.0590820312,0.0457763672,-1.2359619141,-0.8087158203
1.9473729134,-0.7255859375,0.1284179688,0.0610351562,-0.1831054688,-0.6866455078,-0.8087158203
1.9500348568,-0.7255859375,0.1284179688,0.0610351562,-0.1831054688,-0.6866455078,-0.8239746094
1.9526000023,-0.7255859375,0.1284179688,0.0610351562,-0.3509521484,-0.4577636719,-0.8239746094
1.9551639557,-0.7255859375,0.1284179688,0.0610351562,-0.3509521484,-0.4577636719,-0.8239746094
1.9577269554,-0.7255859375,0.1201171875,0.0644531250,-0.3814697266,-0.6866455078,-0.6561279297
1.9603009224,-0.7255859375,0.1201171875,0.0644531250,-0.3814697266,-0.6866455078,-0.6561279297
1.9628667831,-0.7255859375,0.1201171875,0.0644531250,-0.5798339844,-0.3662109375,-0.4425048828
1.9654288292,-0.7255859375,0.1201171875,0.0644531250,-0.5798339844,-0.3662109375,-0.4425048828
1.9679989815,-0.7285156250,0.1245117188,0.0703125000,-0.7476806641,-0.3204345703,-0.4272460938
1.9705638885,-0.7285156250,0.1245117188,0.0703125000,-0.7476806641,-0.3204345703,-0.4272460938
1.9731237888,-0.7285156250,0.1245117188,0.0703125000,-0.5187988281,-0.1373291016,-0.1373291016
1.9757997990,-0.7285156250,0.1245117188,0.0625000000,-0.5187988281,-0.1373291016,-0.1373291016
1.9784789085,-0.7221679688,0.1245117188,0.0625000000,-0.3509521484,-0.1831054688,-0.0457763672
1.9810438156,-0.7221679688,0.1245117188,0.0625000000,-0.3509521484,-0.1831054688,-0.0457763672
1.9836049080,-0.7221679688,0.1245117188,0.0625000000,-0.7171630859,-0.2746582031,-0.1373291016
1.9861638546,-0.7221679688,0.1245117188,0.0688476562,-0.7171630859,-0.2746582031,-0.1373291016
1.9888780117,-0.7250976562,0.1210937500,0.0688476562,-0.6561279297,-0.3356933594,0.1525878906
1.9914460182,-0.7250976562,0.1210937500,0.0688476562,-0.6561279297,-0.3356933594,0.1525878906
1.9940118790,-0.7250976562,0.1210937500,0.0688476562,-0.6561279297,-0.3051757812,0.2899169922
1.9965858459,-0.7250976562,0.1225585938,0.0620117188,-0.6408691406,-0.3051757812,0.2899169922
1.9993770123,-0.7255859375,0.1225585938,0.0620117188,-0.6408691406,-0.3204345703,-0.0305175781
2.0020689964,-0.7255859375,0.1225585938,0.0620117188,-0.3662109375,-0.3204345703,-0.0305175781
2.0047528744,-0.7255859375,0.1225585938,0.0620117188,-0.3662109375,-0.3051757812,0.0762939453
2.0074319839,-0.7241210938,0.1279296875,0.0595703125,-0.3204345703,-0.3051757812,0.0762939453
2.0101249218,-0.7241210938,0.1279296875,0.0595703125,-0.3204345703,-0.3509521484,0.0915527344
2.0128059387,-0.7241210938,0.1279296875,0.0595703125,-0.2593994141,-0.3509521484,0.0915527344
2.0154848099,-0.7241210938,0.1279296875,0.0595703125,-0.2593994141,-0.3509521484,-0.1220703125
2.0181858540,-0.7211914062,0.1279296875,0.0654296875,-0.3509521484,-0.2593994141,-0.1220703125
2.0208649635,-0.7211914062,0.1279296875,0.0654296875,-0.3509521484,-0.2593994141,0.0305175781
2.0235478878,-0.7211914062,0.1279296875,0.0654296875,-0.5187988281,-0.3356933594,0.0305175781
2.0262269974,-0.7211914062,0.1279296875,0.0537109375,-0.5187988281,3.5705566406,0.0762939453
2.0289528370,-0.7138671875,0.1284179688,0.0537109375,-0.4272460938,0.0000000000,0.0762939453
2.0316329002,-0.7138671875,0.1284179688,0.0537109375,-0.4272460938,0.0000000000,-0.1525878906
2.0343158245,-0.7138671875,0.1284179688,0.0537109375,-0.3662109375,0.3662109375,-0.1525878906
2.0369977951,-0.7138671875,0.1284179688,0.0610351562,-0.3662109375,-3.5400390625,-0.1983642578
2.0399129391,-0.7177734375,0.1284179688,0.0610351562,-0.4425048828,-0.4882812500,-0.1983642578
2.0425729752,-0.7177734375,0.1284179688,0.0610351562,-0.4425048828,-0.4882812500,-0.1373291016
2.0452330112,-0.7177734375,0.1284179688,0.0610351562,-0.7476806641,-0.6256103516,-0.1373291016
2.0478768349,-0.7241210938,0.1308593750,0.0649414062,-0.7476806641,-0.6256103516,0.1831054688
2.0504498482,-0.7241210938,0.1308593750,0.0649414062,-0.6103515625,-0.3509521484,0.1831054688
2.0530209541,-0.7241210938,0.1308593750,0.0649414062,-0.6103515625,-0.3509521484,0.0000000000
2.0558028221,-0.7241210938,0.1308593750,0.0649414062,-0.3051757812,-0.0305175781,0.0000000000
2.0586040020,-0.7221679688,0.1225585938,0.0644531250,-0.3051757812,-0.0305175781,-3.9062500000
2.0611720085,-0.7221679688,0.1225585938,0.0644531250,-0.7019042969,-0.4425048828,-0.2746582031
2.0637359619,-0.7221679688,0.1225585938,0.0644531250,-0.7019042969,-0.4425048828,-0.2746582031
2.0662980080,-0.7221679688,0.1225585938,0.0644531250,-0.8392333984,-0.2288818359,-0.2746582031
2.0689330101,-0.7211914062,0.1220703125,0.0678710938,-0.8392333984,-0.2288818359,-0.2746582031
2.0714960098,-0.7211914062,0.1220703125,0.0678710938,-1.1138916016,-0.1983642578,-0.4119873047
2.0740668774,-0.7211914062,0.1220703125,0.0678710938,-1.1138916016,-0.1983642578,-0.4119873047
2.0766317844,-0.7211914062,0.1220703125,0.0566406250,-0.8392333984,-0.1831054688,-0.3662109375
2.0792098045,-0.7207031250,0.1274414062,0.0566406250,-0.8392333984,-0.1831054688,-0.3662109375
2.0817728043,-0.7207031250,0.1274414062,0.0566406250,-0.8392333984,0.1220703125,-0.3509521484
2.0843348503,-0.7207031250,0.1274414062,0.0566406250,-0.8392333984,0.1220703125,-0.3509521484
2.0869038105,-0.7207031250,0.1274414062,0.0581054688,-0.9765625000,-0.2288818359,-0.3204345703
2.0895078182,-0.7207031250,0.1323242188,0.0581054688,-0.9765625000,-0.2288818359,-0.3204345703
2.0920698643,-0.7207031250,0.1323242188,0.0581054688,-0.9765625000,-0.3051757812,-0.5645751953
2.0946369171,-0.7207031250,0.1323242188,0.0581054688,-0.5187988281,-0.3051757812,-0.5645751953
2.0971989632,-0.7207031250,0.0073242188,0.0693359375,-0.5187988281,-0.3051757812,-0.5035400391
2.0997757912,-0.7236328125,0.1230468750,0.0693359375,-1.0375976562,-0.2746582031,-0.5035400391
2.1024618149,-0.7236328125,0.1230468750,0.0693359375,-1.0375976562,-0.2746582031,-0.5798339844
2.1050298214,-0.7236328125,0.1230468750,0.0693359375,-0.8544921875,-0.2746582031,-0.5798339844
2.1075959206,-0.7236328125,0.1250000000,0.0659179688,-0.8544921875,-0.2746582031,-0.6561279297
2.1103489399,-0.7260742188,0.1250000000,0.0659179688,-0.5950927734,-0.0915527344,-0.6561279297
2.1129188538,-0.7260742188,0.1250000000,0.0659179688,-0.5950927734,-0.0915527344,-0.6561279297
2.1154899597,-0.7260742188,0.1250000000,0.0659179688,-0.9613037109,-0.3356933594,-0.7324218750
2.1182298660,-0.7172851562,0.1289062500,0.0712890625,-0.9613037109,-0.3356933594,-0.7324218750
2.1209349632,-0.7172851562,0.1289062500,0.0712890625,-1.6479492188,-0.1525878906,-0.6561279297
2.1236329079,-0.7172851562,0.1289062500,0.0712890625,-1.6479492188,-0.1525878906,-0.6561279297
2.1263298988,-0.7172851562,0.1289062500,0.0712890625,-1.0986328125,-0.1220703125,-0.6408691406
2.1290469170,-0.7255859375,0.1279296875,0.0590820312,-1.0986328125,-0.1220703125,-0.6408691406
2.1317498684,-0.7255859375,0.1279296875,0.0590820312,-0.6713867188,-0.4730224609,-0.5035400391
2.1344468594,-0.7255859375,0.1279296875,0.0590820312,-0.6713867188,-0.4730224609,-0.5035400391
2.1371519566,-0.7255859375,0.1279296875,0.0590820312,-0.6256103516,0.0610351562,-0.8850097656
2.1397678852,-0.7211914062,0.1328125000,0.0649414062,-0.6256103516,0.0610351562,-0.8850097656
2.1423368454,-0.7211914062,0.1328125000,0.0649414062,-0.7171630859,0.3967285156,-0.7629394531
2.1448979378,-0.7211914062,0.1328125000,0.0649414062,-0.7171630859,0.3967285156,-0.7629394531
2.1474688053,-0.7211914062,0.1328125000,0.0581054688,-0.8087158203,0.1678466797,-0.6256103516
2.1501908302,-0.7153320312,0.1289062500,0.0581054688,-0.8087158203,0.1678466797,-0.6256103516
2.1528849602,-0.7153320312,0.1289062500,0.0581054688,-0.7934570312,-0.1983642578,-0.8239746094
2.1555848122,-0.7153320312,0.1289062500,0.0581054688,-0.7934570312,-0.1983642578,-0.8239746094
2.1583487988,-0.7241210938,0.1293945312,0.0673828125,-0.5035400391,-0.4425048828,-1.3732910156
2.1609158516,-0.7241210938,0.1293945312,0.0673828125,-0.5035400391,-0.4425048828,-1.3732910156
2.1634919643,-0.7241210938,0.1293945312,0.0673828125,-0.4119873047,-0.4119873047,-1.5716552734
2.1661689281,-0.7241210938,0.1293945312,0.0673828125,-0.4119873047,-0.4119873047,-1.5716552734
2.1687979698,-0.7211914062,0.1313476562,0.0600585938,-0.4730224609,-0.6713867188,-1.6174316406
2.1714990139,-0.7211914062,0.1313476562,0.0600585938,-0.4730224609,-0.6713867188,-1.6174316406
2.1743018627,-0.7211914062,0.1313476562,0.0600585938,-0.6561279297,-0.2288818359,-1.8005371094
2.1770069599,-0.7211914062,0.1313476562,0.0600585938,-0.6561279297,-0.2288818359,-1.8005371094
2.1801319122,-0.7148437500,0.1328125000,0.0649414062,-0.7324218750,-0.4577636719,-2.2430419922
2.1828358173,-0.7148437500,0.1328125000,0.0649414062,-0.7324218750,-0.4577636719,-2.2430419922
2.1855418682,-0.7148437500,0.1328125000,0.0649414062,-0.7781982422,-0.4730224609,-2.2583007812
2.1882448196,-0.7148437500,0.1352539062,0.0673828125,-0.7781982422,-0.4730224609,-2.2583007812
2.1908109188,-0.7231445312,0.1352539062,0.0673828125,-0.7629394531,-0.5035400391,-2.4414062500
2.1933808327,-0.7231445312,0.1352539062,0.0673828125,-0.7629394531,-0.5035400391,-2.4414062500
2.1959400177,-0.7231445312,0.1352539062,0.0673828125,-0.8392333984,-0.2899169922,-2.9907226562
2.1985979080,-0.7231445312,0.1284179688,0.0590820312,-0.8392333984,-0.2899169922,-2.9907226562
2.2012968063,-0.7197265625,0.1284179688,0.0590820312,-1.0681152344,-0.2746582031,-2.5177001953
2.2039928436,-0.7197265625,0.1284179688,0.0590820312,-1.0681152344,-0.2746582031,-2.5177001953
2.2066969872,-0.7197265625,0.1284179688,0.0590820312,-1.1291503906,-0.5340576172,-2.6855468750
2.2093358040,-0.7285156250,0.1264648438,0.0620117188,-1.1291503906,-0.5340576172,-2.6855468750
2.2119019032,-0.7285156250,0.1264648438,0.0620117188,-0.8239746094,-0.2593994141,-2.7618408203
2.2144789696,-0.7285156250,0.1264648438,0.0620117188,-0.8239746094,-0.2593994141,-2.7618408203
2.2170457840,-0.7285156250,0.1264648438,0.0620117188,-0.8239746094,-0.4119873047,-2.8839111328
2.2196679115,-0.7246093750,0.1225585938,0.0654296875,-0.9307861328,-0.4119873047,-2.8839111328
2.2222340107,-0.7246093750,0.1225585938,0.0654296875,-0.9307861328,-0.4119873047,-3.0059814453
2.2248039246,-0.7246093750,0.1225585938,0.0654296875,-1.4038085938,-0.3662109375,-3.0059814453
2.2273778915,-0.7246093750,0.1225585938,0.0654296875,-1.4038085938,-0.3662109375,-2.8228759766
2.2301449776,-0.7216796875,0.1245117188,0.0678710938,-1.3122558594,-0.5035400391,-2.8228759766
2.2327158451,-0.7216796875,0.1245117188,0.0678710938,-1.3122558594,-0.5035400391,-2.8228759766
2.2352859974,-0.7216796875,0.1245117188,0.0678710938,-1.0681152344,-0.3967285156,-2.7160644531
2.2379717827,-0.7216796875,0.1245117188,0.0678710938,-1.0681152344,-0.3967285156,-2.7160644531
2.2405428886,-0.7319335938,0.1201171875,0.0673828125,-1.0070800781,-0.5645751953,-3.3111572266
2.2431077957,-0.7319335938,0.1201171875,0.0673828125,-1.0070800781,-0.5645751953,-3.3111572266
2.2456748486,-0.7319335938,0.1201171875,0.0673828125,-1.3122558594,-0.5340576172,-3.2806396484
2.2482709885,-0.7319335938,0.1201171875,0.0595703125,-1.3122558594,-0.5340576172,-3.2806396484
2.2509739399,-0.7207031250,0.1220703125,0.0595703125,-1.5258789062,-0.2746582031,-2.8381347656
2.2536709309,-0.7207031250,0.1220703125,0.0595703125,-1.5258789062,-0.2746582031,-2.8381347656
2.2563748360,-0.7207031250,0.1220703125,0.0595703125,-1.7852783203,-0.5035400391,-3.2348632812
2.2590768337,-0.7207031250,0.1201171875,0.0732421875,-1.7852783203,-0.5035400391,-3.2348632812
2.2617828846,-0.7275390625,0.1201171875,0.0732421875,-1.5258789062,-0.4577636719,-3.5552978516
2.2644770145,-0.7275390625,0.1201171875,0.0732421875,-1.5258789062,-0.4577636719,-3.5552978516
2.2671749592,-0.7275390625,0.1201171875,0.0732421875,-1.3122558594,-0.4119873047,-2.9602050781
2.2697789669,-0.7250976562,0.1220703125,0.0664062500,-1.3122558594,-0.4119873047,-2.9602050781
2.2723410130,-0.7250976562,0.1220703125,0.0664062500,-1.1596679688,-0.4882812500,-2.9754638672
2.2749099731,-0.7250976562,0.1220703125,0.0664062500,-1.1596679688,-0.4882812500,-2.9754638672
2.2774808407,-0.7250976562,0.1220703125,0.0664062500,-1.0986328125,-0.5950927734,-3.3264160156
2.2802019119,-0.7207031250,0.1245117188,0.0639648438,-1.0986328125,-0.5950927734,-3.3264160156
2.2829079628,-0.7207031250,0.1245117188,0.0639648438,-0.6408691406,-0.9460449219,-3.5858154297
2.2856009007,-0.7207031250,0.1245117188,0.0639648438,-0.6408691406,-0.9460449219,-3.5858154297
2.2883288860,-0.7207031250,0.1245117188,0.0639648438,0.0457763672,-0.9002685547,-3.9215087891
2.2909018993,-0.7250976562,0.1215820312,0.0791015625,0.0457763672,-0.9002685547,-3.9215087891
2.2935738564,-0.7250976562,0.1215820312,0.0791015625,0.0915527344,-1.1749267578,-4.0435791016
2.2963519096,-0.7250976562,0.1215820312,0.0791015625,0.0915527344,-1.1749267578,-4.0435791016
2.2991869450,-0.7250976562,0.1215820312,0.0683593750,0.0305175781,-0.9155273438,-3.9215087891
2.3018980026,-0.7187500000,0.1181640625,0.0683593750,0.0305175781,-0.9155273438,-3.9215087891
2.3046069145,-0.7187500000,0.1181640625,0.0683593750,-0.0457763672,-1.1138916016,-3.3111572266
2.3073029518,-0.7187500000,0.1181640625,0.0683593750,-0.0457763672,-1.1138916016,-3.3111572266
2.3100068569,-0.7158203125,0.1162109375,0.0605468750,-0.3967285156,-0.7629394531,-2.7465820312
2.3127088547,-0.7158203125,0.1162109375,0.0605468750,-0.3967285156,-0.7629394531,-2.7465820312
2.3154098988,-0.7158203125,0.1162109375,0.0605468750,-0.1678466797,-0.5493164062,-2.2888183594
2.3181548119,-0.7158203125,0.1162109375,0.0605468750,-0.1678466797,-0.5493164062,-2.2888183594
2.3208489418,-0.7202148438,0.1103515625,0.0600585938,-0.1678466797,-0.6561279297,-2.4566650391
2.3235487938,-0.7202148438,0.1103515625,0.0600585938,-0.1678466797,-0.6561279297,-2.4566650391
2.3262529373,-0.7202148438,0.1103515625,0.0600585938,-0.2593994141,-0.6866455078,-2.3803710938
2.3289148808,-0.7202148438,0.1103515625,0.0600585938,-0.2593994141,-0.6866455078,-2.3803710938
2.3314859867,-0.7246093750,0.1152343750,0.0727539062,3.6468505859,-0.2746582031,-1.8920898438
2.3340559006,-0.7246093750,0.1152343750,0.0727539062,0.0305175781,-0.2746582031,-1.8920898438
2.3366208076,-0.7246093750,0.1152343750,0.0727539062,0.0305175781,-0.2746582031,-1.3732910156
2.3391988277,-0.7246093750,0.1152343750,0.0668945312,0.1220703125,-0.3814697266,-1.3732910156
2.3423810005,-0.7250976562,0.1108398438,0.0668945312,0.1220703125,-0.7171630859,-1.7242431641
2.3449440002,-0.7250976562,0.1108398438,0.0668945312,0.1831054688,-0.7171630859,-1.7242431641
2.3475129604,-0.7250976562,0.1108398438,0.0668945312,0.1831054688,-0.5950927734,-1.6479492188
2.3502509594,-0.7216796875,0.1152343750,0.0698242188,0.0457763672,-0.5950927734,-1.6479492188
2.3528218269,-0.7216796875,0.1152343750,0.0698242188,0.0457763672,-0.5950927734,-1.6326904297
2.3553829193,-0.7216796875,0.1152343750,0.0698242188,0.1678466797,-0.5645751953,-1.6326904297
2.3581018448,-0.7216796875,0.1152343750,0.0698242188,0.1678466797,-0.5645751953,-1.4953613281
2.3606719971,-0.7226562500,0.1235351562,0.0654296875,0.7629394531,-0.6561279297,-1.4953613281
2.3632338047,-0.7226562500,0.1235351562,0.0654296875,0.7629394531,-0.6561279297,-1.4953613281
2.3657948971,-0.7226562500,0.1235351562,0.0654296875,0.8850097656,-0.8239746094,-1.1596679688
2.3683669567,-0.7226562500,0.1235351562,0.0654296875,0.8850097656,-0.8239746094,-1.1596679688
2.3709309101,-0.7270507812,0.1210937500,0.0712890625,1.1291503906,-0.7781982422,-1.2512207031
2.3735008240,-0.7270507812,0.1210937500,0.0712890625,1.1291503906,-0.7781982422,-1.2512207031
2.3760638237,-0.7270507812,0.1210937500,0.0712890625,1.1291503906,-0.5950927734,-1.2512207031
2.3786268234,-0.7270507812,0.1210937500,0.0712890625,1.1291503906,-0.5950927734,-1.2512207031
2.3811988831,-0.7246093750,0.1176757812,0.0654296875,1.1444091797,-0.6103515625,-1.2817382812
2.3837628365,-0.7246093750,0.1176757812,0.0654296875,1.1444091797,-0.6103515625,-1.2817382812
2.3863208294,-0.7246093750,0.1176757812,0.0654296875,0.9307861328,-0.5798339844,-1.2817382812
2.3890450001,-0.7246093750,0.1176757812,0.0654296875,0.9307861328,-0.5798339844,-1.2817382812
2.3916079998,-0.7192382812,0.1142578125,0.0595703125,0.9918212891,-0.3509521484,-1.0833740234
2.3941779137,-0.7192382812,0.1142578125,0.0595703125,0.9918212891,-0.3509521484,-1.0833740234
2.3967390060,-0.7192382812,0.1142578125,0.0595703125,0.9918212891,-0.4577636719,-0.9765625000
2.3994278908,-0.7192382812,0.1142578125,0.0595703125,1.1444091797,-0.4577636719,-0.9765625000
2.4019978046,-0.7255859375,0.1166992188,0.0673828125,1.1444091797,-0.4577636719,-0.3967285156
2.4045588970,-0.7255859375,0.1166992188,0.0673828125,0.7781982422,-0.5798339844,-0.3967285156
2.4071187973,-0.7255859375,0.1166992188,0.0673828125,0.7781982422,-0.5798339844,-0.2899169922
2.4098088741,-0.7255859375,0.1166992188,0.0673828125,0.4272460938,-0.3051757812,-0.2899169922
2.4125080109,-0.7192382812,0.1162109375,0.0659179688,0.4272460938,-0.3051757812,-0.4425048828
2.4152138233,-0.7192382812,0.1162109375,0.0659179688,1.0070800781,-0.5187988281,-0.4425048828
2.4179198742,-0.7192382812,0.1162109375,0.0659179688,1.0070800781,-0.5187988281,-0.3051757812
2.4207270145,-0.7192382812,0.1196289062,0.0590820312,0.7324218750,-0.5645751953,-0.3051757812
2.4234399796,-0.7221679688,0.1196289062,0.0590820312,0.7324218750,-0.5645751953,-0.1525878906
2.4261348248,-0.7221679688,0.1196289062,0.0590820312,0.2899169922,-0.5187988281,-0.1525878906
2.4288439751,-0.7221679688,0.1196289062,0.0590820312,0.2899169922,-0.5187988281,-0.1678466797
2.4315469265,-0.7260742188,0.1206054688,0.0595703125,0.5493164062,-0.4272460938,-0.1678466797
2.4342479706,-0.7260742188,0.1206054688,0.0595703125,0.5493164062,-0.4272460938,-0.4882812500
2.4369559288,-0.7260742188,0.1206054688,0.0595703125,0.7629394531,-0.4272460938,-0.4882812500
2.4396638870,-0.7260742188,0.1206054688,0.0595703125,0.7629394531,-0.4272460938,-0.1220703125
2.4423558712,-0.7211914062,0.1245117188,0.0634765625,0.6866455078,-0.1831054688,-0.1220703125
2.4451248646,-0.7211914062,0.1245117188,0.0634765625,0.6866455078,-0.1831054688,-0.0152587891
2.4478600025,-0.7211914062,0.1245117188,0.0634765625,0.7171630859,-0.4119873047,-0.0152587891
2.4505670071,-0.7211914062,0.1245117188,0.0678710938,0.7171630859,-0.4119873047,0.5035400391
2.4532678127,-0.7226562500,0.1181640625,0.0678710938,0.9155273438,-0.5035400391,0.5035400391
2.4560828209,-0.7226562500,0.1181640625,0.0678710938,0.9155273438,-0.5035400391,0.4119873047
2.4594359398,-0.7226562500,0.1181640625,0.0678710938,0.5035400391,-0.2288818359,0.4119873047
2.4620068073,-0.7197265625,0.1157226562,0.0610351562,0.5035400391,0.0152587891,0.1831054688
2.4645760059,-0.7197265625,0.1157226562,0.0610351562,0.2746582031,0.0152587891,0.1831054688
2.4671409130,-0.7197265625,0.1157226562,0.0610351562,0.2746582031,0.0152587891,0.7019042969
2.4697339535,-0.7197265625,0.1157226562,0.0610351562,-0.0457763672,0.2441406250,0.7019042969
2.4722969532,-0.7290039062,0.1157226562,0.0727539062,-0.0457763672,0.2441406250,0.7019042969
2.4748578072,-0.7290039062,0.1157226562,0.0727539062,0.3967285156,-0.2288818359,0.7629394531
2.4774239063,-0.7290039062,0.1157226562,0.0727539062,0.3967285156,-0.2288818359,0.7629394531
2.4800479412,-0.7290039062,0.1157226562,0.0727539062,0.6561279297,-0.3356933594,0.7324218750
2.4826118946,-0.7241210938,0.1166992188,0.0712890625,0.6561279297,-0.3356933594,0.7324218750
2.4851789474,-0.7241210938,0.1166992188,0.0712890625,1.0375976562,-0.2288818359,0.7934570312
2.4878787994,-0.7241210938,0.1166992188,0.0712890625,1.0375976562,-0.2288818359,0.7934570312
2.4904429913,-0.7241210938,0.1166992188,0.0712890625,1.7089843750,-0.5340576172,0.9307861328
2.4930129051,-0.7197265625,0.1240234375,0.0698242188,1.7089843750,-0.5340576172,0.9307861328
2.4955718517,-0.7197265625,0.1240234375,0.0698242188,1.5258789062,-0.4730224609,0.8544921875
2.4981808662,-0.7197265625,0.1240234375,0.0698242188,1.5258789062,-0.4730224609,0.8544921875
2.5007460117,-0.7197265625,0.1240234375,0.0698242188,1.4038085938,-0.3356933594,0.9155273438
2.5033068657,-0.7163085938,0.1186523438,0.0561523438,1.4038085938,-0.3356933594,0.9155273438
2.5058739185,-0.7163085938,0.1186523438,0.0561523438,1.3885498047,-0.2746582031,1.0681152344
2.5084929466,-0.7163085938,0.1186523438,0.0561523438,1.3885498047,-0.2746582031,1.0681152344
2.5110609531,-0.7163085938,0.1186523438,0.0615234375,1.3885498047,-0.2593994141,1.3122558594
2.5136330128,-0.7187500000,0.1215820312,0.0615234375,1.4190673828,-0.2593994141,1.3122558594
2.5161979198,-0.7187500000,0.1215820312,0.0615234375,1.4190673828,-0.2593994141,1.3427734375
2.5188848972,-0.7187500000,0.1215820312,0.0615234375,1.6632080078,-0.4730224609,1.3427734375
2.5215899944,-0.7187500000,0.1259765625,0.0605468750,1.6632080078,-0.4730224609,1.2359619141
2.5242888927,-0.7202148438,0.1259765625,0.0605468750,1.3427734375,-0.5798339844,1.2359619141
2.5269927979,-0.7202148438,0.1259765625,0.0605468750,1.3427734375,-0.5798339844,1.2969970703
2.5297369957,-0.7202148438,0.1259765625,0.0605468750,1.7547607422,-0.3509521484,1.2969970703
2.5324339867,-0.7187500000,0.1215820312,0.0659179688,1.7547607422,-0.3509521484,1.4801025391
2.5351409912,-0.7187500000,0.1215820312,0.0659179688,1.8768310547,-0.1525878906,1.4801025391
2.5378468037,-0.7187500000,0.1215820312,0.0659179688,1.8768310547,-0.1525878906,1.3275146484
2.5404160023,-0.7187500000,0.1215820312,0.0659179688,1.4343261719,-0.2746582031,1.3275146484
2.5429918766,-0.7167968750,0.1269531250,0.0683593750,1.4343261719,-0.2746582031,1.3275146484
2.5455539227,-0.7167968750,0.1269531250,0.0683593750,1.2054443359,-0.4119873047,1.2054443359
2.5481708050,-0.7167968750,0.1269531250,0.0683593750,1.2054443359,-0.4119873047,1.2054443359
2.5509698391,-0.7167968750,0.1269531250,0.0683593750,0.7629394531,-0.0915527344,1.2054443359
2.5536658764,-0.7226562500,0.1206054688,0.0786132812,0.7629394531,-0.0915527344,1.2054443359
2.5563688278,-0.7226562500,0.1206054688,0.0786132812,0.8697509766,0.1525878906,1.4648437500
2.5590748787,-0.7226562500,0.1206054688,0.0786132812,0.8697509766,0.1525878906,1.4648437500
2.5617709160,-0.7226562500,0.1206054688,0.0712890625,0.7781982422,-0.4272460938,1.3275146484
2.5644729137,-0.7241210938,0.1225585938,0.0712890625,0.7781982422,-0.4272460938,1.3275146484
2.5671668053,-0.7241210938,0.1225585938,0.0712890625,0.4730224609,-0.3662109375,1.1749267578
2.5698888302,-0.7241210938,0.1225585938,0.0712890625,0.4730224609,-0.3662109375,1.1749267578
2.5725929737,-0.7192382812,0.1284179688,0.0673828125,0.5950927734,-0.0762939453,1.0833740234
2.5754549503,-0.7192382812,0.1284179688,0.0673828125,0.5950927734,-0.0762939453,1.0833740234
2.5785458088,-0.7192382812,0.1284179688,0.0673828125,0.6561279297,-0.0457763672,1.0375976562
2.5812509060,-0.7192382812,0.1284179688,0.0673828125,0.6561279297,-0.0457763672,1.0833740234
2.5839579105,-0.7236328125,0.1259765625,0.0649414062,0.2288818359,-0.0915527344,1.0833740234
2.5866549015,-0.7236328125,0.1259765625,0.0649414062,0.2288818359,-0.0915527344,1.0375976562
2.5892989635,-0.7236328125,0.1259765625,0.0649414062,0.2593994141,-0.3814697266,1.0375976562
2.5918698311,-0.7236328125,0.1259765625,0.0620117188,0.2593994141,-0.3814697266,1.0375976562
2.5944359303,-0.7221679688,0.1269531250,0.0620117188,-0.6256103516,0.1678466797,0.7171630859
2.5970039368,-0.7221679688,0.1269531250,0.0620117188,-0.6256103516,0.1678466797,0.7171630859
2.5995819569,-0.7221679688,0.1269531250,0.0620117188,-0.9155273438,0.4425048828,0.4425048828
2.6021409035,-0.7221679688,0.1269531250,0.0659179688,-0.9155273438,0.4425048828,0.4425048828
2.6047070026,-0.7236328125,0.1289062500,0.0659179688,-0.5035400391,0.1678466797,0.3051757812
2.6072728634,-0.7236328125,0.1289062500,0.0659179688,-0.5035400391,0.1678466797,0.3051757812
2.6099050045,-0.7236328125,0.1289062500,0.0659179688,-0.4577636719,-0.0305175781,0.0152587891
2.6124730110,-0.7236328125,0.1333007812,0.0615234375,-0.4577636719,-0.0305175781,0.0152587891
2.6151418686,-0.7182617188,0.1333007812,0.0615234375,-0.4730224609,-0.1525878906,-0.0457763672
2.6177029610,-0.7182617188,0.1333007812,0.0615234375,-0.4730224609,-0.1525878906,-0.0457763672
2.6202838421,-0.7182617188,0.1333007812,0.0615234375,-0.5798339844,-0.1678466797,-0.0915527344
2.6228427887,-0.7182617188,0.1303710938,0.0561523438,-0.5798339844,-0.1678466797,-0.0915527344
2.6254048347,-0.7148437500,0.1303710938,0.0561523438,-0.5798339844,-0.3356933594,-0.1373291016
2.6280338764,-0.7148437500,0.1303710938,0.0561523438,-0.6103515625,-0.3356933594,-0.1373291016
2.6306138039,-0.7148437500,0.1303710938,0.0561523438,-0.6103515625,-0.3356933594,-0.3356933594
2.6331830025,-0.7221679688,0.1308593750,0.0581054688,-1.1901855469,-0.1220703125,-0.3356933594
2.6357448101,-0.7221679688,0.1308593750,0.0581054688,-1.1901855469,-0.1220703125,-0.3814697266
2.6384499073,-0.7221679688,0.1308593750,0.0581054688,-1.0375976562,0.1220703125,-0.3814697266
2.6410138607,-0.7221679688,0.1308593750,0.0581054688,-1.0375976562,0.1220703125,-0.3814697266
2.6435749531,-0.7197265625,0.1289062500,0.0561523438,-0.7629394531,-0.1831054688,-0.4882812500
2.6461479664,-0.7197265625,0.1289062500,0.0561523438,-0.7629394531,-0.1831054688,-0.4882812500
2.6487889290,-0.7197265625,0.1289062500,0.0561523438,-0.3204345703,-0.3509521484,-1.2054443359
2.6513569355,-0.7197265625,0.1289062500,0.0561523438,-0.3204345703,-0.3509521484,-1.2054443359
2.6539278030,-0.7202148438,0.1210937500,0.0664062500,-0.5493164062,-0.1068115234,-1.2512207031
2.6564958096,-0.7202148438,0.1210937500,0.0664062500,-0.5493164062,-0.1068115234,-1.2512207031
2.6592857838,-0.7202148438,0.1210937500,0.0664062500,-1.0528564453,-0.1373291016,-0.7324218750
2.6619539261,-0.7202148438,0.1210937500,0.0664062500,-1.0528564453,-0.1373291016,-0.7324218750
2.6648697853,-0.7207031250,0.1284179688,0.0498046875,-0.7019042969,-0.7629394531,-1.2207031250
2.6675739288,-0.7207031250,0.1284179688,0.0498046875,-0.7019042969,-0.7629394531,-1.2207031250
2.6702799797,-0.7207031250,0.1284179688,0.0498046875,-0.7019042969,-0.0762939453,-1.1596679688
2.6729788780,-0.7207031250,0.1250000000,0.0673828125,-0.7019042969,-0.0762939453,-1.1596679688
2.6756768227,-0.7255859375,0.1250000000,0.0673828125,-0.8239746094,-0.0457763672,-0.7934570312
2.6784927845,-0.7255859375,0.1250000000,0.0673828125,-0.8239746094,-0.0457763672,-0.7934570312
2.6811928749,-0.7255859375,0.1250000000,0.0673828125,-0.6866455078,-0.5187988281,-0.7934570312
2.6838939190,-0.7255859375,0.1303710938,0.0649414062,-0.6866455078,-0.5187988281,-0.7934570312
2.6865918636,-0.7255859375,0.1303710938,0.0649414062,-0.7629394531,-0.3509521484,-1.1749267578
2.6892650127,-0.7255859375,0.1303710938,0.0649414062,-0.7629394531,-0.3509521484,-1.1749267578
2.6918327808,-0.7255859375,0.1303710938,0.0649414062,-1.0833740234,-0.3967285156,-1.2817382812
2.6943957806,-0.7236328125,0.1225585938,0.0649414062,-1.0833740234,-0.3967285156,-1.2817382812
2.6969649792,-0.7236328125,0.1225585938,0.0649414062,-0.5187988281,-0.4119873047,-1.4801025391
2.6995398998,-0.7236328125,0.1225585938,0.0649414062,-0.5187988281,-0.4119873047,-1.4801025391
2.7021110058,-0.7236328125,0.1225585938,0.0649414062,-0.5645751953,-0.4577636719,-1.7242431641
2.7046790123,-0.7275390625,0.1240234375,0.0673828125,-0.5645751953,-0.4577636719,-1.7242431641
2.7072467804,-0.7275390625,0.1240234375,0.0673828125,-0.3662109375,0.0152587891,-1.5869140625
2.7099769115,-0.7275390625,0.1240234375,0.0673828125,-0.3662109375,0.0152587891,-1.5869140625
2.7125449181,-0.7275390625,0.1240234375,0.0673828125,-0.3662109375,-0.0152587891,-1.4038085938
2.7151129246,-0.7270507812,0.1274414062,0.0668945312,-0.3814697266,-0.0152587891,-1.4038085938
2.7176818848,-0.7270507812,0.1274414062,0.0668945312,-0.3814697266,-0.2288818359,-1.3122558594
2.7204809189,-0.7270507812,0.1274414062,0.0668945312,-0.0915527344,-0.2288818359,-1.3122558594
2.7231798172,-0.7270507812,0.1274414062,0.0595703125,-0.0915527344,-0.2288818359,-1.8005371094
2.7258729935,-0.7241210938,0.1235351562,0.0595703125,-0.1983642578,-0.2288818359,-1.8005371094
2.7285819054,-0.7241210938,0.1235351562,0.0595703125,-0.1983642578,-0.4425048828,-1.8157958984
2.7312798500,-0.7241210938,0.1235351562,0.0595703125,0.1983642578,-0.4425048828,-1.8157958984
2.7339808941,-0.7197265625,0.1269531250,0.0654296875,0.1983642578,-0.4425048828,-2.1209716797
2.7366797924,-0.7197265625,0.1269531250,0.0654296875,0.2593994141,-0.5645751953,-2.1209716797
2.7393209934,-0.7197265625,0.1269531250,0.0654296875,0.2593994141,-0.5645751953,-1.8005371094
2.7420020103,-0.7197265625,0.1269531250,0.0654296875,-0.0762939453,-0.3662109375,-1.8005371094
2.7445738316,-0.7202148438,0.1245117188,0.0576171875,-0.0762939453,-0.3662109375,-1.7242431641
2.7471427917,-0.7202148438,0.1245117188,0.0576171875,-0.0762939453,-0.4730224609,-1.7242431641
2.7498168945,-0.7202148438,0.1245117188,0.0576171875,-0.0762939453,-0.4730224609,-1.8463134766
2.7525348663,-0.7202148438,0.1245117188,0.0576171875,-0.0610351562,-0.4119873047,-1.8463134766
2.7551009655,-0.7250976562,0.1220703125,0.0693359375,-0.0610351562,-0.4119873047,-1.8463134766
2.7576699257,-0.7250976562,0.1220703125,0.0693359375,0.0457763672,-0.7171630859,-2.1667480469
2.7604918480,-0.7250976562,0.1220703125,0.0693359375,0.0457763672,-0.7171630859,-2.1667480469
2.7637138367,-0.7250976562,0.2470703125,0.0639648438,0.2593994141,-0.4425048828,-1.6784667969
2.7664258480,-0.7202148438,0.1254882812,0.0639648438,0.2593994141,-0.4425048828,-1.7395019531
2.7691388130,-0.7202148438,0.1254882812,0.0639648438,-0.1068115234,-0.7324218750,-1.7395019531
2.7718398571,-0.7202148438,0.1254882812,0.0639648438,-0.1068115234,-0.7324218750,-1.5106201172
2.7745409012,-0.7241210938,0.1215820312,0.0649414062,0.1678466797,-0.9002685547,-1.5106201172
2.7772419453,-0.7241210938,0.1215820312,0.0649414062,0.1678466797,-0.9002685547,-1.9226074219
2.7799539566,-0.7241210938,0.1215820312,0.0649414062,0.1068115234,-0.6561279297,-1.9226074219
2.7826519012,-0.7241210938,0.1215820312,0.0649414062,0.1068115234,-0.6561279297,-2.0446777344
2.7853529453,-0.7216796875,0.1250000000,0.0556640625,-0.1220703125,-0.5340576172,-2.0446777344
2.7881009579,-0.7216796875,0.1250000000,0.0556640625,-0.1220703125,-0.5340576172,-1.8615722656
2.7906658649,-0.7216796875,0.1250000000,0.0556640625,-0.0610351562,-0.5187988281,-1.8615722656
2.7932298183,-0.7216796875,0.1250000000,0.0556640625,-0.0610351562,-0.5187988281,-1.8615722656
2.7957999706,-0.7241210938,0.1137695312,0.0693359375,-0.2136230469,-0.7324218750,-1.7700195312
2.7983729839,-0.7241210938,0.1137695312,0.0693359375,-0.2136230469,-0.7324218750,-1.7700195312
2.8009459972,-0.7241210938,0.1137695312,0.0693359375,-0.1068115234,-0.9002685547,-2.1057128906
2.8035140038,-0.7241210938,0.1137695312,0.0693359375,-0.1068115234,-0.9002685547,-2.1057128906
2.8061900139,-0.7231445312,0.1196289062,0.0620117188,0.1831054688,-1.0070800781,-1.7089843750
2.8088510036,-0.7231445312,0.1196289062,0.0620117188,0.1831054688,-1.0070800781,-1.7089843750
2.8114178181,-0.7231445312,0.1196289062,0.0620117188,-0.0305175781,-0.9613037109,-1.8005371094
2.8139779568,-0.7231445312,0.1196289062,0.0683593750,-0.0305175781,-0.9613037109,-1.8005371094
2.8165488243,-0.7211914062,0.1206054688,0.0683593750,0.0457763672,-0.9155273438,-1.6937255859
2.8193068504,-0.7211914062,0.1206054688,0.0683593750,0.0457763672,-0.9155273438,-1.6937255859
2.8220098019,-0.7211914062,0.1206054688,0.0683593750,0.2136230469,-0.6408691406,-2.1362304688
2.8247058392,-0.7211914062,0.1176757812,0.0664062500,0.2136230469,-0.6408691406,-2.1362304688
2.8274059296,-0.7250976562,0.1176757812,0.0664062500,0.2136230469,-0.8544921875,-2.1057128906
2.8301539421,-0.7250976562,0.1176757812,0.0664062500,0.2136230469,-0.8544921875,-2.1057128906
2.8328459263,-0.7250976562,0.1176757812,0.0664062500,0.1373291016,-0.8087158203,-2.1362304688
2.8355388641,-0.7207031250,0.1206054688,0.0581054688,0.1373291016,-0.8087158203,-2.1362304688
2.8382468224,-0.7207031250,0.1206054688,0.0581054688,0.3051757812,-0.5645751953,-1.6174316406
2.8408110142,-0.7207031250,0.1206054688,0.0581054688,0.3051757812,-0.5645751953,-1.6174316406
2.8433837891,-0.7207031250,0.1206054688,0.0581054688,0.1983642578,-0.6408691406,-1.8920898438
2.8459489346,-0.7172851562,0.1225585938,0.0522460938,0.1983642578,-0.6408691406,-1.8920898438
2.8485867977,-0.7172851562,0.1225585938,0.0522460938,0.1983642578,-0.5798339844,-1.8157958984
2.8512938023,-0.7172851562,0.1225585938,0.0522460938,0.3051757812,-0.5798339844,-1.8157958984
2.8539919853,-0.7172851562,0.1225585938,0.0522460938,0.3051757812,-0.9613037109,-1.6174316406
2.8566927910,-0.7216796875,0.1162109375,0.0712890625,0.3662109375,-0.9613037109,-1.6174316406
2.8594689369,-0.7216796875,0.1162109375,0.0712890625,-3.5400390625,-0.8239746094,-1.5716552734
2.8621559143,-0.7216796875,0.1162109375,0.0712890625,-0.2136230469,-0.8239746094,-1.5716552734
2.8648459911,-0.7216796875,0.1147460938,0.0590820312,3.6926269531,-0.8392333984,-1.6021728516
2.8675329685,-0.7207031250,0.1147460938,0.0590820312,0.0152587891,-0.8392333984,-1.6021728516
2.8705279827,-0.7207031250,0.1147460938,0.0590820312,0.1678466797,-0.7934570312,-1.3122558594
2.8732237816,-0.7207031250,0.1147460938,0.0590820312,0.1678466797,-0.7934570312,-1.3122558594
2.8760368824,-0.7207031250,0.1235351562,0.0634765625,-0.1678466797,-0.8392333984,-1.1596679688
2.8788259029,-0.7207031250,0.1235351562,0.0634765625,-0.1678466797,-0.8392333984,-1.1596679688
2.8815329075,-0.7207031250,0.1235351562,0.0634765625,-0.2136230469,-1.0070800781,-1.0986328125
2.8842217922,-0.7207031250,0.1235351562,0.0634765625,-0.2136230469,-1.0070800781,-1.0986328125
2.8869090080,-0.7221679688,0.1201171875,0.0659179688,-0.4730224609,-0.4882812500,-0.8239746094
2.8896358013,-0.7221679688,0.1201171875,0.0659179688,-0.4730224609,-0.4882812500,-0.8239746094
2.8922019005,-0.7221679688,0.1201171875,0.0659179688,-0.4730224609,-0.6256103516,-1.2512207031
2.8947699070,-0.7221679688,0.1201171875,0.0639648438,-0.3204345703,-0.6256103516,-1.2512207031
2.8973360062,-0.7192382812,0.1225585938,0.0639648438,-0.3204345703,-0.6256103516,-0.9918212891
2.9000458717,-0.7192382812,0.1225585938,0.0639648438,-0.0457763672,-0.3204345703,-0.9918212891
2.9027459621,-0.7192382812,0.1225585938,0.0639648438,-0.0457763672,-0.3204345703,-0.9155273438
2.9054529667,-0.7192382812,0.1215820312,0.0717773438,-0.3509521484,-0.2899169922,-0.9155273438
2.9081628323,-0.7192382812,0.1215820312,0.0717773438,-0.3509521484,-0.2899169922,-0.8392333984
2.9107298851,-0.7192382812,0.1215820312,0.0717773438,-0.9613037109,-0.5035400391,-0.8392333984
2.9132947922,-0.7192382812,0.1215820312,0.0717773438,-0.9613037109,-0.5035400391,-0.5950927734
2.9158618450,-0.7246093750,0.1201171875,0.0708007812,-0.9613037109,-0.5950927734,-0.5950927734
2.9184319973,-0.7246093750,0.1201171875,0.0708007812,-0.9613037109,-0.5950927734,-0.5950927734
2.9210069180,-0.7246093750,0.1201171875,0.0708007812,-0.6408691406,-0.5645751953,-1.1291503906
2.9235689640,-0.7246093750,0.1201171875,0.0708007812,-0.6408691406,-0.5645751953,-1.1291503906
2.9261348248,-0.7177734375,0.1240234375,0.0537109375,-0.3356933594,-0.5493164062,-1.2512207031
2.9288678169,-0.7177734375,0.1240234375,0.0537109375,-0.3356933594,-0.5493164062,-1.2512207031
2.9314339161,-0.7177734375,0.1240234375,0.0537109375,-0.2288818359,-0.8087158203,-0.9613037109
2.9341108799,-0.7177734375,0.1240234375,0.0537109375,-0.2288818359,-0.8087158203,-0.9613037109
2.9366819859,-0.7275390625,0.1220703125,0.0673828125,-0.2593994141,-0.6256103516,-1.1749267578
2.9394009113,-0.7275390625,0.1220703125,0.0673828125,-0.2593994141,-0.6256103516,-1.1749267578
2.9419708252,-0.7275390625,0.1220703125,0.0673828125,-0.4272460938,-0.9307861328,-1.0986328125
2.9445369244,-0.7275390625,0.1220703125,0.0673828125,-0.4272460938,-0.9307861328,-1.0986328125
2.9471089840,-0.7246093750,0.1210937500,0.0629882812,-0.3967285156,-1.1749267578,-1.2817382812
2.9497969151,-0.7246093750,0.1210937500,0.0629882812,-0.3967285156,-1.1749267578,-1.2817382812
2.9524970055,-0.7246093750,0.1210937500,0.0629882812,-0.6866455078,-0.8392333984,-1.1901855469
2.9551949501,-0.7246093750,0.1210937500,0.0659179688,-0.6866455078,-0.8392333984,-1.1901855469
2.9579069614,-0.7231445312,0.1137695312,0.0659179688,-0.7629394531,-0.8392333984,-1.3580322266
2.9606130123,-0.7231445312,0.1137695312,0.0659179688,-0.7629394531,-0.8392333984,-1.3580322266
2.9633247852,-0.7231445312,0.1137695312,0.0659179688,-0.9155273438,-0.7476806641,-1.0528564453
2.9660229683,-0.7231445312,0.1210937500,0.0629882812,-0.9155273438,-0.7476806641,-1.0528564453
2.9687318802,-0.7236328125,0.1210937500,0.0629882812,-1.1901855469,-0.8697509766,-1.0223388672
2.9714348316,-0.7236328125,0.1210937500,0.0629882812,-1.1901855469,-0.8697509766,-1.0223388672
2.9741318226,-0.7236328125,0.1210937500,0.0629882812,-1.4190673828,-0.6713867188,-1.3732910156
2.9768300056,-0.7231445312,0.1181640625,0.0668945312,-1.4190673828,-0.6713867188,-1.3732910156
2.9795498848,-0.7231445312,0.1181640625,0.0668945312,-1.3580322266,-0.9307861328,-1.3427734375
2.9822487831,-0.7231445312,0.1181640625,0.0668945312,-1.3580322266,-0.9307861328,-1.3427734375
2.9849569798,-0.7231445312,0.1181640625,0.0668945312,-1.1596679688,-0.8697509766,-1.0528564453
2.9876568317,-0.7187500000,0.1171875000,0.0654296875,-1.1596679688,-0.8697509766,-1.0528564453
2.9902439117,-0.7187500000,0.1171875000,0.0654296875,-1.1596679688,-0.8544921875,-1.0528564453
2.9928169250,-0.7187500000,0.1171875000,0.0654296875,-1.2054443359,-0.8544921875,-1.0528564453
2.9955978394,-0.7187500000,0.1171875000,0.0654296875,-1.2054443359,-1.1596679688,-1.3885498047
2.9983839989,-0.7285156250,0.1245117188,0.0605468750,-1.6326904297,-1.1596679688,-1.3885498047
3.0010948181,-0.7285156250,0.1245117188,0.0605468750,-1.5716552734,-0.8697509766,-0.9918212891
3.0039138794,-0.7285156250,0.1245117188,0.0605468750,-1.5716552734,-0.8697509766,-0.9918212891
3.0066218376,-0.7285156250,0.1176757812,0.0742187500,-1.2664794922,-0.7629394531,-1.1138916016
3.0093669891,-0.7309570312,0.1176757812,0.0742187500,-1.2664794922,-0.7629394531,-1.1138916016
3.0120658875,-0.7309570312,0.1176757812,0.0742187500,-1.6784667969,-0.4730224609,-1.3275146484
3.0147628784,-0.7309570312,0.1176757812,0.0742187500,-1.6784667969,-0.4730224609,-1.3275146484
3.0174608231,-0.7333984375,0.1181640625,0.0683593750,-1.9989013672,-0.5493164062,-1.0681152344
3.0201759338,-0.7333984375,0.1181640625,0.0683593750,-1.9989013672,-0.5493164062,-1.0681152344
3.0228748322,-0.7333984375,0.1181640625,0.0683593750,-1.9989013672,-0.7019042969,-1.0223388672
3.0255758762,-0.7333984375,0.1181640625,0.0683593750,-1.9989013672,-0.7019042969,-1.0223388672
3.0283088684,-0.7250976562,0.1142578125,0.0659179688,-1.9989013672,-0.9613037109,-0.9460449219
3.0308740139,-0.7250976562,0.1142578125,0.0659179688,-2.2888183594,-0.9613037109,-0.9460449219
3.0334479809,-0.7250976562,0.1142578125,0.0659179688,-2.2888183594,-0.9613037109,-1.0833740234
3.0360209942,-0.7250976562,0.1142578125,0.0756835938,-2.4108886719,-0.7781982422,-1.0833740234
3.0387248993,-0.7231445312,0.1254882812,0.0756835938,-2.4108886719,-0.7781982422,-1.0681152344
3.0412938595,-0.7231445312,0.1254882812,0.0756835938,-2.5939941406,-0.4272460938,-1.0681152344
3.0438618660,-0.7231445312,0.1254882812,0.0756835938,-2.5939941406,-0.4272460938,-1.0681152344
3.0464270115,-0.7231445312,0.1254882812,0.0605468750,-1.8920898438,-0.4730224609,-1.3275146484
3.0491127968,-0.7275390625,0.1254882812,0.0605468750,-1.8920898438,-0.4730224609,-1.3275146484
3.0516779423,-0.7275390625,0.1254882812,0.0605468750,-1.9683837891,-0.8392333984,-1.4495849609
3.0542469025,-0.7275390625,0.1254882812,0.0605468750,-1.9683837891,-0.8392333984,-1.4495849609
3.0568068027,-0.7275390625,0.1303710938,0.0629882812,-2.1514892578,-0.8850097656,-2.0904541016
3.0596539974,-0.7192382812,0.1303710938,0.0629882812,-2.1514892578,-0.8850097656,-2.0904541016
3.0623238087,-0.7192382812,0.1303710938,0.0629882812,-2.2430419922,-1.4343261719,-2.1057128906
3.0648868084,-0.7192382812,0.1303710938,0.0629882812,-2.2430419922,-1.4343261719,-2.1057128906
3.0674448013,-0.7231445312,0.1191406250,0.0761718750,-2.2277832031,-1.3275146484,-2.3193359375
3.0702619553,-0.7231445312,0.1191406250,0.0761718750,-2.2277832031,-1.3275146484,-2.3193359375
3.0729148388,-0.7231445312,0.1191406250,0.0761718750,-2.5024414062,-0.8697509766,-2.4414062500
3.0760707855,-0.7231445312,0.1191406250,0.0761718750,-2.5024414062,-0.8697509766,-2.4414062500
3.0786418915,-0.7197265625,0.1171875000,0.0600585938,-2.4108886719,-1.2359619141,-2.2430419922
3.0812017918,-0.7197265625,0.1171875000,0.0600585938,-2.4108886719,-1.2359619141,-2.2430419922
3.0837647915,-0.7197265625,0.1171875000,0.0600585938,-2.4414062500,-1.0070800781,-2.6245117188
3.0863318443,-0.7197265625,0.1171875000,0.0600585938,-2.4414062500,-1.0070800781,-2.6245117188
3.0889368057,-0.7265625000,0.1127929688,0.0756835938,-2.7160644531,-0.7781982422,-2.3956298828
3.0914988518,-0.7265625000,0.1127929688,0.0756835938,-2.7160644531,-0.7781982422,-2.3956298828
3.0940589905,-0.7265625000,0.1127929688,0.0756835938,-2.7618408203,-0.7324218750,-2.3651123047
3.0966219902,-0.7265625000,0.1127929688,0.0654296875,-2.7618408203,-0.7324218750,-2.3651123047
3.0991909504,-0.7187500000,0.1142578125,0.0654296875,-2.4871826172,-1.1138916016,-2.3345947266
3.1017558575,-0.7187500000,0.1142578125,0.0654296875,-2.4871826172,-1.1138916016,-2.3345947266
3.1043210030,-0.7187500000,0.1142578125,0.0654296875,-2.4871826172,-0.9918212891,-2.0446777344
3.1068859100,-0.7187500000,0.1142578125,0.0698242188,-2.4414062500,-0.9918212891,-2.0446777344
3.1094999313,-0.7216796875,0.1191406250,0.0698242188,-2.4414062500,-0.9918212891,-1.9989013672
3.1120679379,-0.7216796875,0.1191406250,0.0698242188,-2.6245117188,-1.3122558594,-1.9989013672
3.1146318913,-0.7216796875,0.1191406250,0.0698242188,-2.6245117188,-1.3122558594,-1.9989013672
3.1171948910,-0.7216796875,0.1191406250,0.0698242188,-1.9836425781,-1.1596679688,-1.8310546875
3.1198148727,-0.7246093750,0.1108398438,0.0698242188,-1.9836425781,-1.1596679688,-1.8310546875
3.1223788261,-0.7246093750,0.1108398438,0.0698242188,-2.2125244141,-1.0375976562,-1.5563964844
3.1250548363,-0.7246093750,0.1108398438,0.0698242188,-2.2125244141,-1.0375976562,-1.5563964844
3.1276218891,-0.7246093750,0.1093750000,0.0756835938,-2.2430419922,-0.9765625000,-1.8768310547
3.1304810047,-0.7275390625,0.1093750000,0.0756835938,-2.2430419922,-0.9765625000,-1.8768310547
3.1331799030,-0.7275390625,0.1093750000,0.0756835938,-2.3345947266,-1.0070800781,-1.7089843750
3.1358749866,-0.7275390625,0.1093750000,0.0756835938,-2.3345947266,-1.0070800781,-1.7089843750
3.1385629177,-0.7280273438,0.1108398438,0.0512695312,-2.1972656250,-1.2664794922,-1.4495849609
3.1411268711,-0.7280273438,0.1108398438,0.0512695312,-2.1972656250,-1.2664794922,-1.4495849609
3.1436908245,-0.7280273438,0.1108398438,0.0512695312,-2.2888183594,-1.4038085938,-1.2359619141
3.1462609768,-0.7280273438,0.1108398438,0.0512695312,-2.2888183594,-1.4038085938,-1.2359619141
3.1488819122,-0.7309570312,0.1127929688,0.0712890625,-2.5482177734,-1.0528564453,-0.8697509766
3.1515808105,-0.7309570312,0.1127929688,0.0712890625,-2.5482177734,-1.0528564453,-0.8697509766
3.1542840004,-0.7309570312,0.1127929688,0.0712890625,-2.6092529297,-1.4648437500,-0.9155273438
3.1569869518,-0.7309570312,0.1127929688,0.0712890625,-2.6092529297,-1.4648437500,-0.9155273438
3.1597368717,-0.7177734375,0.1118164062,0.0688476562,-2.4108886719,-1.0375976562,-0.9307861328
3.1623539925,-0.7177734375,0.1118164062,0.0688476562,-2.4108886719,-1.0375976562,-0.9307861328
3.1649219990,-0.7177734375,0.1118164062,0.0688476562,-1.8157958984,-0.6713867188,-0.8544921875
3.1674938202,-0.7177734375,0.1118164062,0.0776367188,-1.8157958984,-0.6713867188,-0.8544921875
3.1702837944,-0.7250976562,0.1137695312,0.0776367188,-2.3193359375,-1.5106201172,-0.7934570312
3.1729497910,-0.7250976562,0.1137695312,0.0776367188,-2.3193359375,-1.5106201172,-0.7934570312
3.1764488220,-0.7250976562,0.1137695312,0.0776367188,-2.0904541016,-1.2359619141,-1.0986328125
3.1790168285,-0.7226562500,0.1152343750,0.0703125000,-2.0904541016,-1.2359619141,-1.0986328125
3.1815807819,-0.7226562500,0.1152343750,0.0703125000,-2.0599365234,-0.8850097656,-0.8697509766
3.1841437817,-0.7226562500,0.1152343750,0.0703125000,-2.0599365234,-0.8850097656,-0.8697509766
3.1867048740,-0.7226562500,0.1152343750,0.0703125000,-1.6021728516,-1.1444091797,-1.0223388672
3.1893179417,-0.7177734375,0.1152343750,0.0678710938,-1.6021728516,-1.1444091797,-1.0223388672
3.1919908524,-0.7177734375,0.1152343750,0.0678710938,-1.2512207031,-0.9765625000,-1.3427734375
3.1945519447,-0.7177734375,0.1152343750,0.0678710938,-1.2512207031,-0.9765625000,-1.3427734375
3.1971158981,-0.7177734375,0.1152343750,0.0678710938,-1.6326904297,-0.5340576172,-0.9613037109
3.1997168064,-0.7124023438,0.1157226562,0.0688476562,-1.6326904297,-0.5340576172,-0.9613037109
3.2022848129,-0.7124023438,0.1157226562,0.0688476562,-1.6326904297,-0.6561279297,-1.0223388672
3.2048490047,-0.7124023438,0.1157226562,0.0688476562,-1.2054443359,-0.6561279297,-1.0223388672
3.2074139118,-0.7124023438,0.1157226562,0.0688476562,-1.2054443359,-0.6561279297,-1.3732910156
3.2100257874,-0.7270507812,0.1147460938,0.0751953125,-0.6103515625,-1.4648437500,-1.3732910156
3.2125887871,-0.7270507812,0.1147460938,0.0751953125,-0.6103515625,-1.4648437500,-1.3732910156
3.2151508331,-0.7270507812,0.1147460938,0.0751953125,-0.5950927734,-1.7852783203,-1.4495849609
3.2177128792,-0.7270507812,0.1147460938,0.0751953125,-0.5950927734,-1.7852783203,-1.4495849609
3.2203178406,-0.7187500000,0.1147460938,0.0649414062,-0.2136230469,-1.6937255859,-0.7781982422
3.2228858471,-0.7187500000,0.1147460938,0.0649414062,-0.2136230469,-1.6937255859,-0.7781982422
3.2254478931,-0.7187500000,0.1147460938,0.0649414062,0.0152587891,-1.9683837891,-1.0528564453
3.2281827927,-0.7187500000,0.1147460938,0.0781250000,0.0152587891,-1.9683837891,-1.0528564453
3.2307457924,-0.7270507812,0.1118164062,0.0781250000,-0.0457763672,-1.5563964844,-1.0528564453
3.2333087921,-0.7270507812,0.1118164062,0.0781250000,-0.0457763672,-1.5563964844,-1.0528564453
3.2358739376,-0.7270507812,0.1118164062,0.0781250000,-0.4730224609,-1.3122558594,-0.5340576172
3.2384409904,-0.7270507812,0.1118164062,0.0776367188,-0.4730224609,-1.3122558594,-0.5340576172
3.2410039902,-0.7192382812,0.1127929688,0.0776367188,-0.5340576172,-1.3732910156,-0.3814697266
3.2435719967,-0.7192382812,0.1127929688,0.0776367188,-0.5340576172,-1.3732910156,-0.3814697266
3.2461338043,-0.7192382812,0.1127929688,0.0776367188,-0.3204345703,-1.5716552734,-0.3814697266
3.2487568855,-0.7192382812,0.1103515625,0.0698242188,-0.3204345703,-1.5716552734,-0.3814697266
3.2513189316,-0.7241210938,0.1103515625,0.0698242188,-0.3204345703,-1.3885498047,-0.0762939453
3.2539858818,-0.7241210938,0.1103515625,0.0698242188,-0.2288818359,-1.3885498047,-0.0762939453
3.2565507889,-0.7241210938,0.1103515625,0.0698242188,-0.2288818359,-1.3885498047,-0.1220703125
3.2591238022,-0.7255859375,0.1074218750,0.0737304688,-0.1525878906,-1.4343261719,-0.1220703125
3.2616868019,-0.7255859375,0.1074218750,0.0737304688,-0.1525878906,-1.4343261719,0.0305175781
3.2642519474,-0.7255859375,0.1074218750,0.0737304688,-0.1831054688,-1.2207031250,0.0305175781
3.2668139935,-0.7255859375,0.1074218750,0.0737304688,-0.1831054688,-1.2207031250,0.0305175781
3.2693858147,-0.7177734375,0.1162109375,0.0810546875,-0.4272460938,-1.0681152344,0.4577636719
3.2719500065,-0.7177734375,0.1162109375,0.0810546875,-0.4272460938,-1.0681152344,0.4577636719
3.2745139599,-0.7177734375,0.1162109375,0.0810546875,0.3356933594,-1.0070800781,0.3356933594
3.2770788670,-0.7177734375,0.1162109375,0.0810546875,0.3356933594,-1.0070800781,0.3356933594
3.2797808647,-0.7158203125,0.1162109375,0.0664062500,0.6408691406,-1.4038085938,0.4730224609
3.2823469639,-0.7158203125,0.1162109375,0.0664062500,0.6408691406,-1.4038085938,0.4730224609
3.2851188183,-0.7158203125,0.1162109375,0.0664062500,0.6561279297,-1.2817382812,0.5340576172
3.2876830101,-0.7158203125,0.1162109375,0.0664062500,0.6561279297,-1.2817382812,0.5340576172
3.2904908657,-0.7231445312,0.1191406250,0.0693359375,0.7019042969,-1.5869140625,0.3662109375
3.2930579185,-0.7231445312,0.1191406250,0.0693359375,0.7019042969,-1.5869140625,0.3662109375
3.2956268787,-0.7231445312,0.1191406250,0.0693359375,0.8239746094,-1.4648437500,0.4730224609
3.2982227802,-0.7231445312,0.1191406250,0.0693359375,0.8239746094,-1.4648437500,0.4730224609
3.3009250164,-0.7182617188,0.1250000000,0.0722656250,0.5798339844,-1.4801025391,0.3051757812
3.3036279678,-0.7182617188,0.1250000000,0.0722656250,0.5798339844,-1.4801025391,0.3051757812
3.3063268661,-0.7182617188,0.1250000000,0.0722656250,1.0528564453,-1.2054443359,0.4882812500
3.3090379238,-0.7182617188,0.0000000000,0.0654296875,1.0528564453,-1.2054443359,0.4882812500
3.3117368221,-0.7255859375,0.1186523438,0.0654296875,0.8392333984,-1.2817382812,0.6408691406
3.3144350052,-0.7255859375,0.1186523438,0.0654296875,0.8392333984,-1.2817382812,0.6408691406
3.3172419071,-0.7255859375,0.1186523438,0.0654296875,0.6103515625,-1.0833740234,0.5340576172
3.3198509216,-0.7226562500,0.1118164062,0.0673828125,0.6103515625,-1.0833740234,0.5340576172
3.3224217892,-0.7226562500,0.1118164062,0.0673828125,0.6561279297,-1.1444091797,0.6256103516
3.3249897957,-0.7226562500,0.1118164062,0.0673828125,0.6561279297,-1.1444091797,0.6256103516
3.3275558949,-0.7226562500,0.1118164062,0.0673828125,0.6561279297,-1.2054443359,0.5950927734
3.3301339149,-0.7294921875,0.1137695312,0.0756835938,0.7629394531,-1.2054443359,0.5950927734
3.3326988220,-0.7294921875,0.1137695312,0.0756835938,0.7629394531,-1.2054443359,0.5645751953
3.3352677822,-0.7294921875,0.1137695312,0.0756835938,0.9002685547,-1.1596679688,0.5645751953
3.3379769325,-0.7294921875,0.1137695312,0.0756835938,0.9002685547,-1.1596679688,0.8697509766
3.3405478001,-0.7231445312,0.1171875000,0.0791015625,0.8544921875,-0.9002685547,0.8697509766
3.3431220055,-0.7231445312,0.1171875000,0.0791015625,0.8544921875,-0.9002685547,0.8697509766
3.3456928730,-0.7231445312,0.1171875000,0.0791015625,0.8850097656,-1.4038085938,0.6713867188
3.3484427929,-0.7231445312,0.1171875000,0.0791015625,0.8850097656,-1.4038085938,0.6713867188
3.3511459827,-0.7275390625,0.1206054688,0.0683593750,1.2512207031,-1.8615722656,0.7629394531
3.3538439274,-0.7275390625,0.1206054688,0.0683593750,1.2512207031,-1.8615722656,0.7629394531
3.3565468788,-0.7275390625,0.1206054688,0.0683593750,1.1291503906,-1.8310546875,0.5798339844
3.3592569828,-0.7275390625,0.1206054688,0.0737304688,1.1291503906,-1.8310546875,0.5798339844
3.3619558811,-0.7260742188,0.1176757812,0.0737304688,1.0070800781,-1.4953613281,0.5035400391
3.3646550179,-0.7260742188,0.1176757812,0.0737304688,1.0070800781,-1.4953613281,0.5035400391
3.3673558235,-0.7260742188,0.1176757812,0.0737304688,0.9918212891,-1.1596679688,0.6866455078
3.3700649738,-0.7260742188,0.1118164062,0.0634765625,0.9918212891,-1.1596679688,0.6866455078
3.3727648258,-0.7163085938,0.1118164062,0.0634765625,1.3732910156,-1.2359619141,0.7324218750
3.3754680157,-0.7163085938,0.1118164062,0.0634765625,1.3732910156,-1.2359619141,0.7324218750
3.3781809807,-0.7163085938,0.1118164062,0.0634765625,1.5869140625,-1.3122558594,0.7476806641
3.3809897900,-0.7226562500,0.1093750000,0.0825195312,1.5869140625,-1.3122558594,0.7476806641
