# time_stamp before, Acceleration x, Acceleration y, Acceleration z, Gyro x, Gyro y, Gyro z
0.0000000000,-0.0774913736,-0.0457400716,-0.0023748373,-2.3364156087,-0.0408325196,-6.0098063151
0.0025629997,-0.0774913736,-0.0457400716,-0.0023748373,-2.7636617025,0.2033081054,-5.4452311198
0.0051238537,-0.0774913736,-0.0457400716,-0.0023748373,-2.7636617025,0.2033081054,-5.4452311198
0.0076858997,-0.0735851236,-0.0472049153,-0.0067693685,-2.9467671713,0.4627075195,-4.6059977214
0.0104498863,-0.0735851236,-0.0472049153,-0.0067693685,-2.9467671713,0.4627075195,-4.6059977214
0.0131289959,-0.0735851236,-0.0472049153,-0.0067693685,-3.0688374837,0.1880493164,-4.4686686198
0.0158059597,-0.0735851236,-0.0472049153,-0.0067693685,-3.0688374837,0.1880493164,-4.4686686198
0.0185368061,-0.0696788736,-0.0408572591,0.0083673503,-3.0535786947,0.7526245117,-4.5754801432
0.0212090015,-0.0696788736,-0.0408572591,0.0083673503,-3.0535786947,0.7526245117,-4.5754801432
0.0238878727,-0.0696788736,-0.0408572591,0.0083673503,-3.2672017416,0.3406372070,-4.3923746745
0.0265629292,-0.0696788736,-0.0408572591,-0.0087224935,-3.2672017416,0.3406372070,-4.3923746745
0.0291860104,-0.0696788736,-0.0423221029,-0.0087224935,-2.9009908041,0.3253784179,-4.8043619792
0.0317468643,-0.0696788736,-0.0423221029,-0.0087224935,-2.9009908041,0.3253784179,-4.8043619792
0.0343058109,-0.0696788736,-0.0423221029,-0.0087224935,-2.9009908041,0.0964965820,-4.6517740885
0.0369138718,-0.0696788736,-0.0423221029,0.0073907877,-3.0383199056,0.0964965820,-4.6517740885
0.0395507812,-0.0706554362,-0.0481814779,0.0073907877,-3.0383199056,0.0964965820,-4.3923746745
0.0421168804,-0.0706554362,-0.0481814779,0.0073907877,-2.8552144369,0.3864135742,-4.3923746745
0.0446918011,-0.0706554362,-0.0481814779,0.0073907877,-2.8552144369,0.3864135742,-4.3771158854
0.0472559929,-0.0706554362,-0.0423221029,-0.0062810873,-2.3821919759,-0.0560913086,-4.3771158854
0.0499858856,-0.0672374674,-0.0423221029,-0.0062810873,-2.3821919759,-0.0560913086,-4.3771158854
0.0528509617,-0.0672374674,-0.0423221029,-0.0062810873,-2.5195210775,-0.1629028321,-4.3465983073
0.0555489063,-0.0672374674,-0.0423221029,-0.0062810873,-2.5195210775,-0.1629028321,-4.3618570964
0.0582568645,-0.0745616862,-0.0447635091,-0.0009099935,-2.5500386556,0.0354614258,-4.3618570964
0.0609469414,-0.0745616862,-0.0447635091,-0.0009099935,-2.5500386556,0.0354614258,-4.1634928385
0.0636458397,-0.0745616862,-0.0447635091,-0.0009099935,-1.9549458822,-0.1171264649,-4.1634928385
0.0665218830,-0.0745616862,-0.0447635091,-0.0009099935,-1.9549458822,-0.1171264649,-3.6752115885
0.0693538189,-0.0662609049,-0.0501346029,-0.0009099935,-1.8633931478,-0.3765258789,-3.6752115885
0.0720658302,-0.0662609049,-0.0501346029,-0.0009099935,-1.8633931478,-0.3765258789,-3.5836588542
0.0747649670,-0.0662609049,-0.0501346029,-0.0009099935,-2.2906392416,-0.4680786133,-3.5836588542
0.0774619579,-0.0662609049,-0.0535525716,-0.0038396810,-2.2906392416,-0.4680786133,-3.6141764323
0.0800578594,-0.0774913736,-0.0535525716,-0.0038396810,-1.8633931478,-0.8800659180,-3.6141764323
0.0826199055,-0.0774913736,-0.0535525716,-0.0038396810,-1.8633931478,-0.8800659180,-3.6141764323
0.0851860046,-0.0774913736,-0.0535525716,-0.0038396810,-1.5582173666,-0.8648071289,-3.5684000651
0.0877590179,-0.0774913736,-0.0555056966,-0.0048162435,-1.5582173666,-0.8648071289,-3.1106363932
0.0909709930,-0.0765148112,-0.0555056966,-0.0048162435,-1.9396870931,-0.6817016602,-3.1106363932
0.0935389996,-0.0765148112,-0.0555056966,-0.0048162435,-1.9396870931,-0.6817016602,-3.1106363932
0.0960948467,-0.0765148112,-0.0555056966,-0.0048162435,-2.7484029134,-0.3917846680,-2.7596842448
0.0987348557,-0.0696788736,-0.0408572591,-0.0038396810,-2.7484029134,-0.3917846680,-2.7596842448
0.1012978554,-0.0696788736,-0.0408572591,-0.0038396810,-3.1451314291,-0.4680786133,-2.6070963542
0.1038589478,-0.0696788736,-0.0408572591,-0.0038396810,-3.1451314291,-0.4680786133,-2.6070963542
0.1064188480,-0.0696788736,-0.0408572591,-0.0038396810,-2.6721089681,-0.4070434571,-2.5460611979
0.1089839935,-0.0696788736,-0.0330447591,0.0083673503,-2.6721089681,-0.4070434571,-2.5460611979
0.1115469933,-0.0696788736,-0.0330447591,0.0083673503,-2.3058980306,-0.2697143555,-2.3782145182
0.1141119003,-0.0696788736,-0.0330447591,0.0083673503,-2.3058980306,-0.2697143555,-2.3782145182
0.1167969704,-0.0696788736,-0.0330447591,0.0083673503,-2.5195210775,0.1880493164,-2.2561442057
0.1193718910,-0.0774913736,-0.0530642903,0.0064142253,-2.5195210775,0.1880493164,-2.2561442057
0.1219389439,-0.0774913736,-0.0530642903,0.0064142253,-2.9772847494,0.2185668945,-1.5847574870
0.1245009899,-0.0774913736,-0.0530642903,0.0064142253,-2.9772847494,0.2185668945,-1.5847574870
0.1270608902,-0.0774913736,-0.0530642903,0.0064142253,-2.9772847494,-0.1781616211,-1.2490641276
0.1296658516,-0.0716319986,-0.0511111653,0.0000665690,-3.0840962728,-0.1781616211,-1.2490641276
0.1322209835,-0.0716319986,-0.0511111653,0.0000665690,-3.0840962728,-0.1781616211,-1.2338053385
0.1347827911,-0.0716319986,-0.0511111653,0.0000665690,-3.3282368978,-0.0713500977,-1.2338053385
0.1373429298,-0.0716319986,-0.0511111653,0.0000665690,-3.3282368978,-0.0713500977,-1.0812174479
0.1400330067,-0.0677257486,-0.0491580403,0.0147150065,-3.2977193197,-0.0255737305,-1.0812174479
0.1426019669,-0.0677257486,-0.0491580403,0.0147150065,-3.2977193197,-0.0255737305,-1.0812174479
0.1451640129,-0.0677257486,-0.0491580403,0.0147150065,-3.1756490072,-0.1018676758,-0.9896647135
0.1477229595,-0.0677257486,-0.0491580403,0.0073907877,-3.1756490072,-0.1018676758,-0.9896647135
0.1505699158,-0.0696788736,-0.0379275716,0.0073907877,-3.2214253744,0.4016723632,-1.0201822917
0.1532588005,-0.0696788736,-0.0379275716,0.0073907877,-3.2214253744,0.4016723632,-1.0201822917
0.1559419632,-0.0696788736,-0.0379275716,0.0073907877,-3.1298726400,0.7526245117,-1.2185465495
0.1588099003,-0.0721202799,-0.0354861653,0.0093439127,-3.1298726400,0.7526245117,-1.2185465495
0.1615118980,-0.0721202799,-0.0354861653,0.0093439127,-3.0383199056,0.6152954101,-0.9438883464
0.1642029285,-0.0721202799,-0.0354861653,0.0093439127,-3.0383199056,0.6152954101,-0.9438883464
0.1668918133,-0.0721202799,-0.0354861653,0.0093439127,-2.8094380697,0.2033081054,-0.8675944010
0.1697080135,-0.0706554362,-0.0476931966,-0.0004217123,-2.8094380697,0.2033081054,-0.8675944010
0.1723959446,-0.0706554362,-0.0476931966,-0.0004217123,-2.9620259603,0.3711547851,-0.9133707682
0.1750779152,-0.0706554362,-0.0476931966,-0.0004217123,-2.9620259603,0.3711547851,-0.9133707682
0.1777658463,-0.0706554362,-0.0476931966,-0.0004217123,-2.8552144369,0.2185668945,-0.9133707682
0.1805469990,-0.0647960612,-0.0501346029,-0.0023748373,-2.8552144369,0.2185668945,-0.9133707682
0.1831209660,-0.0647960612,-0.0501346029,-0.0023748373,-2.0312398275,0.1575317382,-1.0201822917
0.1856868267,-0.0647960612,-0.0501346029,-0.0023748373,-2.0312398275,0.1575317382,-1.0201822917
0.1882758141,-0.0647960612,-0.0501346029,0.0078790690,-1.8023579916,-0.0255737305,-1.2338053385
0.1911849976,-0.0706554362,-0.0398806966,0.0078790690,-1.8023579916,-0.0255737305,-1.2338053385
0.1938748360,-0.0706554362,-0.0398806966,0.0078790690,-2.5195210775,0.2643432617,-1.1117350260
0.1965579987,-0.0706554362,-0.0398806966,0.0078790690,-2.5195210775,0.2643432617,-1.1117350260
0.1992750168,-0.0667491862,-0.0364627279,-0.0038396810,-2.2906392416,0.0202026367,-1.2490641276
0.2019720078,-0.0667491862,-0.0364627279,-0.0038396810,-2.2906392416,0.0202026367,-1.2490641276
0.2047989368,-0.0667491862,-0.0364627279,-0.0038396810,-1.9549458822,-0.3612670899,-1.2338053385
0.2083299160,-0.0667491862,-0.0364627279,0.0015314127,-1.9549458822,-0.3612670899,-1.1880289714
0.2109019756,-0.0750499674,-0.0364627279,0.0015314127,-1.6497701009,-0.0560913086,-1.1880289714
0.2134659290,-0.0750499674,-0.0364627279,0.0015314127,-1.6497701009,-0.0560913086,-1.4016520182
0.2160258293,-0.0750499674,-0.0364627279,0.0015314127,-2.4127095541,-0.0103149414,-1.4016520182
0.2186880112,-0.0750499674,-0.0364627279,0.0098321940,-2.4127095541,-0.0103149414,-1.4016520182
0.2212529182,-0.0730968424,-0.0354861653,0.0098321940,-2.1685689291,0.2490844726,-1.3711344401
0.2238118649,-0.0730968424,-0.0354861653,0.0098321940,-2.1685689291,0.2490844726,-1.3711344401
0.2263748646,-0.0730968424,-0.0354861653,0.0098321940,-2.1380513509,-0.2544555664,-1.1117350260
0.2289409637,-0.0730968424,-0.0442752279,0.0054376627,-2.1380513509,-0.2544555664,-1.1117350260
0.2315049171,-0.0701671549,-0.0442752279,0.0054376627,-1.7870992025,0.1880493164,-1.3406168620
0.2340688705,-0.0701671549,-0.0442752279,0.0054376627,-1.7870992025,0.1880493164,-1.3406168620
0.2366290092,-0.0701671549,-0.0442752279,0.0054376627,-1.6650288900,0.4016723632,-1.1117350260
0.2391979694,-0.0701671549,-0.0535525716,0.0069025065,-1.6650288900,0.4016723632,-1.1117350260
0.2417628765,-0.0652843424,-0.0535525716,0.0069025065,-2.0922749837,0.1880493164,-0.9896647135
0.2444260120,-0.0652843424,-0.0535525716,0.0069025065,-2.0922749837,0.1880493164,-0.9896647135
0.2469890118,-0.0652843424,-0.0535525716,0.0069025065,-1.7413228353,0.0964965820,-0.8065592448
0.2495508194,-0.0696788736,-0.0496463216,0.0005548503,-1.7413228353,0.0964965820,-0.8065592448
0.2521159649,-0.0696788736,-0.0496463216,0.0005548503,-1.7413228353,0.7221069336,-0.6081949870
0.2546799183,-0.0696788736,-0.0496463216,0.0005548503,-1.6345113119,0.7221069336,-0.6081949870
0.2572379112,-0.0696788736,-0.0496463216,0.0005548503,-1.6345113119,0.7221069336,-0.4403483073
0.2599878311,-0.0652843424,-0.0442752279,-0.0023748373,-1.0699361166,0.7526245117,-0.4403483073
0.2625567913,-0.0652843424,-0.0442752279,-0.0023748373,-1.0699361166,0.7526245117,-0.7150065104
0.2651188374,-0.0652843424,-0.0442752279,-0.0023748373,-0.7342427572,0.1727905273,-0.7150065104
0.2676858902,-0.0652843424,-0.0442752279,-0.0023748373,-0.7342427572,0.1727905273,-0.5776774088
0.2704839706,-0.0696788736,-0.0315799153,0.0073907877,-0.6884663900,0.8441772461,-0.5776774088
0.2731850147,-0.0696788736,-0.0315799153,0.0073907877,-0.6884663900,0.8441772461,-0.5776774088
0.2758829594,-0.0696788736,-0.0315799153,0.0073907877,-1.0241597494,0.7984008789,-0.6081949870
0.2785658836,-0.0696788736,-0.0315799153,0.0073907877,-1.0241597494,0.7984008789,-0.6081949870
0.2811248302,-0.0682140299,-0.0354861653,0.0059259440,-0.6426900228,0.7831420898,-0.5624186198
0.2836899757,-0.0682140299,-0.0354861653,0.0059259440,-0.6426900228,0.7831420898,-0.5624186198
0.2862539291,-0.0682140299,-0.0354861653,0.0059259440,-0.4138081869,0.6152954101,-0.8675944010
0.2888758183,-0.0682140299,-0.0354861653,0.0059259440,-0.4138081869,0.6152954101,-0.8675944010
0.2915768623,-0.0711437174,-0.0511111653,0.0049493815,-1.0241597494,0.7984008789,-0.6844889323
0.2942719460,-0.0711437174,-0.0511111653,0.0049493815,-1.0241597494,0.7984008789,-0.6844889323
0.2969708443,-0.0711437174,-0.0511111653,0.0049493815,-0.9478658041,0.9357299804,-0.6539713542
0.2996737957,-0.0711437174,-0.0486697591,0.0000665690,-0.9478658041,0.9357299804,-0.6539713542
0.3023748398,-0.0672374674,-0.0486697591,0.0000665690,-1.2835591634,0.7831420898,-0.7455240885
0.3050749302,-0.0672374674,-0.0486697591,0.0000665690,-1.2835591634,0.7831420898,-0.7455240885
0.3078908920,-0.0672374674,-0.0486697591,0.0000665690,-1.4666646322,0.7831420898,-0.5471598307
0.3105909824,-0.0745616862,-0.0408572591,0.0020196940,-1.4666646322,0.7831420898,-0.5471598307
0.3132867813,-0.0745616862,-0.0408572591,0.0020196940,-1.1157124837,0.5084838867,-0.2419840495
0.3159828186,-0.0745616862,-0.0408572591,0.0020196940,-1.1157124837,0.5084838867,-0.2419840495
0.3187279701,-0.0745616862,-0.0408572591,0.0020196940,-0.5511372884,0.2643432617,-0.5166422526
0.3214278221,-0.0716319986,-0.0452517903,0.0098321940,-0.5511372884,0.2643432617,-0.5166422526
0.3242239952,-0.0716319986,-0.0452517903,0.0098321940,-0.7647603353,0.2643432617,-0.5624186198
0.3269238472,-0.0716319986,-0.0452517903,0.0098321940,-0.7647603353,0.2643432617,-0.5624186198
0.3298189640,-0.0716319986,-0.0452517903,0.0073907877,-0.9936421713,0.5695190429,-0.5624186198
0.3323860168,-0.0701671549,-0.0413455403,0.0073907877,-0.9936421713,0.5695190429,-0.5624186198
0.3349559307,-0.0701671549,-0.0413455403,0.0073907877,-0.7952779134,0.8136596679,0.0021565755
0.3375179768,-0.0701671549,-0.0413455403,0.0073907877,-0.7952779134,0.8136596679,0.0021565755
0.3402140141,-0.0701671549,-0.0345096029,-0.0013982747,-1.3140767416,0.5237426758,-0.0741373698
0.3429169655,-0.0789562174,-0.0345096029,-0.0013982747,-1.3140767416,0.5237426758,-0.0741373698
0.3456189632,-0.0789562174,-0.0345096029,-0.0013982747,-1.4056294759,0.5847778320,-0.5776774088
0.3483338356,-0.0789562174,-0.0345096029,-0.0013982747,-1.4056294759,0.5847778320,-0.5776774088
0.3510329723,-0.0740734049,-0.0413455403,0.0127618815,-0.6884663900,0.6915893554,-0.2877604167
0.3537328243,-0.0740734049,-0.0413455403,0.0127618815,-0.6884663900,0.6915893554,-0.2877604167
0.3564360142,-0.0740734049,-0.0413455403,0.0127618815,-0.5206197103,0.1727905273,-0.0588785807
0.3590829372,-0.0740734049,-0.0413455403,0.0127618815,-0.5206197103,0.1727905273,-0.0588785807
0.3616478443,-0.0662609049,-0.0364627279,0.0020196940,-0.6884663900,0.0812377929,0.0937093099
0.3642129898,-0.0662609049,-0.0364627279,0.0020196940,-0.6884663900,0.0812377929,0.0937093099
0.3667848110,-0.0662609049,-0.0364627279,0.0020196940,-0.8563130697,0.3253784179,0.0937093099
0.3693628311,-0.0662609049,-0.0364627279,0.0020196940,-0.8563130697,0.3253784179,0.0937093099
0.3720288277,-0.0677257486,-0.0462283529,0.0005548503,-0.8563130697,0.4779663086,0.0174153646
0.3745899200,-0.0677257486,-0.0462283529,0.0005548503,-1.1004536947,0.4779663086,0.0174153646
0.3771548271,-0.0677257486,-0.0462283529,0.0005548503,-1.1004536947,0.3101196289,0.4141438802
0.3798317909,-0.0677257486,-0.0462283529,0.0005548503,-0.0323384603,0.3101196289,0.4141438802
0.3823988438,-0.0770030924,-0.0452517903,0.0039728190,-0.0323384603,0.3101196289,0.5667317708
0.3849678040,-0.0770030924,-0.0452517903,0.0039728190,0.4559427897,0.0964965820,0.5667317708
0.3875370026,-0.0770030924,-0.0452517903,0.0039728190,0.4559427897,0.0964965820,0.7193196615
0.3903539181,-0.0770030924,-0.0452517903,0.0078790690,0.8679300944,0.0659790039,0.7193196615
0.3930439949,-0.0730968424,-0.0418338216,0.0078790690,0.8679300944,0.0659790039,0.7345784505
0.3959059715,-0.0730968424,-0.0418338216,0.0078790690,1.3104349772,-0.0255737305,0.7345784505
0.3986809254,-0.0730968424,-0.0418338216,0.0078790690,1.3104349772,-0.0255737305,0.7498372396
0.4013450146,-0.0745616862,-0.0428103841,-0.0028631185,1.5393168131,0.1270141601,0.7498372396
0.4048559666,-0.0745616862,-0.0428103841,-0.0028631185,1.9055277506,0.0507202148,1.0092366536
0.4074208736,-0.0745616862,-0.0428103841,-0.0028631185,1.9055277506,0.0507202148,1.0092366536
0.4100728035,-0.0745616862,-0.0428103841,-0.0028631185,1.9055277506,0.0507202148,1.2076009115
0.4126288891,-0.0711437174,-0.0393924153,0.0083673503,2.5769144694,0.0507202148,1.2076009115
0.4151909351,-0.0711437174,-0.0393924153,0.0083673503,2.5769144694,0.0507202148,1.4059651693
0.4177498817,-0.0711437174,-0.0393924153,0.0083673503,2.5769144694,-0.1934204102,1.4059651693
0.4203178883,-0.0711437174,-0.0393924153,-0.0023748373,2.5769144694,-0.1934204102,1.6348470052
0.4228739738,-0.0706554362,-0.0349978841,-0.0023748373,2.6074320475,0.0964965820,1.6348470052
0.4254310131,-0.0706554362,-0.0349978841,-0.0023748373,2.6074320475,0.0964965820,1.6348470052
0.4279890060,-0.0706554362,-0.0349978841,-0.0023748373,2.6074320475,-0.0408325196,1.6501057943
0.4305558205,-0.0706554362,-0.0349978841,0.0025079753,2.6074320475,-0.0408325196,1.6501057943
0.4331128597,-0.0706554362,-0.0398806966,0.0025079753,3.0041605631,-0.1781616211,2.0926106771
0.4356758595,-0.0706554362,-0.0398806966,0.0025079753,3.0041605631,-0.1781616211,2.0926106771
0.4384739399,-0.0706554362,-0.0398806966,0.0025079753,3.3856302897,-0.2697143555,2.2451985677
0.4410378933,-0.0706554362,-0.0428103841,0.0088556315,3.3856302897,-0.2697143555,2.2451985677
0.4435949326,-0.0755382486,-0.0428103841,0.0088556315,3.0651957194,-0.4070434571,2.5503743490
0.4461569786,-0.0755382486,-0.0428103841,0.0088556315,3.0651957194,-0.4070434571,2.5503743490
0.4488759041,-0.0755382486,-0.0428103841,0.0088556315,3.0041605631,-0.9411010742,2.9318440755
0.4514458179,-0.0755382486,-0.0481814779,0.0025079753,3.0041605631,-0.9411010742,2.9318440755
0.4540028572,-0.0721202799,-0.0481814779,0.0025079753,2.4243265787,-0.6359252930,2.9165852865
0.4565689564,-0.0721202799,-0.0481814779,0.0025079753,2.4243265787,-0.6359252930,2.9165852865
0.4592978954,-0.0721202799,-0.0481814779,0.0025079753,2.7295023600,-0.4223022461,3.1302083333
0.4619917870,-0.0701671549,-0.0476931966,0.0112970377,2.7295023600,-0.4223022461,3.1302083333
0.4646799564,-0.0701671549,-0.0476931966,0.0112970377,3.0194193522,-0.4375610352,3.2370198568
0.4673759937,-0.0701671549,-0.0476931966,0.0112970377,3.0194193522,-0.4375610352,3.2370198568
0.4700789452,-0.0701671549,-0.0476931966,0.0112970377,3.3245951334,-0.5291137696,4.0152180990
0.4727768898,-0.0730968424,-0.0413455403,-0.0018865560,3.3245951334,-0.5291137696,4.0152180990
0.4754679203,-0.0730968424,-0.0413455403,-0.0018865560,4.3316752116,-0.5443725586,4.3814290365
0.4781639576,-0.0730968424,-0.0413455403,-0.0018865560,4.3316752116,-0.5443725586,4.3814290365
0.4807288647,-0.0730968424,-0.0413455403,-0.0018865560,4.3316752116,-0.5748901368,4.5950520833
0.4832949638,-0.0711437174,-0.0486697591,0.0103204753,4.9878031413,-0.5748901368,4.5950520833
0.4858608246,-0.0711437174,-0.0486697591,0.0103204753,4.9878031413,-0.5748901368,4.8849690755
0.4884619713,-0.0711437174,-0.0486697591,0.0103204753,6.4984232584,-0.3917846680,4.8849690755
0.4911599159,-0.0711437174,-0.0486697591,0.0147150065,6.4984232584,-0.3917846680,5.2664388021
0.4938609600,-0.0813976236,-0.0491580403,0.0147150065,8.2837015787,-0.2697143555,5.2664388021
0.4965538979,-0.0813976236,-0.0491580403,0.0147150065,8.2837015787,-0.2697143555,5.4037679036
0.4993519783,-0.0813976236,-0.0491580403,0.0147150065,9.2144877116,0.0354614258,5.4037679036
0.5021538734,-0.0809093424,-0.0467166341,0.0059259440,9.2144877116,0.0354614258,5.8920491536
0.5048398972,-0.0809093424,-0.0467166341,0.0059259440,9.4128519694,-0.1476440430,5.8920491536
0.5075259209,-0.0809093424,-0.0467166341,0.0059259440,9.4128519694,-0.1476440430,6.2124837240
0.5103828907,-0.0809093424,-0.0467166341,0.0059259440,9.7485453287,-0.0560913086,6.2124837240
0.5130767822,-0.0687023112,-0.0252322591,0.0044611003,9.7485453287,0.1270141601,6.1819661458
0.5159637928,-0.0687023112,-0.0252322591,0.0044611003,9.8400980631,0.1270141601,6.1819661458
0.5188498497,-0.0687023112,-0.0252322591,0.0044611003,9.8400980631,0.1270141601,6.2124837240
0.5215539932,-0.0687023112,-0.0252322591,0.0029962565,9.9011332194,0.1270141601,6.2124837240
0.5242547989,-0.0711437174,-0.0223025716,0.0029962565,9.9011332194,0.0659790039,6.3803304036
0.5269589424,-0.0711437174,-0.0223025716,0.0029962565,9.8095804850,0.0659790039,6.3803304036
0.5295739174,-0.0711437174,-0.0223025716,0.0029962565,9.8095804850,0.0659790039,6.4718831380
0.5321469307,-0.0711437174,-0.0096072591,0.0117853190,9.9163920084,-0.0866088868,6.4718831380
0.5347199440,-0.0691905924,-0.0096072591,0.0117853190,9.9163920084,-0.0866088868,5.9378255208
0.5372929573,-0.0691905924,-0.0096072591,0.0117853190,10.1300150553,0.0964965820,5.9378255208
0.5399928093,-0.0691905924,-0.0096072591,0.0117853190,10.1300150553,0.0964965820,5.4800618490
0.5426928997,-0.0618663736,-0.0013064779,0.0122736003,9.9163920084,0.5847778320,5.4800618490
0.5453908443,-0.0618663736,-0.0013064779,0.0122736003,9.9163920084,0.5847778320,4.8697102865
0.5481269360,-0.0618663736,-0.0013064779,0.0122736003,9.0618998209,0.2338256836,4.8697102865
0.5506949425,-0.0618663736,-0.0013064779,0.0122736003,9.0618998209,0.2338256836,4.8697102865
0.5532639027,-0.0589366862,0.0016232097,0.0059259440,8.4973246256,0.0202026367,4.2746175130
0.5558300018,-0.0589366862,0.0016232097,0.0059259440,8.4973246256,0.0202026367,4.2746175130
0.5584018230,-0.0589366862,0.0016232097,0.0059259440,8.5583597819,0.4321899414,3.6490071615
0.5609719753,-0.0589366862,0.0016232097,0.0059259440,8.5583597819,0.4321899414,3.6490071615
0.5635449886,-0.0721202799,-0.0115603841,0.0044611003,8.7567240397,0.6305541992,3.2065022786
0.5662147999,-0.0721202799,-0.0115603841,0.0044611003,8.7567240397,0.6305541992,3.2065022786
0.5689067841,-0.0721202799,-0.0115603841,0.0044611003,8.2989603678,0.6305541992,2.0315755208
0.5714788437,-0.0721202799,-0.0115603841,0.0044611003,8.2989603678,0.6305541992,2.0315755208
0.5740478039,-0.0721202799,-0.0105838216,0.0069025065,7.9174906413,0.5084838867,2.2604573568
0.5766198635,-0.0721202799,-0.0105838216,0.0069025065,7.9174906413,0.5084838867,2.2604573568
0.5792748928,-0.0721202799,-0.0105838216,0.0069025065,7.5817972819,0.4627075195,1.8637288412
0.5818448067,-0.0721202799,-0.0105838216,0.0069025065,7.5817972819,0.4627075195,1.8637288412
0.5844199657,-0.0721202799,-0.0183963216,0.0010431315,7.7801615397,0.2490844726,1.3144124349
0.5869820118,-0.0721202799,-0.0183963216,0.0010431315,7.7801615397,0.2490844726,1.3144124349
0.5896489620,-0.0721202799,-0.0183963216,0.0010431315,7.7801615397,0.0354614258,0.8261311849
0.5923488140,-0.0721202799,-0.0183963216,0.0049493815,8.1921488444,0.0354614258,0.8261311849
0.5950438976,-0.0750499674,-0.0257205403,0.0049493815,8.1921488444,-0.0713500977,0.9176839193
0.5977377892,-0.0750499674,-0.0257205403,0.0049493815,8.4210306803,-0.0713500977,0.9176839193
0.6004488468,-0.0750499674,-0.0257205403,0.0049493815,8.4210306803,0.1880493164,0.7193196615
0.6031448841,-0.0779796549,-0.0408572591,-0.0077459310,7.7649027506,0.1880493164,0.7193196615
0.6058399677,-0.0779796549,-0.0408572591,-0.0077459310,7.7649027506,0.1880493164,0.9176839193
0.6085188389,-0.0779796549,-0.0408572591,-0.0077459310,6.8951517741,0.1880493164,0.9176839193
0.6110827923,-0.0779796549,-0.0408572591,-0.0077459310,6.8951517741,0.1880493164,1.1923421224
0.6136479378,-0.0726085612,-0.0325564779,-0.0038396810,6.2390238444,-0.0713500977,1.1923421224
0.6162118912,-0.0726085612,-0.0325564779,-0.0038396810,6.2390238444,-0.0713500977,1.6501057943
0.6188869476,-0.0726085612,-0.0325564779,-0.0038396810,5.4303080241,0.0049438476,1.6501057943
0.6214528084,-0.0726085612,-0.0325564779,-0.0038396810,5.4303080241,0.0049438476,1.6501057943
0.6240170002,-0.0691905924,-0.0081424153,0.0054376627,4.6978861491,-0.0408325196,1.7111409505
0.6265788078,-0.0691905924,-0.0081424153,0.0054376627,4.6978861491,-0.0408325196,1.7111409505
0.6293888092,-0.0691905924,-0.0081424153,0.0054376627,4.0264994303,-0.0408325196,1.3754475912
0.6319608688,-0.0691905924,-0.0081424153,0.0054376627,4.0264994303,-0.0408325196,1.3754475912
0.6347467899,-0.0647960612,-0.0042361653,0.0108087565,4.0722757975,-0.2544555664,1.1007893880
0.6373169422,-0.0647960612,-0.0042361653,0.0108087565,4.0722757975,-0.2544555664,1.1007893880
0.6401479244,-0.0647960612,-0.0042361653,0.0108087565,3.8739115397,0.1117553711,0.8413899740
0.6428449154,-0.0647960612,-0.0042361653,0.0078790690,3.8739115397,0.1117553711,0.8413899740
0.6455459595,-0.0589366862,-0.0110721029,0.0078790690,3.2940775553,0.0659790039,0.7956136068
0.6482529640,-0.0589366862,-0.0110721029,0.0078790690,3.2940775553,0.0659790039,0.7956136068
0.6509590149,-0.0589366862,-0.0110721029,0.0078790690,3.0651957194,-0.3002319336,0.5667317708
0.6536588669,-0.0652843424,-0.0076541341,0.0112970377,3.0651957194,-0.3002319336,0.5667317708
0.6563549042,-0.0652843424,-0.0076541341,0.0112970377,2.3785502116,0.0049438476,0.4141438802
0.6590650082,-0.0652843424,-0.0076541341,0.0112970377,2.3785502116,0.0049438476,0.4141438802
0.6617619991,-0.0652843424,-0.0076541341,0.0112970377,1.8292338053,0.0964965820,0.0784505208
0.6644599438,-0.0687023112,-0.0091189779,0.0064142253,1.8292338053,0.0964965820,0.0784505208
0.6671588421,-0.0687023112,-0.0091189779,0.0064142253,1.4630228678,-0.0408325196,-0.3640543620
0.6697688103,-0.0687023112,-0.0091189779,0.0064142253,1.4630228678,-0.0408325196,-0.3640543620
0.6723318100,-0.0687023112,-0.0091189779,0.0064142253,1.2036234537,0.0049438476,-0.9744059245
0.6748988628,-0.0662609049,-0.0047244466,0.0093439127,1.2036234537,0.0049438476,-0.9744059245
0.6774678230,-0.0662609049,-0.0047244466,0.0093439127,0.7611185709,0.2033081054,-0.9286295573
0.6800878048,-0.0662609049,-0.0047244466,0.0093439127,0.7611185709,0.2033081054,-0.9286295573
0.6826570034,-0.0662609049,-0.0047244466,0.0093439127,0.0744730631,-0.0866088868,-0.9744059245
0.6852219105,-0.0535655924,0.0011349284,-0.0018865560,0.0744730631,-0.0866088868,-0.9744059245
0.6877889633,-0.0535655924,0.0011349284,-0.0018865560,-0.2001851400,-0.2239379883,-0.9744059245
0.6904098988,-0.0535655924,0.0011349284,-0.0018865560,-0.2001851400,-0.2239379883,-0.9744059245
0.6930868626,-0.0535655924,0.0011349284,-0.0038396810,-0.2001851400,0.0354614258,-1.5847574870
0.6956617832,-0.0672374674,-0.0169314779,-0.0038396810,0.5322367350,0.0354614258,-1.5847574870
0.6983809471,-0.0672374674,-0.0169314779,-0.0038396810,0.5322367350,-0.1781616211,-1.4779459635
0.7010898590,-0.0672374674,-0.0169314779,-0.0038396810,0.5322367350,-0.1781616211,-1.4779459635
0.7037858963,-0.0672374674,-0.0247439779,0.0020196940,0.5322367350,-0.0408325196,-1.2032877604
0.7064759731,-0.0628429362,-0.0247439779,0.0020196940,-0.4901021322,-0.0408325196,-1.2032877604
0.7091858387,-0.0628429362,-0.0247439779,0.0020196940,-0.4901021322,0.2033081054,-1.0506998698
0.7118859291,-0.0628429362,-0.0247439779,0.0020196940,-1.0394185384,0.2033081054,-1.0506998698
0.7145857811,-0.0682140299,-0.0149783529,-0.0004217123,-1.0394185384,0.2033081054,-1.2643229167
0.7172858715,-0.0682140299,-0.0149783529,-0.0004217123,-0.9020894369,0.2338256836,-1.2643229167
0.7199938297,-0.0682140299,-0.0149783529,-0.0004217123,-0.9020894369,0.2338256836,-1.1880289714
0.7226958275,-0.0682140299,-0.0149783529,-0.0004217123,-0.5969136556,-0.1934204102,-1.1880289714
0.7253940105,-0.0667491862,-0.0232791341,0.0010431315,-0.5969136556,-0.1934204102,-1.0506998698
0.7281279564,-0.0667491862,-0.0232791341,0.0010431315,-0.5663960775,-0.2544555664,-1.0506998698
0.7306938171,-0.0667491862,-0.0232791341,0.0010431315,-0.5663960775,-0.2544555664,-0.8370768229
0.7332630157,-0.0667491862,-0.0232791341,0.0010431315,-0.2917378744,-0.6054077149,-0.8370768229
0.7358260155,-0.0711437174,-0.0188846029,0.0083673503,-0.2917378744,-0.6054077149,-0.8370768229
0.7384459972,-0.0711437174,-0.0188846029,0.0083673503,-0.9326070150,-0.8037719727,-0.9744059245
0.7411448956,-0.0711437174,-0.0188846029,0.0083673503,-0.9326070150,-0.8037719727,-0.9744059245
0.7438428402,-0.0711437174,-0.0188846029,0.0073907877,-1.3140767416,-0.6206665039,-1.1880289714
0.7465388775,-0.0667491862,-0.0061892903,0.0073907877,-1.3140767416,-0.6206665039,-1.1880289714
0.7492499352,-0.0667491862,-0.0061892903,0.0073907877,-1.0699361166,-0.3612670899,-1.0659586588
0.7519478798,-0.0667491862,-0.0061892903,0.0073907877,-1.0699361166,-0.3612670899,-1.0659586588
0.7547678947,-0.0726085612,-0.0105838216,0.0073907877,-0.7800191244,-0.3917846680,-0.9744059245
0.7580130100,-0.0726085612,-0.0105838216,0.0073907877,-0.7800191244,-0.3917846680,-1.2338053385
0.7607188225,-0.0726085612,-0.0105838216,0.0073907877,-0.6884663900,-0.2849731446,-1.2338053385
0.7634179592,-0.0726085612,-0.0105838216,0.0073907877,-0.6884663900,-0.2849731446,-1.1422526042
0.7661190033,-0.0682140299,-0.0252322591,0.0132501627,-0.3222554525,-0.5443725586,-1.1422526042
0.7688269615,-0.0682140299,-0.0252322591,0.0132501627,-0.3222554525,-0.5443725586,-1.0659586588
0.7715229988,-0.0682140299,-0.0252322591,0.0132501627,-0.5511372884,-0.3612670899,-1.0659586588
0.7742218971,-0.0682140299,-0.0252322591,0.0161798503,-0.5511372884,-0.3612670899,-1.0354410807
0.7769169807,-0.0687023112,-0.0198611653,0.0161798503,-0.5969136556,-0.5901489258,-1.0354410807
0.7795469761,-0.0687023112,-0.0198611653,0.0161798503,-0.5969136556,-0.5901489258,-1.2795817057
0.7821118832,-0.0687023112,-0.0198611653,0.0161798503,-0.4290669759,-0.3917846680,-1.2795817057
0.7846748829,-0.0687023112,-0.0159549153,0.0132501627,-0.4290669759,-0.3917846680,-1.2795817057
0.7872419357,-0.0647960612,-0.0159549153,0.0132501627,0.3643900553,-0.2086791992,-1.3100992838
0.7898550034,-0.0647960612,-0.0159549153,0.0132501627,0.3643900553,-0.2086791992,-1.3100992838
0.7924230099,-0.0647960612,-0.0159549153,0.0132501627,0.5627543131,-0.4223022461,-1.7373453776
0.7949860096,-0.0716319986,-0.0100955403,0.0020196940,0.5627543131,-0.4223022461,-1.7373453776
0.7975540161,-0.0716319986,-0.0100955403,0.0020196940,0.6237894694,-0.5138549805,-1.7373453776
0.8001267910,-0.0716319986,-0.0100955403,0.0020196940,0.6237894694,-0.5138549805,-1.7373453776
0.8027038574,-0.0716319986,-0.0100955403,0.0020196940,0.2118021647,-0.8190307618,-1.7983805338
0.8052649498,-0.0672374674,-0.0003299153,0.0015314127,0.2118021647,-0.8190307618,-1.7983805338
0.8084299564,-0.0672374674,-0.0003299153,0.0015314127,0.1049906413,-0.8190307618,-2.5765787760
0.8109920025,-0.0672374674,-0.0003299153,0.0015314127,0.1049906413,-0.8190307618,-2.5765787760
0.8135550022,-0.0672374674,-0.0003299153,0.0015314127,0.5932718913,-0.9563598633,-3.2174479167
0.8161208630,-0.0706554362,0.0001583659,0.0034845377,0.5932718913,-0.9563598633,-3.2174479167
0.8187289238,-0.0706554362,0.0001583659,0.0034845377,1.5240580241,-0.9716186524,-3.7515055338
0.8214077950,-0.0706554362,0.0001583659,0.0034845377,1.5240580241,-0.9716186524,-3.7515055338
0.8239679337,-0.0706554362,0.0001583659,0.0034845377,2.7600199381,-1.1089477539,-3.7362467448
0.8265299797,-0.0657726236,-0.0223025716,0.0005548503,2.7600199381,-1.1089477539,-3.7362467448
0.8291277885,-0.0657726236,-0.0223025716,0.0005548503,2.7600199381,-1.3225708008,-3.6446940104
0.8316907883,-0.0657726236,-0.0223025716,0.0005548503,2.6379496256,-1.3225708008,-3.6446940104
0.8342509270,-0.0657726236,-0.0223025716,0.0005548503,2.6379496256,-1.3225708008,-3.6294352214
0.8368198872,-0.0691905924,-0.0154666341,-0.0028631185,2.1801859537,-1.2920532227,-3.6294352214
0.8393878937,-0.0691905924,-0.0154666341,-0.0028631185,2.1801859537,-1.2920532227,-3.7209879557
0.8419549465,-0.0691905924,-0.0154666341,-0.0028631185,1.6766459147,-1.2615356446,-3.7209879557
0.8445119858,-0.0691905924,-0.0154666341,0.0020196940,1.6766459147,-1.2615356446,-3.7209879557
0.8470737934,-0.0667491862,-0.0164431966,0.0020196940,1.1883646647,-1.7040405274,-3.6904703776
0.8498048782,-0.0667491862,-0.0164431966,0.0020196940,1.1883646647,-1.7040405274,-3.6904703776
0.8523719311,-0.0667491862,-0.0164431966,0.0020196940,0.5322367350,-2.0397338868,-3.9346110026
0.8549368382,-0.0667491862,-0.0164431966,0.0112970377,0.5322367350,-2.0397338868,-3.9346110026
0.8575069904,-0.0687023112,-0.0169314779,0.0112970377,0.5780131022,-1.6735229492,-3.5989176432
0.8602828979,-0.0687023112,-0.0169314779,0.0112970377,0.5780131022,-1.6735229492,-3.5989176432
0.8629908562,-0.0687023112,-0.0169314779,0.0112970377,0.6848246256,-1.5056762696,-3.5073649088
0.8656878471,-0.0589366862,-0.0144900716,0.0142267253,0.6848246256,-1.5056762696,-3.5073649088
0.8683888912,-0.0589366862,-0.0144900716,0.0142267253,0.7611185709,-1.8413696289,-3.6904703776
0.8710939884,-0.0589366862,-0.0144900716,0.0142267253,0.7611185709,-1.8413696289,-3.6904703776
0.8737897873,-0.0589366862,-0.0144900716,0.0142267253,1.1273295084,-1.7498168946,-3.5836588542
0.8764820099,-0.0613780924,-0.0149783529,0.0127618815,1.1273295084,-1.7498168946,-3.5836588542
0.8791358471,-0.0613780924,-0.0149783529,0.0127618815,1.2341410319,-1.6735229492,-3.4310709635
0.8816959858,-0.0613780924,-0.0149783529,0.0127618815,1.2341410319,-1.6735229492,-3.4310709635
0.8843688965,-0.0613780924,-0.0149783529,0.0127618815,1.5698343913,-1.6430053711,-3.1258951823
0.8869338036,-0.0647960612,-0.0198611653,0.0073907877,1.5698343913,-1.6430053711,-3.1258951823
0.8896088600,-0.0647960612,-0.0198611653,0.0073907877,1.9360453287,-1.7345581055,-3.1869303385
0.8923130035,-0.0647960612,-0.0198611653,0.0073907877,1.9360453287,-1.7345581055,-3.1869303385
0.8950078487,-0.0647960612,-0.0198611653,0.0093439127,2.1954447428,-1.2767944336,-3.5226236979
0.8977048397,-0.0687023112,-0.0208377279,0.0093439127,2.1954447428,-1.2767944336,-3.5226236979
0.9004168510,-0.0687023112,-0.0208377279,0.0093439127,2.3175150553,-0.5901489258,-3.1716715495
0.9031147957,-0.0687023112,-0.0208377279,0.0093439127,2.3175150553,-0.5901489258,-3.1716715495
0.9058167934,-0.0687023112,-0.0330447591,0.0122736003,2.3480326334,-1.0936889649,-3.0648600260
0.9085609913,-0.0789562174,-0.0330447591,0.0122736003,2.3480326334,-1.0936889649,-3.0648600260
0.9112498760,-0.0789562174,-0.0330447591,0.0122736003,1.9055277506,-1.1242065430,-2.8817545573
0.9139637947,-0.0789562174,-0.0330447591,0.0122736003,1.9055277506,-1.1242065430,-2.8817545573
0.9167108536,-0.0730968424,-0.0359744466,0.0137384440,2.0886332194,-1.3073120118,-2.4850260417
0.9198248386,-0.0730968424,-0.0359744466,0.0137384440,2.0886332194,-1.3073120118,-2.4850260417
0.9225249290,-0.0730968424,-0.0359744466,0.0137384440,1.4630228678,-1.0173950196,-2.0730387370
0.9252228737,-0.0730968424,-0.0359744466,0.0137384440,1.4630228678,-1.0173950196,-2.0730387370
0.9279367924,-0.0662609049,-0.0149783529,0.0122736003,1.2341410319,-0.8800659180,-1.9509684245
0.9305059910,-0.0662609049,-0.0149783529,0.0122736003,1.2341410319,-0.8800659180,-1.9509684245
0.9330728054,-0.0662609049,-0.0149783529,0.0122736003,1.4325052897,-1.2005004883,-1.9662272135
0.9356420040,-0.0662609049,-0.0149783529,0.0186212565,1.4325052897,-1.2005004883,-1.9662272135
0.9382348061,-0.0682140299,-0.0232791341,0.0186212565,1.6766459147,-1.1547241211,-1.9967447917
0.9409379959,-0.0682140299,-0.0232791341,0.0186212565,1.6766459147,-1.1547241211,-1.9967447917
0.9436278343,-0.0682140299,-0.0232791341,0.0186212565,1.9513041178,-1.0173950196,-2.1493326823
0.9463229179,-0.0682140299,-0.0130252279,0.0064142253,1.9513041178,-1.0173950196,-2.1493326823
0.9491000175,-0.0706554362,-0.0130252279,0.0064142253,2.2869974772,-1.0631713868,-1.9814860026
0.9516639709,-0.0706554362,-0.0130252279,0.0064142253,2.2869974772,-1.0631713868,-1.9814860026
0.9542288780,-0.0706554362,-0.0130252279,0.0064142253,2.2869974772,-0.8800659180,-1.8594156901
0.9567949772,-0.0726085612,-0.0242556966,0.0147150065,2.3175150553,-0.8800659180,-1.8594156901
0.9593667984,-0.0726085612,-0.0242556966,0.0147150065,2.3175150553,-0.8800659180,-1.8594156901
0.9619379044,-0.0726085612,-0.0242556966,0.0147150065,2.5158793131,-0.7732543946,-1.8594156901
0.9645059109,-0.0726085612,-0.0242556966,0.0147150065,2.5158793131,-0.7732543946,-1.8594156901
0.9670720100,-0.0755382486,-0.0227908529,0.0108087565,2.1649271647,-0.7427368164,-1.7068277995
0.9697999954,-0.0755382486,-0.0227908529,0.0108087565,2.1649271647,-0.7427368164,-1.7068277995
0.9723668098,-0.0755382486,-0.0227908529,0.0108087565,2.3175150553,-0.7122192383,-2.1798502604
0.9749298096,-0.0755382486,-0.0227908529,0.0108087565,2.3175150553,-0.7122192383,-2.1798502604
0.9774968624,-0.0657726236,-0.0218142903,0.0083673503,1.6308695475,-0.7732543946,-1.5694986979
0.9801709652,-0.0657726236,-0.0218142903,0.0083673503,1.6308695475,-0.7732543946,-1.5694986979
0.9827418327,-0.0657726236,-0.0218142903,0.0083673503,1.4782816569,-0.6054077149,-1.0506998698
0.9853088856,-0.0657726236,-0.0218142903,0.0083673503,1.4782816569,-0.6054077149,-1.0506998698
0.9878818989,-0.0701671549,-0.0159549153,0.0078790690,1.4325052897,-0.7732543946,-1.2185465495
0.9905807972,-0.0701671549,-0.0159549153,0.0078790690,1.4325052897,-0.7732543946,-1.2185465495
0.9932799339,-0.0701671549,-0.0159549153,0.0078790690,1.4325052897,-0.5596313477,-1.1269938151
0.9959728718,-0.0701671549,-0.0159549153,0.0108087565,1.4325052897,-0.5596313477,-1.1269938151
0.9986789227,-0.0677257486,-0.0232791341,0.0108087565,1.6919047037,-0.4528198242,-1.2490641276
1.0013768673,-0.0677257486,-0.0232791341,0.0108087565,1.6919047037,-0.4528198242,-1.2490641276
1.0040788651,-0.0677257486,-0.0232791341,0.0108087565,2.4548441569,-0.5138549805,-1.1727701823
1.0067799091,-0.0677257486,-0.0242556966,0.0244806315,2.4548441569,-0.5138549805,-1.1727701823
1.0094819069,-0.0701671549,-0.0242556966,0.0244806315,2.0733744303,-0.2239379883,-0.8370768229
1.0122849941,-0.0701671549,-0.0242556966,0.0244806315,2.0733744303,-0.2239379883,-0.8370768229
1.0149788857,-0.0701671549,-0.0242556966,0.0244806315,1.8444925944,-0.3307495118,-0.7302652995
1.0176718235,-0.0633312174,-0.0252322591,0.0142267253,1.8444925944,-0.3307495118,-0.7302652995
1.0203168392,-0.0633312174,-0.0252322591,0.0142267253,1.7834574381,-0.0255737305,-0.4556070964
1.0228807926,-0.0633312174,-0.0252322591,0.0142267253,1.7834574381,-0.0255737305,-0.4556070964
1.0254478455,-0.0633312174,-0.0252322591,0.0142267253,1.7681986491,0.0202026367,0.3225911458
1.0280709267,-0.0706554362,-0.0325564779,0.0205743815,1.7681986491,0.0202026367,0.3225911458
1.0307447910,-0.0706554362,-0.0325564779,0.0205743815,2.0275980631,-0.3002319336,0.4294026693
1.0334289074,-0.0706554362,-0.0325564779,0.0205743815,2.0275980631,-0.3002319336,0.4294026693
1.0363628864,-0.0706554362,-0.0325564779,0.0205743815,2.0581156413,0.1575317382,0.6430257162
1.0392258167,-0.0672374674,-0.0247439779,0.0132501627,2.0581156413,0.1575317382,0.6430257162
1.0418858528,-0.0672374674,-0.0247439779,0.0132501627,1.4630228678,0.4474487304,0.8261311849
1.0445439816,-0.0672374674,-0.0247439779,0.0132501627,1.4630228678,0.4474487304,0.8261311849
1.0472059250,-0.0672374674,-0.0232791341,0.0161798503,1.3562113444,0.3558959961,0.8871663412
1.0499429703,-0.0716319986,-0.0232791341,0.0161798503,1.3562113444,0.3558959961,0.8871663412
1.0526390076,-0.0716319986,-0.0232791341,0.0161798503,1.8902689616,0.0354614258,1.2991536458
1.0553398132,-0.0716319986,-0.0232791341,0.0161798503,1.8902689616,0.0354614258,1.2991536458
1.0580809116,-0.0711437174,-0.0105838216,0.0112970377,2.0275980631,0.1422729492,1.5127766927
1.0606479645,-0.0711437174,-0.0105838216,0.0112970377,2.0275980631,0.1422729492,1.5127766927
1.0632109642,-0.0711437174,-0.0105838216,0.0112970377,2.0275980631,0.0354614258,1.2838948568
1.0657768250,-0.0711437174,-0.0105838216,0.0112970377,1.9360453287,0.0354614258,1.2838948568
1.0683679581,-0.0667491862,-0.0076541341,0.0098321940,1.9360453287,0.0354614258,1.2076009115
1.0709359646,-0.0667491862,-0.0076541341,0.0098321940,1.6308695475,0.1575317382,1.2076009115
1.0735039711,-0.0667491862,-0.0076541341,0.0098321940,1.6308695475,0.1575317382,0.8566487630
1.0761759281,-0.0667491862,-0.0076541341,0.0098321940,1.7681986491,0.2185668945,0.8566487630
1.0787467957,-0.0662609049,-0.0017947591,0.0049493815,1.7681986491,0.2185668945,0.8566487630
1.0813138485,-0.0662609049,-0.0017947591,0.0049493815,2.0733744303,0.0202026367,1.3601888021
1.0838799477,-0.0662609049,-0.0017947591,0.0049493815,2.0733744303,0.0202026367,1.3601888021
1.0864439011,-0.0662609049,-0.0017947591,0.0049493815,1.5850931803,-0.1476440430,1.0702718099
1.0890588760,-0.0701671549,-0.0081424153,0.0142267253,1.5850931803,-0.1476440430,1.0702718099
1.0916218758,-0.0701671549,-0.0081424153,0.0142267253,1.9970804850,-0.1323852539,0.7650960286
1.0941889286,-0.0701671549,-0.0081424153,0.0142267253,1.9970804850,-0.1323852539,0.7650960286
1.0967669487,-0.0701671549,-0.0081424153,0.0142267253,2.3480326334,0.1422729492,1.2381184896
1.0994958878,-0.0687023112,-0.0105838216,0.0181329753,2.3480326334,0.1422729492,1.2381184896
1.1021978855,-0.0687023112,-0.0105838216,0.0181329753,2.0581156413,0.0812377929,1.1923421224
1.1048898697,-0.0687023112,-0.0105838216,0.0181329753,2.0581156413,0.0812377929,1.1923421224
1.1075909138,-0.0687023112,-0.0208377279,0.0181329753,1.7681986491,0.0659790039,1.3296712240
1.1102099419,-0.0652843424,-0.0208377279,0.0181329753,1.7681986491,0.0659790039,1.3296712240
1.1127748489,-0.0652843424,-0.0208377279,0.0181329753,1.8597513834,0.4169311523,1.4059651693
1.1153428555,-0.0652843424,-0.0208377279,0.0181329753,1.8597513834,0.4169311523,1.4059651693
1.1178820133,-0.0652843424,-0.0213260091,0.0147150065,1.7987162272,0.5084838867,1.8942464193
1.1205790043,-0.0687023112,-0.0213260091,0.0147150065,1.7987162272,0.5084838867,1.8942464193
1.1232769489,-0.0687023112,-0.0213260091,0.0147150065,1.4630228678,0.8136596679,2.4283040365
1.1259698868,-0.0687023112,-0.0213260091,0.0147150065,1.4630228678,0.8136596679,2.4283040365
1.1286759377,-0.0755382486,-0.0213260091,0.0098321940,1.4477640787,1.0730590820,2.5961507162
1.1313738823,-0.0755382486,-0.0213260091,0.0098321940,1.4477640787,1.0730590820,2.5961507162
1.1340727806,-0.0755382486,-0.0213260091,0.0098321940,1.5850931803,0.7068481445,2.7029622396
1.1367688179,-0.0755382486,-0.0213260091,0.0098321940,1.5850931803,0.7068481445,2.7029622396
1.1394758224,-0.0687023112,-0.0262088216,0.0215509440,1.5850931803,0.8441772461,3.1454671224
1.1422798634,-0.0687023112,-0.0262088216,0.0215509440,1.4630228678,0.8441772461,3.1454671224
1.1449799538,-0.0687023112,-0.0262088216,0.0215509440,1.0510355631,0.9357299804,2.9471028646
1.1476747990,-0.0687023112,-0.0262088216,0.0044611003,1.0510355631,0.9357299804,2.9471028646
1.1502659321,-0.0652843424,-0.0076541341,0.0044611003,1.0510355631,0.9204711914,3.2065022786
1.1528367996,-0.0652843424,-0.0076541341,0.0044611003,1.1425882975,0.9204711914,3.2065022786
1.1554999352,-0.0652843424,-0.0076541341,0.0044611003,1.1425882975,0.9204711914,3.2675374349
1.1585459709,-0.0726085612,-0.0096072591,0.0117853190,1.3409525553,0.9204711914,3.2675374349
1.1612458229,-0.0726085612,-0.0096072591,0.0117853190,1.3409525553,0.9662475586,3.3133138021
1.1639440060,-0.0726085612,-0.0096072591,0.0117853190,1.3714701334,0.9662475586,3.3133138021
1.1666429043,-0.0726085612,-0.0096072591,0.0117853190,1.3714701334,0.6915893554,3.1302083333
1.1693530083,-0.0657726236,-0.0017947591,0.0137384440,1.0815531413,0.6915893554,3.1302083333
1.1720519066,-0.0657726236,-0.0017947591,0.0137384440,1.0815531413,0.8289184570,2.8402913412
1.1747620106,-0.0657726236,-0.0017947591,0.0137384440,0.8984476725,0.8289184570,2.8402913412
1.1774599552,-0.0657726236,-0.0017947591,0.0137384440,0.8984476725,0.9052124023,2.5808919271
1.1801710129,-0.0647960612,-0.0086306966,0.0142267253,1.2951761881,0.9052124023,2.5808919271
1.1828689575,-0.0647960612,-0.0086306966,0.0142267253,1.2951761881,1.0425415039,2.1689046224
1.1855659485,-0.0647960612,-0.0086306966,0.0142267253,1.1425882975,1.0425415039,2.1689046224
1.1882638931,-0.0647960612,-0.0086306966,0.0137384440,1.1425882975,0.9815063476,2.4588216146
1.1908278465,-0.0730968424,-0.0140017903,0.0137384440,1.4782816569,0.9815063476,2.4588216146
1.1933898926,-0.0730968424,-0.0140017903,0.0137384440,1.4782816569,0.9815063476,2.7334798177
1.1959619522,-0.0730968424,-0.0140017903,0.0137384440,1.6156107584,0.9662475586,2.7334798177
1.1985650063,-0.0730968424,-0.0086306966,0.0039728190,1.6156107584,0.9662475586,2.7334798177
1.2011640072,-0.0682140299,-0.0086306966,0.0039728190,1.3104349772,0.6915893554,2.5656331380
1.2039508820,-0.0682140299,-0.0086306966,0.0039728190,1.3104349772,0.6915893554,2.5656331380
1.2066259384,-0.0682140299,-0.0086306966,0.0039728190,1.0662943522,1.0578002929,2.6877034505
1.2092468739,-0.0647960612,-0.0061892903,0.0200861003,1.0662943522,1.0578002929,2.6877034505
1.2118148804,-0.0647960612,-0.0061892903,0.0200861003,1.0662943522,1.2714233398,2.8555501302
1.2143828869,-0.0647960612,-0.0061892903,0.0200861003,1.0662943522,1.2714233398,2.8555501302
1.2169508934,-0.0647960612,-0.0061892903,0.0200861003,1.6613871256,0.9967651367,3.4048665365
1.2196888924,-0.0613780924,-0.0115603841,0.0064142253,1.6613871256,0.9967651367,3.4048665365
1.2223908901,-0.0613780924,-0.0115603841,0.0064142253,1.4477640787,1.0883178711,3.6795247396
1.2250897884,-0.0613780924,-0.0115603841,0.0064142253,1.4477640787,1.0883178711,3.6795247396
1.2277798653,-0.0613780924,-0.0115603841,0.0064142253,1.3409525553,0.9662475586,3.4353841146
1.2304859161,-0.0604015299,-0.0100955403,0.0112970377,1.3409525553,0.9662475586,3.4353841146
1.2331738472,-0.0604015299,-0.0100955403,0.0112970377,0.8526713053,0.7831420898,3.2217610677
1.2358667850,-0.0604015299,-0.0100955403,0.0112970377,0.8526713053,0.7831420898,3.2217610677
1.2385568619,-0.0604015299,-0.0100955403,0.0152032877,0.8526713053,1.1646118164,3.5879720052
1.2411248684,-0.0711437174,-0.0100955403,0.0152032877,0.8526713053,1.1646118164,3.5879720052
1.2436947823,-0.0711437174,-0.0100955403,0.0152032877,1.1883646647,1.1035766601,4.0762532552
1.2462599277,-0.0711437174,-0.0100955403,0.0152032877,1.1883646647,1.1035766601,4.0762532552
1.2488789558,-0.0711437174,-0.0100955403,0.0078790690,0.8068949381,1.1188354492,4.1525472005
1.2515799999,-0.0643077799,-0.0076541341,0.0078790690,0.8068949381,1.1188354492,4.1525472005
1.2542729378,-0.0643077799,-0.0076541341,0.0078790690,0.8831888834,1.2561645508,4.7476399740
1.2569708824,-0.0643077799,-0.0076541341,0.0078790690,0.8831888834,1.2561645508,4.7476399740
1.2596769333,-0.0745616862,0.0001583659,0.0112970377,0.7000834147,1.4545288086,4.9002278646
1.2623798847,-0.0745616862,0.0001583659,0.0112970377,0.7000834147,1.4545288086,4.9002278646
1.2650799751,-0.0745616862,0.0001583659,0.0112970377,0.5017191569,1.1035766601,4.2440999349
1.2677807808,-0.0745616862,0.0001583659,0.0112970377,0.5017191569,1.1035766601,4.2440999349
1.2705948353,-0.0667491862,0.0025997721,0.0073907877,0.1812845866,1.2714233398,3.6184895833
1.2732989788,-0.0667491862,0.0025997721,0.0073907877,0.1812845866,1.2714233398,3.6184895833
1.2761669159,-0.0667491862,0.0025997721,0.0073907877,0.6695658366,1.1951293945,3.5421956380
1.2790219784,-0.0667491862,0.0025997721,0.0137384440,0.6695658366,1.1951293945,3.5421956380
1.2817249298,-0.0638194986,0.0011349284,0.0137384440,1.0357767741,1.3171997070,3.7100423177
1.2844238281,-0.0638194986,0.0011349284,0.0137384440,1.0357767741,1.3171997070,3.7100423177
1.2871289253,-0.0638194986,0.0011349284,0.0137384440,1.2188822428,1.1340942382,3.6642659505
1.2897529602,-0.0638194986,0.0074825847,0.0054376627,1.2188822428,1.1340942382,3.6642659505
1.2923247814,-0.0623546549,0.0074825847,0.0054376627,1.2188822428,1.2409057617,3.6337483724
1.2948918343,-0.0623546549,0.0074825847,0.0054376627,1.2188822428,1.2409057617,3.6337483724
1.2974569798,-0.0623546549,0.0074825847,0.0054376627,1.3562113444,1.2866821289,3.4201253255
1.3004918098,-0.0682140299,-0.0008181966,0.0103204753,1.3562113444,1.2866821289,3.4201253255
1.3037919998,-0.0682140299,-0.0008181966,0.0103204753,1.2341410319,1.1951293945,3.6947835286
1.3064939976,-0.0682140299,-0.0008181966,0.0103204753,1.2341410319,1.1951293945,3.6947835286
1.3091449738,-0.0682140299,-0.0008181966,0.0137384440,1.0662943522,1.0578002929,3.0081380208
1.3117098808,-0.0667491862,-0.0042361653,0.0137384440,1.0662943522,1.0578002929,3.0081380208
1.3142778873,-0.0667491862,-0.0042361653,0.0137384440,0.9900004069,1.1188354492,3.4353841146
1.3168399334,-0.0667491862,-0.0042361653,0.0137384440,0.9900004069,1.1188354492,3.4353841146
1.3195388317,-0.0667491862,-0.0042361653,0.0132501627,0.8068949381,1.3629760742,4.0609944662
1.3222408295,-0.0721202799,0.0011349284,0.0132501627,0.8068949381,1.3629760742,4.0609944662
1.3249390125,-0.0721202799,0.0011349284,0.0132501627,0.5932718913,1.2714233398,4.0457356771
1.3276410103,-0.0721202799,0.0011349284,0.0132501627,0.5932718913,1.2714233398,4.0457356771
1.3303430080,-0.0647960612,-0.0003299153,0.0054376627,0.5322367350,1.1951293945,3.8015950521
1.3330409527,-0.0647960612,-0.0003299153,0.0054376627,0.5322367350,1.1951293945,3.8015950521
1.3358550072,-0.0647960612,-0.0003299153,0.0054376627,0.4406840006,1.0730590820,3.8626302083
1.3385407925,-0.0647960612,-0.0003299153,0.0054376627,0.4406840006,1.0730590820,3.8626302083
1.3411059380,-0.0672374674,0.0035763347,0.0122736003,0.5017191569,1.1035766601,3.7253011068
1.3436768055,-0.0672374674,0.0035763347,0.0122736003,0.5017191569,1.1035766601,3.7253011068
1.3462409973,-0.0672374674,0.0035763347,0.0122736003,0.5017191569,1.3629760742,3.3285725912
1.3489007950,-0.0672374674,0.0035763347,0.0122736003,0.3186136881,1.3629760742,3.3285725912
1.3514668941,-0.0628429362,0.0045528971,0.0015314127,0.3186136881,1.3629760742,3.5421956380
1.3540308475,-0.0628429362,0.0045528971,0.0015314127,0.3491312663,1.4087524414,3.5421956380
1.3566038609,-0.0628429362,0.0045528971,0.0015314127,0.3491312663,1.4087524414,3.4964192708
1.3593180180,-0.0628429362,0.0045528971,0.0015314127,0.1202494303,1.2561645508,3.4964192708
1.3620200157,-0.0657726236,0.0089474284,0.0103204753,0.1202494303,1.2561645508,3.5269368490
1.3647198677,-0.0657726236,0.0089474284,0.0103204753,0.6390482584,1.3782348632,3.5269368490
1.3674159050,-0.0657726236,0.0089474284,0.0103204753,0.6390482584,1.3782348632,3.6947835286
1.3701598644,-0.0657726236,0.0045528971,0.0191095377,0.6085306803,1.5918579101,3.6947835286
1.3728590012,-0.0638194986,0.0045528971,0.0191095377,0.6085306803,1.5918579101,3.5879720052
1.3755569458,-0.0638194986,0.0045528971,0.0191095377,0.4712015787,1.4545288086,3.5879720052
1.3782558441,-0.0638194986,0.0045528971,0.0191095377,0.4712015787,1.4545288086,3.6032307943
1.3809528351,-0.0633312174,0.0035763347,0.0034845377,0.2728373209,1.3477172851,3.6032307943
1.3836519718,-0.0633312174,0.0035763347,0.0034845377,0.2728373209,1.3477172851,3.6642659505
1.3863458633,-0.0633312174,0.0035763347,0.0034845377,0.1355082194,1.3934936523,3.6642659505
1.3890039921,-0.0633312174,0.0035763347,0.0034845377,0.1355082194,1.3934936523,3.6642659505
1.3915657997,-0.0618663736,0.0133419597,0.0147150065,0.3796488444,1.1798706054,3.5269368490
1.3941287994,-0.0618663736,0.0133419597,0.0147150065,0.3796488444,1.1798706054,3.5269368490
1.3966908455,-0.0618663736,0.0133419597,0.0147150065,0.6085306803,1.2714233398,3.0844319662
1.3994410038,-0.0618663736,0.0133419597,0.0147150065,0.6085306803,1.2714233398,3.0844319662
1.4019978046,-0.0589366862,0.0084591471,-0.0009099935,0.2880961100,1.5003051758,3.2065022786
1.4045579433,-0.0589366862,0.0084591471,-0.0009099935,0.2880961100,1.5003051758,3.2065022786
1.4071209431,-0.0589366862,0.0084591471,-0.0009099935,0.5322367350,1.5003051758,2.7792561849
1.4097199440,-0.0589366862,0.0084591471,-0.0009099935,0.5322367350,1.5003051758,2.7792561849
1.4122838974,-0.0711437174,0.0069943034,0.0137384440,0.2270609537,1.3324584961,2.3520100912
1.4148809910,-0.0711437174,0.0069943034,0.0137384440,0.2270609537,1.3324584961,2.3520100912
1.4174499512,-0.0711437174,0.0069943034,0.0137384440,0.0286966959,1.0272827148,2.2909749349
1.4200677872,-0.0711437174,0.0069943034,0.0137384440,0.0286966959,1.0272827148,2.2909749349
1.4226279259,-0.0657726236,0.0104122721,0.0161798503,-0.1238911947,1.2561645508,2.3977864583
1.4252448082,-0.0657726236,0.0104122721,0.0161798503,-0.1238911947,1.2561645508,2.3977864583
1.4285678864,-0.0657726236,0.0104122721,0.0161798503,0.1507670084,1.2714233398,1.9400227865
1.4311327934,-0.0657726236,0.0109005534,0.0000665690,0.1507670084,1.2714233398,1.9400227865
1.4336938858,-0.0618663736,0.0109005534,0.0000665690,0.1812845866,1.0120239258,2.1231282552
1.4362587929,-0.0618663736,0.0109005534,0.0000665690,0.1812845866,1.0120239258,2.1231282552
1.4388267994,-0.0618663736,0.0109005534,0.0000665690,0.1812845866,1.1340942382,1.8179524740
1.4413897991,-0.0633312174,0.0157833659,0.0088556315,-0.1849263509,1.1340942382,1.8179524740
1.4439468384,-0.0633312174,0.0157833659,0.0088556315,-0.1849263509,5.0403442382,1.5890706380
1.4465148449,-0.0633312174,0.0157833659,0.0088556315,-0.6121724447,1.3171997070,1.5890706380
1.4491558075,-0.0633312174,0.0157833659,0.0088556315,-0.6121724447,1.3171997070,1.6195882162
1.4517168999,-0.0687023112,0.0045528971,0.0020196940,-0.3375142416,1.0425415039,1.6195882162
1.4542798996,-0.0687023112,0.0045528971,0.0020196940,-0.3375142416,1.0425415039,1.6195882162
1.4568397999,-0.0687023112,0.0045528971,0.0020196940,-0.3527730306,0.9052124023,1.4212239583
1.4594638348,-0.0687023112,0.0045528971,0.0020196940,-0.3527730306,0.9052124023,1.4212239583
1.4621348381,-0.0760265299,0.0079708659,0.0098321940,-0.3527730306,0.8136596679,1.3754475912
1.4646999836,-0.0760265299,0.0079708659,0.0098321940,-0.3527730306,0.8136596679,1.3754475912
1.4672608376,-0.0760265299,0.0079708659,0.0098321940,-0.4748433431,1.1188354492,1.7263997396
1.4699828625,-0.0760265299,0.0079708659,0.0098321940,-0.4748433431,1.1188354492,1.7263997396
1.4725439548,-0.0662609049,0.0143185221,0.0098321940,-0.2307027181,1.1188354492,1.6653645833
1.4751088619,-0.0662609049,0.0143185221,0.0098321940,-0.2307027181,1.1188354492,1.6653645833
1.4776699543,-0.0662609049,0.0143185221,0.0098321940,-0.4748433431,1.0883178711,1.1770833333
1.4803609848,-0.0662609049,0.0143185221,0.0098321940,-0.4748433431,1.0883178711,1.1770833333
1.4829239845,-0.0579601236,0.0157833659,0.0108087565,-0.2154439291,1.1646118164,1.2381184896
1.4854898453,-0.0579601236,0.0157833659,0.0108087565,-0.2154439291,1.1646118164,1.2381184896
1.4881148338,-0.0579601236,0.0157833659,0.0108087565,-0.1086324056,0.9509887695,1.1160481771
1.4906818867,-0.0579601236,0.0157833659,0.0108087565,-0.1086324056,0.9509887695,1.1160481771
1.4932539463,-0.0574718424,0.0167599284,0.0010431315,-0.1086324056,0.7373657226,1.1313069662
1.4958219528,-0.0574718424,0.0167599284,0.0010431315,-0.2001851400,0.7373657226,1.1313069662
1.4984188080,-0.0574718424,0.0167599284,0.0010431315,-0.2001851400,0.8289184570,0.9024251302
1.5011188984,-0.0574718424,0.0167599284,0.0103204753,-0.5053609213,0.8289184570,0.9024251302
1.5038208961,-0.0647960612,0.0172482097,0.0103204753,-0.5053609213,0.8289184570,0.7498372396
1.5065169334,-0.0647960612,0.0172482097,0.0103204753,-0.0933736166,0.9357299804,0.7498372396
1.5092329979,-0.0647960612,0.0172482097,0.0103204753,-0.0933736166,0.9357299804,0.4599202474
1.5119318962,-0.0647960612,0.0109005534,0.0156915690,0.3186136881,0.6305541992,0.4599202474
1.5146238804,-0.0701671549,0.0109005534,0.0156915690,0.3186136881,0.6305541992,0.5362141927
1.5173199177,-0.0701671549,0.0109005534,0.0156915690,0.2880961100,0.6305541992,0.5362141927
1.5200297832,-0.0701671549,0.0109005534,0.0156915690,0.2880961100,0.6305541992,0.5819905599
1.5227248669,-0.0662609049,0.0079708659,-0.0028631185,0.1812845866,0.5237426758,0.5819905599
1.5255348682,-0.0662609049,0.0079708659,-0.0028631185,0.1812845866,0.5237426758,0.7803548177
1.5282449722,-0.0662609049,0.0079708659,-0.0028631185,-0.0933736166,0.6763305664,0.7803548177
1.5309469700,-0.0662609049,0.0079708659,-0.0028631185,-0.0933736166,0.6763305664,0.6582845052
1.5336489677,-0.0716319986,0.0152950847,0.0034845377,-0.3069966634,0.9357299804,0.6582845052
1.5364289284,-0.0716319986,0.0152950847,0.0034845377,-0.3069966634,0.9357299804,0.6125081380
1.5390889645,-0.0716319986,0.0152950847,0.0034845377,-0.4595845541,0.7678833008,0.6125081380
1.5416560173,-0.0716319986,0.0152950847,0.0122736003,-0.4595845541,0.7678833008,0.5667317708
1.5442278385,-0.0643077799,0.0182247721,0.0122736003,-0.3069966634,0.8136596679,0.5667317708
1.5467908382,-0.0643077799,0.0182247721,0.0122736003,-0.3069966634,0.8136596679,0.5667317708
1.5494439602,-0.0643077799,0.0182247721,0.0122736003,0.1049906413,0.8289184570,0.3836263021
1.5521569252,-0.0643077799,0.0167599284,-0.0009099935,0.1049906413,0.8289184570,0.3836263021
1.5548558235,-0.0604015299,0.0167599284,-0.0009099935,-0.5816548666,0.9967651367,0.4141438802
1.5575549603,-0.0604015299,0.0167599284,-0.0009099935,-0.5816548666,0.9967651367,0.4141438802
1.5602629185,-0.0604015299,0.0167599284,-0.0009099935,-0.6884663900,0.9052124023,0.5362141927
1.5629568100,-0.0608898112,0.0113888347,0.0073907877,-0.6884663900,0.9052124023,0.5362141927
1.5656609535,-0.0608898112,0.0113888347,0.0073907877,-0.6274312337,0.9204711914,0.4751790365
1.5683529377,-0.0608898112,0.0113888347,0.0073907877,-0.6274312337,0.9204711914,0.4751790365
1.5709228516,-0.0608898112,0.0113888347,0.0073907877,-0.9173482259,0.9357299804,0.2310384115
1.5734908581,-0.0599132486,0.0152950847,0.0000665690,-0.9173482259,0.9357299804,0.2310384115
1.5760548115,-0.0599132486,0.0152950847,0.0000665690,-0.9783833822,0.7984008789,-0.0436197917
1.5787398815,-0.0599132486,0.0152950847,0.0000665690,-0.9783833822,0.7984008789,-0.0436197917
1.5813179016,-0.0599132486,0.0152950847,0.0000665690,-1.0699361166,0.4474487304,0.2462972005
1.5838868618,-0.0652843424,0.0157833659,0.0088556315,-1.0699361166,0.4474487304,0.2462972005
1.5864529610,-0.0652843424,0.0157833659,0.0088556315,-1.0699361166,0.8441772461,0.2005208333
1.5891659260,-0.0652843424,0.0157833659,0.0088556315,-1.0699361166,0.8441772461,0.2005208333
1.5917308331,-0.0652843424,0.0157833659,0.0088556315,-0.8410542806,1.3019409179,0.3378499349
1.5943019390,-0.0633312174,0.0079708659,0.0191095377,-0.8410542806,1.3019409179,0.3378499349
1.5968639851,-0.0633312174,0.0079708659,0.0191095377,-0.9783833822,1.3324584961,0.0479329427
1.5995597839,-0.0633312174,0.0079708659,0.0191095377,-0.9783833822,1.3324584961,0.0479329427
1.6022679806,-0.0633312174,0.0079708659,0.0181329753,-1.4208882650,1.3019409179,-0.1351725260
1.6049687862,-0.0613780924,0.0162716471,0.0181329753,-1.4208882650,1.3019409179,-0.1351725260
1.6076669693,-0.0613780924,0.0162716471,0.0181329753,-1.3598531087,1.4240112304,-0.3793131510
1.6103768349,-0.0613780924,0.0162716471,0.0181329753,-1.3598531087,1.4240112304,-0.3793131510
1.6130759716,-0.0599132486,0.0206661784,0.0078790690,-1.2225240072,1.0425415039,-0.5319010417
1.6157748699,-0.0599132486,0.0206661784,0.0078790690,-1.2225240072,1.0425415039,-0.5319010417
1.6184778214,-0.0599132486,0.0206661784,0.0078790690,-1.2225240072,0.9204711914,-0.6539713542
1.6211748123,-0.0599132486,0.0206661784,0.0078790690,-1.1614888509,0.9204711914,-0.6539713542
1.6238808632,-0.0604015299,0.0284786784,0.0034845377,-1.1614888509,1.0120239258,-0.6692301432
1.6265799999,-0.0604015299,0.0284786784,0.0034845377,-1.7108052572,1.0120239258,-0.6692301432
1.6292808056,-0.0604015299,0.0284786784,0.0034845377,-1.7108052572,1.1188354492,-0.8828531901
1.6319789886,-0.0604015299,0.0284786784,0.0034845377,-1.2988179525,1.1188354492,-0.8828531901
1.6346759796,-0.0564952799,0.0162716471,0.0000665690,-1.2988179525,1.2409057617,-0.9286295573
1.6373767853,-0.0564952799,0.0162716471,0.0000665690,-1.2683003744,1.2409057617,-0.9286295573
1.6399710178,-0.0564952799,0.0162716471,0.0000665690,-1.2683003744,1.2409057617,-0.9438883464
1.6425399780,-0.0564952799,0.0162716471,0.0083673503,-1.5276997884,1.1951293945,-0.9438883464
1.6451098919,-0.0706554362,0.0162716471,0.0083673503,-1.5276997884,1.1951293945,-0.9744059245
1.6476798058,-0.0706554362,0.0162716471,0.0083673503,-1.8633931478,1.2103881836,-0.9744059245
1.6503968239,-0.0706554362,0.0162716471,0.0083673503,-1.8633931478,1.2103881836,-1.0201822917
1.6531980038,-0.0706554362,0.0138302409,0.0054376627,-1.7413228353,1.0883178711,-1.0201822917
1.6558928490,-0.0667491862,0.0138302409,0.0054376627,-1.7413228353,1.0883178711,-1.1575113932
1.6585998535,-0.0667491862,0.0138302409,0.0054376627,-2.0922749837,1.1340942382,-1.1575113932
1.6612999439,-0.0667491862,0.0138302409,0.0054376627,-2.0922749837,1.1340942382,-1.4626871745
1.6639959812,-0.0613780924,0.0182247721,0.0103204753,-1.9549458822,0.9052124023,-1.4626871745
1.6667017937,-0.0613780924,0.0182247721,0.0103204753,-1.9549458822,0.9052124023,-1.5084635417
1.6694109440,-0.0613780924,0.0182247721,0.0103204753,-2.1227925619,1.0730590820,-1.5084635417
1.6721148491,-0.0613780924,0.0182247721,0.0103204753,-2.1227925619,1.0730590820,-1.4932047526
1.6748118401,-0.0662609049,0.0172482097,0.0117853190,-2.2143452963,1.2256469726,-1.4932047526
1.6775078773,-0.0662609049,0.0172482097,0.0117853190,-2.2143452963,1.2256469726,-1.4932047526
1.6802239418,-0.0662609049,0.0172482097,0.0117853190,-1.5429585775,1.0730590820,-1.3558756510
1.6829178333,-0.0662609049,0.0172482097,0.0015314127,-1.5429585775,1.0730590820,-1.3558756510
1.6856138706,-0.0613780924,0.0240841471,0.0015314127,-1.4056294759,0.5695190429,-1.7526041667
1.6883158684,-0.0613780924,0.0240841471,0.0015314127,-1.4056294759,0.5695190429,-1.7526041667
1.6908819675,-0.0613780924,0.0240841471,0.0015314127,-1.3903706869,0.3558959961,-2.3171793620
1.6934537888,-0.0613780924,0.0196896159,0.0132501627,-1.3903706869,0.3558959961,-2.3171793620
1.6960189342,-0.0594249674,0.0196896159,0.0132501627,-1.2988179525,0.9815063476,-2.4392496745
1.6986799240,-0.0594249674,0.0196896159,0.0132501627,-1.2988179525,0.9815063476,-2.4392496745
1.7013838291,-0.0594249674,0.0196896159,0.0132501627,-1.4056294759,0.9204711914,-2.3019205729
1.7040808201,-0.0584484049,0.0177364909,0.0049493815,-1.4056294759,0.9204711914,-2.3019205729
1.7067778111,-0.0584484049,0.0177364909,0.0049493815,-1.6955464681,0.7373657226,-2.1493326823
1.7094860077,-0.0584484049,0.0177364909,0.0049493815,-1.6955464681,0.7373657226,-2.1493326823
1.7121798992,-0.0584484049,0.0177364909,0.0049493815,-2.2296040853,0.9204711914,-2.3171793620
1.7148878574,-0.0662609049,0.0206661784,0.0108087565,-2.2296040853,0.9204711914,-2.3171793620
1.7176859379,-0.0662609049,0.0206661784,0.0108087565,-2.5805562337,0.7984008789,-2.5002848307
1.7203979492,-0.0662609049,0.0206661784,0.0108087565,-2.5805562337,0.7984008789,-2.5002848307
1.7231018543,-0.0662609049,0.0206661784,0.0108087565,-2.6263326009,0.9052124023,-2.8207194010
1.7257959843,-0.0584484049,0.0167599284,0.0049493815,-2.6263326009,0.9052124023,-2.8207194010
1.7287559509,-0.0584484049,0.0167599284,0.0049493815,-2.4737447103,0.4474487304,-2.9885660807
1.7314188480,-0.0584484049,0.0167599284,0.0049493815,-2.4737447103,0.4474487304,-2.9885660807
1.7341628075,-0.0682140299,0.0162716471,0.0161798503,-2.2448628744,0.7831420898,-3.0801188151
1.7371997833,-0.0682140299,0.0162716471,0.0161798503,-2.2448628744,0.7831420898,-3.0801188151
1.7398488522,-0.0682140299,0.0162716471,0.0161798503,-2.3669331869,0.8136596679,-3.5531412760
1.7424190044,-0.0682140299,0.0162716471,0.0161798503,-2.3669331869,0.8136596679,-3.5531412760
1.7449839115,-0.0540538736,0.0260372721,0.0069025065,-2.4127095541,1.0120239258,-3.5531412760
1.7475478649,-0.0540538736,0.0260372721,0.0069025065,-2.4127095541,1.0120239258,-3.5531412760
1.7502398491,-0.0540538736,0.0260372721,0.0069025065,-2.6415913900,1.0578002929,-3.8277994792
1.7529389858,-0.0540538736,0.0260372721,0.0069025065,-2.6415913900,1.0578002929,-3.8277994792
1.7556409836,-0.0628429362,0.0148068034,-0.0004217123,-2.5195210775,0.7984008789,-4.3008219401
1.7583529949,-0.0628429362,0.0148068034,-0.0004217123,-2.5195210775,0.7984008789,-4.3008219401
1.7610518932,-0.0628429362,0.0148068034,-0.0004217123,-2.1380513509,0.7526245117,-4.3923746745
1.7637538910,-0.0628429362,0.0148068034,0.0112970377,-2.1380513509,0.7526245117,-4.3923746745
1.7664577961,-0.0647960612,0.0187130534,0.0112970377,-2.0922749837,0.8594360351,-4.4991861979
1.7691099644,-0.0647960612,0.0187130534,0.0112970377,-2.0922749837,0.8594360351,-4.4991861979
1.7716758251,-0.0647960612,0.0187130534,0.0112970377,-2.3211568197,0.5390014648,-4.4228922526
1.7742447853,-0.0647960612,0.0089474284,0.0039728190,-2.3211568197,0.5390014648,-4.4228922526
1.7768108845,-0.0691905924,0.0089474284,0.0039728190,-2.6568501791,0.2948608398,-4.8348795573
1.7794368267,-0.0691905924,0.0089474284,0.0039728190,-2.6568501791,0.2948608398,-4.8348795573
1.7819998264,-0.0691905924,0.0089474284,0.0039728190,-2.4584859213,0.6915893554,-4.8196207682
1.7846679688,-0.0696788736,0.0060177409,0.0073907877,-2.4584859213,0.6915893554,-4.8196207682
1.7872419357,-0.0696788736,0.0060177409,0.0073907877,-1.9396870931,0.6763305664,-4.0871988932
1.7899699211,-0.0696788736,0.0060177409,0.0073907877,-1.9396870931,0.6763305664,-4.0871988932
1.7925407887,-0.0696788736,0.0060177409,0.0073907877,-1.9396870931,0.7526245117,-4.5297037760
1.7951018810,-0.0696788736,0.0084591471,0.0191095377,-2.1685689291,0.7526245117,-4.5297037760
1.7976667881,-0.0696788736,0.0084591471,0.0191095377,-2.1685689291,0.7526245117,-4.4686686198
1.8003909588,-0.0696788736,0.0084591471,0.0191095377,-2.1990865072,0.6610717773,-4.4686686198
1.8030908108,-0.0696788736,0.0084591471,0.0191095377,-2.1990865072,0.6610717773,-4.3923746745
1.8057839870,-0.0667491862,0.0065060221,0.0117853190,-1.9244283041,0.3406372070,-4.3923746745
1.8085339069,-0.0667491862,0.0065060221,0.0117853190,-1.9244283041,0.3406372070,-4.3313395182
1.8112349510,-0.0667491862,0.0065060221,0.0117853190,-1.8481343587,0.2338256836,-4.3313395182
1.8139319420,-0.0667491862,0.0065060221,0.0117853190,-1.8481343587,0.2338256836,-4.6822916667
1.8166298866,-0.0726085612,-0.0008181966,0.0161798503,-2.0617574056,0.2185668945,-4.6822916667
1.8193459511,-0.0726085612,-0.0008181966,0.0161798503,-2.0617574056,0.2185668945,-4.6822916667
1.8220458031,-0.0726085612,-0.0008181966,0.0161798503,-2.1533101400,0.5847778320,-4.6822916667
1.8247449398,-0.0726085612,0.0069943034,0.0132501627,-2.1533101400,0.5847778320,-3.8888346354
1.8274397850,-0.0701671549,0.0069943034,0.0132501627,-1.7260640463,0.9509887695,-3.8888346354
1.8302829266,-0.0701671549,0.0069943034,0.0132501627,-1.7260640463,0.9509887695,-3.2479654948
1.8329789639,-0.0701671549,0.0069943034,0.0132501627,-1.6345113119,0.6610717773,-3.2479654948
1.8356859684,-0.0633312174,0.0060177409,0.0064142253,-1.6345113119,0.6610717773,-3.0953776042
1.8383829594,-0.0633312174,0.0060177409,0.0064142253,-1.4666646322,0.2643432617,-3.0953776042
1.8409509659,-0.0633312174,0.0060177409,0.0064142253,-1.4666646322,0.2643432617,-3.2937418620
1.8435199261,-0.0633312174,0.0060177409,0.0064142253,-1.5276997884,0.4474487304,-3.2937418620
1.8462150097,-0.0623546549,0.0109005534,0.0039728190,-1.5276997884,0.4474487304,-3.2174479167
1.8496170044,-0.0623546549,0.0109005534,0.0039728190,-1.8176167806,0.9357299804,-3.2174479167
1.8521828651,-0.0623546549,0.0109005534,0.0039728190,-1.8176167806,0.9357299804,-3.1869303385
1.8547468185,-0.0623546549,0.0109005534,0.0142267253,-1.5429585775,1.3019409179,-3.1869303385
1.8573060036,-0.0657726236,0.0065060221,0.0142267253,-1.5429585775,1.3019409179,-3.0648600260
1.8599069118,-0.0657726236,0.0065060221,0.0142267253,-1.3598531087,0.9815063476,-3.0648600260
1.8624689579,-0.0657726236,0.0065060221,0.0142267253,-1.3598531087,0.9815063476,-3.0648600260
1.8650310040,-0.0657726236,0.0011349284,0.0069025065,-1.2530415853,0.4627075195,-3.2632242838
1.8675918579,-0.0691905924,0.0011349284,0.0069025065,-1.2530415853,0.4627075195,-3.2632242838
1.8701589108,-0.0691905924,0.0011349284,0.0069025065,-1.4819234213,0.7526245117,-3.0496012370
1.8727219105,-0.0691905924,0.0011349284,0.0069025065,-1.4819234213,0.7526245117,-3.0496012370
1.8752839565,-0.0691905924,0.0055294597,0.0103204753,-1.6955464681,0.7984008789,-2.8207194010
1.8778789043,-0.0657726236,0.0055294597,0.0103204753,-1.6955464681,0.7984008789,-2.8207194010
1.8804500103,-0.0657726236,0.0055294597,0.0103204753,-1.6192525228,0.8289184570,-2.7749430338
1.8830108643,-0.0657726236,0.0055294597,0.0103204753,-1.6192525228,0.8289184570,-2.7749430338
1.8855698109,-0.0657726236,0.0074825847,0.0127618815,-1.5734761556,0.8441772461,-2.4239908854
1.8881759644,-0.0662609049,0.0074825847,0.0127618815,-1.5734761556,0.8441772461,-2.4239908854
1.8907399178,-0.0662609049,0.0074825847,0.0127618815,-1.1309712728,0.2643432617,-2.5918375651
1.8932979107,-0.0662609049,0.0074825847,0.0127618815,-1.1309712728,0.2643432617,-2.5918375651
1.8958590031,-0.0716319986,0.0025997721,0.0137384440,-1.1309712728,0.4016723632,-2.5460611979
1.8985388279,-0.0716319986,0.0025997721,0.0137384440,-1.4971822103,0.4016723632,-2.5460611979
1.9011089802,-0.0716319986,0.0025997721,0.0137384440,-1.4971822103,0.4016723632,-2.4545084635
1.9036729336,-0.0716319986,0.0025997721,0.0137384440,-1.2072652181,0.5237426758,-2.4545084635
1.9062438011,-0.0613780924,-0.0008181966,0.0171564127,-1.2072652181,0.5237426758,-2.3171793620
1.9089357853,-0.0613780924,-0.0008181966,0.0171564127,-0.7037251791,0.7373657226,-2.3171793620
1.9117429256,-0.0613780924,-0.0008181966,0.0171564127,-0.7037251791,0.7373657226,-1.9357096354
1.9144368172,-0.0613780924,-0.0008181966,0.0171564127,-0.9936421713,0.6305541992,-1.9357096354
1.9171338081,-0.0604015299,0.0133419597,0.0059259440,-0.9936421713,0.6305541992,-1.6305338542
1.9198458195,-0.0604015299,0.0133419597,0.0059259440,-0.7342427572,0.3711547851,-1.6305338542
1.9225409031,-0.0604015299,0.0133419597,0.0059259440,-0.7342427572,0.3711547851,-1.9509684245
1.9252378941,-0.0604015299,0.0133419597,0.0020196940,-1.0699361166,0.5084838867,-1.9509684245
1.9279458523,-0.0667491862,0.0079708659,0.0020196940,-1.0699361166,0.5084838867,-1.7526041667
1.9306418896,-0.0667491862,0.0079708659,0.0020196940,-0.8105367025,0.6305541992,-1.7526041667
1.9334318638,-0.0667491862,0.0079708659,0.0020196940,-0.8105367025,0.6305541992,-1.7526041667
1.9360179901,-0.0667491862,0.0065060221,0.0073907877,-0.8410542806,0.3711547851,-1.8746744792
1.9386858940,-0.0696788736,0.0065060221,0.0073907877,-0.8410542806,0.3711547851,-1.8746744792
1.9413509369,-0.0696788736,0.0065060221,0.0073907877,-0.7647603353,0.0812377929,-1.8899332682
1.9447999001,-0.0696788736,0.0065060221,0.0073907877,-0.7647603353,0.0812377929,-1.5694986979
1.9473729134,-0.0682140299,0.0094357097,0.0093439127,-0.9936421713,0.6305541992,-1.5694986979
1.9500348568,-0.0682140299,0.0094357097,0.0093439127,-0.9936421713,0.6305541992,-1.5847574870
1.9526000023,-0.0682140299,0.0094357097,0.0093439127,-1.1614888509,0.8594360351,-1.5847574870
1.9551639557,-0.0682140299,0.0094357097,0.0093439127,-1.1614888509,0.8594360351,-1.5847574870
1.9577269554,-0.0682140299,0.0011349284,0.0127618815,-1.1920064291,0.6305541992,-1.4169108073
1.9603009224,-0.0682140299,0.0011349284,0.0127618815,-1.1920064291,0.6305541992,-1.4169108073
1.9628667831,-0.0682140299,0.0011349284,0.0127618815,-1.3903706869,0.9509887695,-1.2032877604
1.9654288292,-0.0682140299,0.0011349284,0.0127618815,-1.3903706869,0.9509887695,-1.2032877604
1.9679989815,-0.0711437174,0.0055294597,0.0186212565,-1.5582173666,0.9967651367,-1.1880289714
1.9705638885,-0.0711437174,0.0055294597,0.0186212565,-1.5582173666,0.9967651367,-1.1880289714
1.9731237888,-0.0711437174,0.0055294597,0.0186212565,-1.3293355306,1.1798706054,-0.8981119792
1.9757997990,-0.0711437174,0.0055294597,0.0108087565,-1.3293355306,1.1798706054,-0.8981119792
1.9784789085,-0.0647960612,0.0055294597,0.0108087565,-1.1614888509,1.1340942382,-0.8065592448
1.9810438156,-0.0647960612,0.0055294597,0.0108087565,-1.1614888509,1.1340942382,-0.8065592448
1.9836049080,-0.0647960612,0.0055294597,0.0108087565,-1.5276997884,1.0425415039,-0.8981119792
1.9861638546,-0.0647960612,0.0055294597,0.0171564127,-1.5276997884,1.0425415039,-0.8981119792
1.9888780117,-0.0677257486,0.0021114909,0.0171564127,-1.4666646322,0.9815063476,-0.6081949870
1.9914460182,-0.0677257486,0.0021114909,0.0171564127,-1.4666646322,0.9815063476,-0.6081949870
1.9940118790,-0.0677257486,0.0021114909,0.0171564127,-1.4666646322,1.0120239258,-0.4708658854
1.9965858459,-0.0677257486,0.0035763347,0.0103204753,-1.4514058431,1.0120239258,-0.4708658854
1.9993770123,-0.0682140299,0.0035763347,0.0103204753,-1.4514058431,0.9967651367,-0.7913004557
2.0020689964,-0.0682140299,0.0035763347,0.0103204753,-1.1767476400,0.9967651367,-0.7913004557
2.0047528744,-0.0682140299,0.0035763347,0.0103204753,-1.1767476400,1.0120239258,-0.6844889323
2.0074319839,-0.0667491862,0.0089474284,0.0078790690,-1.1309712728,1.0120239258,-0.6844889323
2.0101249218,-0.0667491862,0.0089474284,0.0078790690,-1.1309712728,0.9662475586,-0.6692301432
2.0128059387,-0.0667491862,0.0089474284,0.0078790690,-1.0699361166,0.9662475586,-0.6692301432
2.0154848099,-0.0667491862,0.0089474284,0.0078790690,-1.0699361166,0.9662475586,-0.8828531901
2.0181858540,-0.0638194986,0.0089474284,0.0137384440,-1.1614888509,1.0578002929,-0.8828531901
2.0208649635,-0.0638194986,0.0089474284,0.0137384440,-1.1614888509,1.0578002929,-0.7302652995
2.0235478878,-0.0638194986,0.0089474284,0.0137384440,-1.3293355306,0.9815063476,-0.7302652995
2.0262269974,-0.0638194986,0.0089474284,0.0020196940,-1.3293355306,4.8877563476,-0.6844889323
2.0289528370,-0.0564952799,0.0094357097,0.0020196940,-1.2377827963,1.3171997070,-0.6844889323
2.0316329002,-0.0564952799,0.0094357097,0.0020196940,-1.2377827963,1.3171997070,-0.9133707682
2.0343158245,-0.0564952799,0.0094357097,0.0020196940,-1.1767476400,1.6834106445,-0.9133707682
2.0369977951,-0.0564952799,0.0094357097,0.0093439127,-1.1767476400,-2.2228393555,-0.9591471354
2.0399129391,-0.0604015299,0.0094357097,0.0093439127,-1.2530415853,0.8289184570,-0.9591471354
2.0425729752,-0.0604015299,0.0094357097,0.0093439127,-1.2530415853,0.8289184570,-0.8981119792
2.0452330112,-0.0604015299,0.0094357097,0.0093439127,-1.5582173666,0.6915893554,-0.8981119792
2.0478768349,-0.0667491862,0.0118771159,0.0132501627,-1.5582173666,0.6915893554,-0.5776774088
2.0504498482,-0.0667491862,0.0118771159,0.0132501627,-1.4208882650,0.9662475586,-0.5776774088
2.0530209541,-0.0667491862,0.0118771159,0.0132501627,-1.4208882650,0.9662475586,-0.7607828776
2.0558028221,-0.0667491862,0.0118771159,0.0132501627,-1.1157124837,1.2866821289,-0.7607828776
2.0586040020,-0.0647960612,0.0035763347,0.0127618815,-1.1157124837,1.2866821289,-4.6670328776
2.0611720085,-0.0647960612,0.0035763347,0.0127618815,-1.5124409994,0.8746948242,-1.0354410807
2.0637359619,-0.0647960612,0.0035763347,0.0127618815,-1.5124409994,0.8746948242,-1.0354410807
2.0662980080,-0.0647960612,0.0035763347,0.0127618815,-1.6497701009,1.0883178711,-1.0354410807
2.0689330101,-0.0638194986,0.0030880534,0.0161798503,-1.6497701009,1.0883178711,-1.0354410807
2.0714960098,-0.0638194986,0.0030880534,0.0161798503,-1.9244283041,1.1188354492,-1.1727701823
2.0740668774,-0.0638194986,0.0030880534,0.0161798503,-1.9244283041,1.1188354492,-1.1727701823
2.0766317844,-0.0638194986,0.0030880534,0.0049493815,-1.6497701009,1.1340942382,-1.1269938151
2.0792098045,-0.0633312174,0.0084591471,0.0049493815,-1.6497701009,1.1340942382,-1.1269938151
2.0817728043,-0.0633312174,0.0084591471,0.0049493815,-1.6497701009,1.4392700195,-1.1117350260
2.0843348503,-0.0633312174,0.0084591471,0.0049493815,-1.6497701009,1.4392700195,-1.1117350260
2.0869038105,-0.0633312174,0.0084591471,0.0064142253,-1.7870992025,1.0883178711,-1.0812174479
2.0895078182,-0.0633312174,0.0133419597,0.0064142253,-1.7870992025,1.0883178711,-1.0812174479
2.0920698643,-0.0633312174,0.0133419597,0.0064142253,-1.7870992025,1.0120239258,-1.3253580729
2.0946369171,-0.0633312174,0.0133419597,0.0064142253,-1.3293355306,1.0120239258,-1.3253580729
2.0971989632,-0.0633312174,-0.1116580403,0.0176446940,-1.3293355306,1.0120239258,-1.2643229167
2.0997757912,-0.0662609049,0.0040646159,0.0176446940,-1.8481343587,1.0425415039,-1.2643229167
2.1024618149,-0.0662609049,0.0040646159,0.0176446940,-1.8481343587,1.0425415039,-1.3406168620
2.1050298214,-0.0662609049,0.0040646159,0.0176446940,-1.6650288900,1.0425415039,-1.3406168620
2.1075959206,-0.0662609049,0.0060177409,0.0142267253,-1.6650288900,1.0425415039,-1.4169108073
2.1103489399,-0.0687023112,0.0060177409,0.0142267253,-1.4056294759,1.2256469726,-1.4169108073
2.1129188538,-0.0687023112,0.0060177409,0.0142267253,-1.4056294759,1.2256469726,-1.4169108073
2.1154899597,-0.0687023112,0.0060177409,0.0142267253,-1.7718404134,0.9815063476,-1.4932047526
2.1182298660,-0.0599132486,0.0099239909,0.0195978190,-1.7718404134,0.9815063476,-1.4932047526
2.1209349632,-0.0599132486,0.0099239909,0.0195978190,-2.4584859213,1.1646118164,-1.4169108073
2.1236329079,-0.0599132486,0.0099239909,0.0195978190,-2.4584859213,1.1646118164,-1.4169108073
2.1263298988,-0.0599132486,0.0099239909,0.0195978190,-1.9091695150,1.1951293945,-1.4016520182
2.1290469170,-0.0682140299,0.0089474284,0.0073907877,-1.9091695150,1.1951293945,-1.4016520182
2.1317498684,-0.0682140299,0.0089474284,0.0073907877,-1.4819234213,0.8441772461,-1.2643229167
2.1344468594,-0.0682140299,0.0089474284,0.0073907877,-1.4819234213,0.8441772461,-1.2643229167
2.1371519566,-0.0682140299,0.0089474284,0.0073907877,-1.4361470541,1.3782348632,-1.6457926432
2.1397678852,-0.0638194986,0.0138302409,0.0132501627,-1.4361470541,1.3782348632,-1.6457926432
2.1423368454,-0.0638194986,0.0138302409,0.0132501627,-1.5276997884,1.7139282226,-1.5237223307
2.1448979378,-0.0638194986,0.0138302409,0.0132501627,-1.5276997884,1.7139282226,-1.5237223307
2.1474688053,-0.0638194986,0.0138302409,0.0064142253,-1.6192525228,1.4850463867,-1.3863932292
2.1501908302,-0.0579601236,0.0099239909,0.0064142253,-1.6192525228,1.4850463867,-1.3863932292
2.1528849602,-0.0579601236,0.0099239909,0.0064142253,-1.6039937337,1.1188354492,-1.5847574870
2.1555848122,-0.0579601236,0.0099239909,0.0064142253,-1.6039937337,1.1188354492,-1.5847574870
2.1583487988,-0.0667491862,0.0104122721,0.0156915690,-1.3140767416,0.8746948242,-2.1340738932
2.1609158516,-0.0667491862,0.0104122721,0.0156915690,-1.3140767416,0.8746948242,-2.1340738932
2.1634919643,-0.0667491862,0.0104122721,0.0156915690,-1.2225240072,0.9052124023,-2.3324381510
2.1661689281,-0.0667491862,0.0104122721,0.0156915690,-1.2225240072,0.9052124023,-2.3324381510
2.1687979698,-0.0638194986,0.0123653971,0.0083673503,-1.2835591634,0.6458129882,-2.3782145182
2.1714990139,-0.0638194986,0.0123653971,0.0083673503,-1.2835591634,0.6458129882,-2.3782145182
2.1743018627,-0.0638194986,0.0123653971,0.0083673503,-1.4666646322,1.0883178711,-2.5613199870
2.1770069599,-0.0638194986,0.0123653971,0.0083673503,-1.4666646322,1.0883178711,-2.5613199870
2.1801319122,-0.0574718424,0.0138302409,0.0132501627,-1.5429585775,0.8594360351,-3.0038248698
2.1828358173,-0.0574718424,0.0138302409,0.0132501627,-1.5429585775,0.8594360351,-3.0038248698
2.1855418682,-0.0574718424,0.0138302409,0.0132501627,-1.5887349447,0.8441772461,-3.0190836588
2.1882448196,-0.0574718424,0.0162716471,0.0156915690,-1.5887349447,0.8441772461,-3.0190836588
2.1908109188,-0.0657726236,0.0162716471,0.0156915690,-1.5734761556,0.8136596679,-3.2021891276
2.1933808327,-0.0657726236,0.0162716471,0.0156915690,-1.5734761556,0.8136596679,-3.2021891276
2.1959400177,-0.0657726236,0.0162716471,0.0156915690,-1.6497701009,1.0272827148,-3.7515055338
2.1985979080,-0.0657726236,0.0094357097,0.0073907877,-1.6497701009,1.0272827148,-3.7515055338
2.2012968063,-0.0623546549,0.0094357097,0.0073907877,-1.8786519369,1.0425415039,-3.2784830729
2.2039928436,-0.0623546549,0.0094357097,0.0073907877,-1.8786519369,1.0425415039,-3.2784830729
2.2066969872,-0.0623546549,0.0094357097,0.0073907877,-1.9396870931,0.7831420898,-3.4463297526
2.2093358040,-0.0711437174,0.0074825847,0.0103204753,-1.9396870931,0.7831420898,-3.4463297526
2.2119019032,-0.0711437174,0.0074825847,0.0103204753,-1.6345113119,1.0578002929,-3.5226236979
2.2144789696,-0.0711437174,0.0074825847,0.0103204753,-1.6345113119,1.0578002929,-3.5226236979
2.2170457840,-0.0711437174,0.0074825847,0.0103204753,-1.6345113119,0.9052124023,-3.6446940104
2.2196679115,-0.0672374674,0.0035763347,0.0137384440,-1.7413228353,0.9052124023,-3.6446940104
2.2222340107,-0.0672374674,0.0035763347,0.0137384440,-1.7413228353,0.9052124023,-3.7667643229
2.2248039246,-0.0672374674,0.0035763347,0.0137384440,-2.2143452963,0.9509887695,-3.7667643229
2.2273778915,-0.0672374674,0.0035763347,0.0137384440,-2.2143452963,0.9509887695,-3.5836588542
2.2301449776,-0.0643077799,0.0055294597,0.0161798503,-2.1227925619,0.8136596679,-3.5836588542
2.2327158451,-0.0643077799,0.0055294597,0.0161798503,-2.1227925619,0.8136596679,-3.5836588542
2.2352859974,-0.0643077799,0.0055294597,0.0161798503,-1.8786519369,0.9204711914,-3.4768473307
2.2379717827,-0.0643077799,0.0055294597,0.0161798503,-1.8786519369,0.9204711914,-3.4768473307
2.2405428886,-0.0745616862,0.0011349284,0.0156915690,-1.8176167806,0.7526245117,-4.0719401042
2.2431077957,-0.0745616862,0.0011349284,0.0156915690,-1.8176167806,0.7526245117,-4.0719401042
2.2456748486,-0.0745616862,0.0011349284,0.0156915690,-2.1227925619,0.7831420898,-4.0414225260
2.2482709885,-0.0745616862,0.0011349284,0.0078790690,-2.1227925619,0.7831420898,-4.0414225260
2.2509739399,-0.0633312174,0.0030880534,0.0078790690,-2.3364156087,1.0425415039,-3.5989176432
2.2536709309,-0.0633312174,0.0030880534,0.0078790690,-2.3364156087,1.0425415039,-3.5989176432
2.2563748360,-0.0633312174,0.0030880534,0.0078790690,-2.5958150228,0.8136596679,-3.9956461588
2.2590768337,-0.0633312174,0.0011349284,0.0215509440,-2.5958150228,0.8136596679,-3.9956461588
2.2617828846,-0.0701671549,0.0011349284,0.0215509440,-2.3364156087,0.8594360351,-4.3160807292
2.2644770145,-0.0701671549,0.0011349284,0.0215509440,-2.3364156087,0.8594360351,-4.3160807292
2.2671749592,-0.0701671549,0.0011349284,0.0215509440,-2.1227925619,0.9052124023,-3.7209879557
2.2697789669,-0.0677257486,0.0030880534,0.0147150065,-2.1227925619,0.9052124023,-3.7209879557
2.2723410130,-0.0677257486,0.0030880534,0.0147150065,-1.9702046713,0.8289184570,-3.7362467448
2.2749099731,-0.0677257486,0.0030880534,0.0147150065,-1.9702046713,0.8289184570,-3.7362467448
2.2774808407,-0.0677257486,0.0030880534,0.0147150065,-1.9091695150,0.7221069336,-4.0871988932
2.2802019119,-0.0633312174,0.0055294597,0.0122736003,-1.9091695150,0.7221069336,-4.0871988932
2.2829079628,-0.0633312174,0.0055294597,0.0122736003,-1.4514058431,0.3711547851,-4.3465983073
2.2856009007,-0.0633312174,0.0055294597,0.0122736003,-1.4514058431,0.3711547851,-4.3465983073
2.2883288860,-0.0633312174,0.0055294597,0.0122736003,-0.7647603353,0.4169311523,-4.6822916667
2.2909018993,-0.0677257486,0.0025997721,0.0274103190,-0.7647603353,0.4169311523,-4.6822916667
2.2935738564,-0.0677257486,0.0025997721,0.0274103190,-0.7189839681,0.1422729492,-4.8043619792
2.2963519096,-0.0677257486,0.0025997721,0.0274103190,-0.7189839681,0.1422729492,-4.8043619792
2.2991869450,-0.0677257486,0.0025997721,0.0166681315,-0.7800191244,0.4016723632,-4.6822916667
2.3018980026,-0.0613780924,-0.0008181966,0.0166681315,-0.7800191244,0.4016723632,-4.6822916667
2.3046069145,-0.0613780924,-0.0008181966,0.0166681315,-0.8563130697,0.2033081054,-4.0719401042
2.3073029518,-0.0613780924,-0.0008181966,0.0166681315,-0.8563130697,0.2033081054,-4.0719401042
2.3100068569,-0.0584484049,-0.0027713216,0.0088556315,-1.2072652181,0.5542602539,-3.5073649088
2.3127088547,-0.0584484049,-0.0027713216,0.0088556315,-1.2072652181,0.5542602539,-3.5073649088
2.3154098988,-0.0584484049,-0.0027713216,0.0088556315,-0.9783833822,0.7678833008,-3.0496012370
2.3181548119,-0.0584484049,-0.0027713216,0.0088556315,-0.9783833822,0.7678833008,-3.0496012370
2.3208489418,-0.0628429362,-0.0086306966,0.0083673503,-0.9783833822,0.6610717773,-3.2174479167
2.3235487938,-0.0628429362,-0.0086306966,0.0083673503,-0.9783833822,0.6610717773,-3.2174479167
2.3262529373,-0.0628429362,-0.0086306966,0.0083673503,-1.0699361166,0.6305541992,-3.1411539714
2.3289148808,-0.0628429362,-0.0086306966,0.0083673503,-1.0699361166,0.6305541992,-3.1411539714
2.3314859867,-0.0672374674,-0.0037478841,0.0210626627,2.8363138834,1.0425415039,-2.6528727214
2.3340559006,-0.0672374674,-0.0037478841,0.0210626627,-0.7800191244,1.0425415039,-2.6528727214
2.3366208076,-0.0672374674,-0.0037478841,0.0210626627,-0.7800191244,1.0425415039,-2.1340738932
2.3391988277,-0.0672374674,-0.0037478841,0.0152032877,-0.6884663900,0.9357299804,-2.1340738932
2.3423810005,-0.0677257486,-0.0081424153,0.0152032877,-0.6884663900,0.6000366211,-2.4850260417
2.3449440002,-0.0677257486,-0.0081424153,0.0152032877,-0.6274312337,0.6000366211,-2.4850260417
2.3475129604,-0.0677257486,-0.0081424153,0.0152032877,-0.6274312337,0.7221069336,-2.4087320964
2.3502509594,-0.0643077799,-0.0037478841,0.0181329753,-0.7647603353,0.7221069336,-2.4087320964
2.3528218269,-0.0643077799,-0.0037478841,0.0181329753,-0.7647603353,0.7221069336,-2.3934733073
2.3553829193,-0.0643077799,-0.0037478841,0.0181329753,-0.6426900228,0.7526245117,-2.3934733073
2.3581018448,-0.0643077799,-0.0037478841,0.0181329753,-0.6426900228,0.7526245117,-2.2561442057
2.3606719971,-0.0652843424,0.0045528971,0.0137384440,-0.0475972494,0.6610717773,-2.2561442057
2.3632338047,-0.0652843424,0.0045528971,0.0137384440,-0.0475972494,0.6610717773,-2.2561442057
2.3657948971,-0.0652843424,0.0045528971,0.0137384440,0.0744730631,0.4932250976,-1.9204508464
2.3683669567,-0.0652843424,0.0045528971,0.0137384440,0.0744730631,0.4932250976,-1.9204508464
2.3709309101,-0.0696788736,0.0021114909,0.0195978190,0.3186136881,0.5390014648,-2.0120035807
2.3735008240,-0.0696788736,0.0021114909,0.0195978190,0.3186136881,0.5390014648,-2.0120035807
2.3760638237,-0.0696788736,0.0021114909,0.0195978190,0.3186136881,0.7221069336,-2.0120035807
2.3786268234,-0.0696788736,0.0021114909,0.0195978190,0.3186136881,0.7221069336,-2.0120035807
2.3811988831,-0.0672374674,-0.0013064779,0.0137384440,0.3338724772,0.7068481445,-2.0425211588
2.3837628365,-0.0672374674,-0.0013064779,0.0137384440,0.3338724772,0.7068481445,-2.0425211588
2.3863208294,-0.0672374674,-0.0013064779,0.0137384440,0.1202494303,0.7373657226,-2.0425211588
2.3890450001,-0.0672374674,-0.0013064779,0.0137384440,0.1202494303,0.7373657226,-2.0425211588
2.3916079998,-0.0618663736,-0.0047244466,0.0078790690,0.1812845866,0.9662475586,-1.8441569010
2.3941779137,-0.0618663736,-0.0047244466,0.0078790690,0.1812845866,0.9662475586,-1.8441569010
2.3967390060,-0.0618663736,-0.0047244466,0.0078790690,0.1812845866,0.8594360351,-1.7373453776
2.3994278908,-0.0618663736,-0.0047244466,0.0078790690,0.3338724772,0.8594360351,-1.7373453776
2.4019978046,-0.0682140299,-0.0022830403,0.0156915690,0.3338724772,0.8594360351,-1.1575113932
2.4045588970,-0.0682140299,-0.0022830403,0.0156915690,-0.0323384603,0.7373657226,-1.1575113932
2.4071187973,-0.0682140299,-0.0022830403,0.0156915690,-0.0323384603,0.7373657226,-1.0506998698
2.4098088741,-0.0682140299,-0.0022830403,0.0156915690,-0.3832906087,1.0120239258,-1.0506998698
2.4125080109,-0.0618663736,-0.0027713216,0.0142267253,-0.3832906087,1.0120239258,-1.2032877604
2.4152138233,-0.0618663736,-0.0027713216,0.0142267253,0.1965433756,0.7984008789,-1.2032877604
2.4179198742,-0.0618663736,-0.0027713216,0.0142267253,0.1965433756,0.7984008789,-1.0659586588
2.4207270145,-0.0618663736,0.0006466471,0.0073907877,-0.0781148275,0.7526245117,-1.0659586588
2.4234399796,-0.0647960612,0.0006466471,0.0073907877,-0.0781148275,0.7526245117,-0.9133707682
2.4261348248,-0.0647960612,0.0006466471,0.0073907877,-0.5206197103,0.7984008789,-0.9133707682
2.4288439751,-0.0647960612,0.0006466471,0.0073907877,-0.5206197103,0.7984008789,-0.9286295573
2.4315469265,-0.0687023112,0.0016232097,0.0078790690,-0.2612202963,0.8899536132,-0.9286295573
2.4342479706,-0.0687023112,0.0016232097,0.0078790690,-0.2612202963,0.8899536132,-1.2490641276
2.4369559288,-0.0687023112,0.0016232097,0.0078790690,-0.0475972494,0.8899536132,-1.2490641276
2.4396638870,-0.0687023112,0.0016232097,0.0078790690,-0.0475972494,0.8899536132,-0.8828531901
2.4423558712,-0.0638194986,0.0055294597,0.0117853190,-0.1238911947,1.1340942382,-0.8828531901
2.4451248646,-0.0638194986,0.0055294597,0.0117853190,-0.1238911947,1.1340942382,-0.7760416667
2.4478600025,-0.0638194986,0.0055294597,0.0117853190,-0.0933736166,0.9052124023,-0.7760416667
2.4505670071,-0.0638194986,0.0055294597,0.0161798503,-0.0933736166,0.9052124023,-0.2572428385
2.4532678127,-0.0652843424,-0.0008181966,0.0161798503,0.1049906413,0.8136596679,-0.2572428385
2.4560828209,-0.0652843424,-0.0008181966,0.0161798503,0.1049906413,0.8136596679,-0.3487955729
2.4594359398,-0.0652843424,-0.0008181966,0.0161798503,-0.3069966634,1.0883178711,-0.3487955729
2.4620068073,-0.0623546549,-0.0032596029,0.0093439127,-0.3069966634,1.3324584961,-0.5776774088
2.4645760059,-0.0623546549,-0.0032596029,0.0093439127,-0.5358784994,1.3324584961,-0.5776774088
2.4671409130,-0.0623546549,-0.0032596029,0.0093439127,-0.5358784994,1.3324584961,-0.0588785807
2.4697339535,-0.0623546549,-0.0032596029,0.0093439127,-0.8563130697,1.5613403320,-0.0588785807
2.4722969532,-0.0716319986,-0.0032596029,0.0210626627,-0.8563130697,1.5613403320,-0.0588785807
2.4748578072,-0.0716319986,-0.0032596029,0.0210626627,-0.4138081869,1.0883178711,0.0021565755
2.4774239063,-0.0716319986,-0.0032596029,0.0210626627,-0.4138081869,1.0883178711,0.0021565755
2.4800479412,-0.0716319986,-0.0032596029,0.0210626627,-0.1544087728,0.9815063476,-0.0283610026
2.4826118946,-0.0667491862,-0.0022830403,0.0195978190,-0.1544087728,0.9815063476,-0.0283610026
2.4851789474,-0.0667491862,-0.0022830403,0.0195978190,0.2270609537,1.0883178711,0.0326741536
2.4878787994,-0.0667491862,-0.0022830403,0.0195978190,0.2270609537,1.0883178711,0.0326741536
2.4904429913,-0.0667491862,-0.0022830403,0.0195978190,0.8984476725,0.7831420898,0.1700032552
2.4930129051,-0.0623546549,0.0050411784,0.0181329753,0.8984476725,0.7831420898,0.1700032552
2.4955718517,-0.0623546549,0.0050411784,0.0181329753,0.7153422037,0.8441772461,0.0937093099
2.4981808662,-0.0623546549,0.0050411784,0.0181329753,0.7153422037,0.8441772461,0.0937093099
2.5007460117,-0.0623546549,0.0050411784,0.0181329753,0.5932718913,0.9815063476,0.1547444662
2.5033068657,-0.0589366862,-0.0003299153,0.0044611003,0.5932718913,0.9815063476,0.1547444662
2.5058739185,-0.0589366862,-0.0003299153,0.0044611003,0.5780131022,1.0425415039,0.3073323568
2.5084929466,-0.0589366862,-0.0003299153,0.0044611003,0.5780131022,1.0425415039,0.3073323568
2.5110609531,-0.0589366862,-0.0003299153,0.0098321940,0.5780131022,1.0578002929,0.5514729818
2.5136330128,-0.0613780924,0.0025997721,0.0098321940,0.6085306803,1.0578002929,0.5514729818
2.5161979198,-0.0613780924,0.0025997721,0.0098321940,0.6085306803,1.0578002929,0.5819905599
2.5188848972,-0.0613780924,0.0025997721,0.0098321940,0.8526713053,0.8441772461,0.5819905599
2.5215899944,-0.0613780924,0.0069943034,0.0088556315,0.8526713053,0.8441772461,0.4751790365
2.5242888927,-0.0628429362,0.0069943034,0.0088556315,0.5322367350,0.7373657226,0.4751790365
2.5269927979,-0.0628429362,0.0069943034,0.0088556315,0.5322367350,0.7373657226,0.5362141927
2.5297369957,-0.0628429362,0.0069943034,0.0088556315,0.9442240397,0.9662475586,0.5362141927
2.5324339867,-0.0613780924,0.0025997721,0.0142267253,0.9442240397,0.9662475586,0.7193196615
2.5351409912,-0.0613780924,0.0025997721,0.0142267253,1.0662943522,1.1646118164,0.7193196615
2.5378468037,-0.0613780924,0.0025997721,0.0142267253,1.0662943522,1.1646118164,0.5667317708
2.5404160023,-0.0613780924,0.0025997721,0.0142267253,0.6237894694,1.0425415039,0.5667317708
2.5429918766,-0.0594249674,0.0079708659,0.0166681315,0.6237894694,1.0425415039,0.5667317708
2.5455539227,-0.0594249674,0.0079708659,0.0166681315,0.3949076334,0.9052124023,0.4446614583
2.5481708050,-0.0594249674,0.0079708659,0.0166681315,0.3949076334,0.9052124023,0.4446614583
2.5509698391,-0.0594249674,0.0079708659,0.0166681315,-0.0475972494,1.2256469726,0.4446614583
2.5536658764,-0.0652843424,0.0016232097,0.0269220377,-0.0475972494,1.2256469726,0.4446614583
2.5563688278,-0.0652843424,0.0016232097,0.0269220377,0.0592142741,1.4697875976,0.7040608724
2.5590748787,-0.0652843424,0.0016232097,0.0269220377,0.0592142741,1.4697875976,0.7040608724
2.5617709160,-0.0652843424,0.0016232097,0.0195978190,-0.0323384603,0.8899536132,0.5667317708
2.5644729137,-0.0667491862,0.0035763347,0.0195978190,-0.0323384603,0.8899536132,0.5667317708
2.5671668053,-0.0667491862,0.0035763347,0.0195978190,-0.3375142416,0.9509887695,0.4141438802
2.5698888302,-0.0667491862,0.0035763347,0.0195978190,-0.3375142416,0.9509887695,0.4141438802
2.5725929737,-0.0618663736,0.0094357097,0.0156915690,-0.2154439291,1.2409057617,0.3225911458
2.5754549503,-0.0618663736,0.0094357097,0.0156915690,-0.2154439291,1.2409057617,0.3225911458
2.5785458088,-0.0618663736,0.0094357097,0.0156915690,-0.1544087728,1.2714233398,0.2768147786
2.5812509060,-0.0618663736,0.0094357097,0.0156915690,-0.1544087728,1.2714233398,0.3225911458
2.5839579105,-0.0662609049,0.0069943034,0.0132501627,-0.5816548666,1.2256469726,0.3225911458
2.5866549015,-0.0662609049,0.0069943034,0.0132501627,-0.5816548666,1.2256469726,0.2768147786
2.5892989635,-0.0662609049,0.0069943034,0.0132501627,-0.5511372884,0.9357299804,0.2768147786
2.5918698311,-0.0662609049,0.0069943034,0.0103204753,-0.5511372884,0.9357299804,0.2768147786
2.5944359303,-0.0647960612,0.0079708659,0.0103204753,-1.4361470541,1.4850463867,-0.0436197917
2.5970039368,-0.0647960612,0.0079708659,0.0103204753,-1.4361470541,1.4850463867,-0.0436197917
2.5995819569,-0.0647960612,0.0079708659,0.0103204753,-1.7260640463,1.7597045898,-0.3182779948
2.6021409035,-0.0647960612,0.0079708659,0.0142267253,-1.7260640463,1.7597045898,-0.3182779948
2.6047070026,-0.0662609049,0.0099239909,0.0142267253,-1.3140767416,1.4850463867,-0.4556070964
2.6072728634,-0.0662609049,0.0099239909,0.0142267253,-1.3140767416,1.4850463867,-0.4556070964
2.6099050045,-0.0662609049,0.0099239909,0.0142267253,-1.2683003744,1.2866821289,-0.7455240885
2.6124730110,-0.0662609049,0.0143185221,0.0098321940,-1.2683003744,1.2866821289,-0.7455240885
2.6151418686,-0.0608898112,0.0143185221,0.0098321940,-1.2835591634,1.1646118164,-0.8065592448
2.6177029610,-0.0608898112,0.0143185221,0.0098321940,-1.2835591634,1.1646118164,-0.8065592448
2.6202838421,-0.0608898112,0.0143185221,0.0098321940,-1.3903706869,1.1493530273,-0.8523356120
2.6228427887,-0.0608898112,0.0113888347,0.0044611003,-1.3903706869,1.1493530273,-0.8523356120
2.6254048347,-0.0574718424,0.0113888347,0.0044611003,-1.3903706869,0.9815063476,-0.8981119792
2.6280338764,-0.0574718424,0.0113888347,0.0044611003,-1.4208882650,0.9815063476,-0.8981119792
2.6306138039,-0.0574718424,0.0113888347,0.0044611003,-1.4208882650,0.9815063476,-1.0964762370
2.6331830025,-0.0647960612,0.0118771159,0.0064142253,-2.0007222494,1.1951293945,-1.0964762370
2.6357448101,-0.0647960612,0.0118771159,0.0064142253,-2.0007222494,1.1951293945,-1.1422526042
2.6384499073,-0.0647960612,0.0118771159,0.0064142253,-1.8481343587,1.4392700195,-1.1422526042
2.6410138607,-0.0647960612,0.0118771159,0.0064142253,-1.8481343587,1.4392700195,-1.1422526042
2.6435749531,-0.0623546549,0.0099239909,0.0044611003,-1.5734761556,1.1340942382,-1.2490641276
2.6461479664,-0.0623546549,0.0099239909,0.0044611003,-1.5734761556,1.1340942382,-1.2490641276
2.6487889290,-0.0623546549,0.0099239909,0.0044611003,-1.1309712728,0.9662475586,-1.9662272135
2.6513569355,-0.0623546549,0.0099239909,0.0044611003,-1.1309712728,0.9662475586,-1.9662272135
2.6539278030,-0.0628429362,0.0021114909,0.0147150065,-1.3598531087,1.2103881836,-2.0120035807
2.6564958096,-0.0628429362,0.0021114909,0.0147150065,-1.3598531087,1.2103881836,-2.0120035807
2.6592857838,-0.0628429362,0.0021114909,0.0147150065,-1.8633931478,1.1798706054,-1.4932047526
2.6619539261,-0.0628429362,0.0021114909,0.0147150065,-1.8633931478,1.1798706054,-1.4932047526
2.6648697853,-0.0633312174,0.0094357097,-0.0018865560,-1.5124409994,0.5542602539,-1.9814860026
2.6675739288,-0.0633312174,0.0094357097,-0.0018865560,-1.5124409994,0.5542602539,-1.9814860026
2.6702799797,-0.0633312174,0.0094357097,-0.0018865560,-1.5124409994,1.2409057617,-1.9204508464
2.6729788780,-0.0633312174,0.0060177409,0.0156915690,-1.5124409994,1.2409057617,-1.9204508464
2.6756768227,-0.0682140299,0.0060177409,0.0156915690,-1.6345113119,1.2714233398,-1.5542399088
2.6784927845,-0.0682140299,0.0060177409,0.0156915690,-1.6345113119,1.2714233398,-1.5542399088
2.6811928749,-0.0682140299,0.0060177409,0.0156915690,-1.4971822103,0.7984008789,-1.5542399088
2.6838939190,-0.0682140299,0.0113888347,0.0132501627,-1.4971822103,0.7984008789,-1.5542399088
2.6865918636,-0.0682140299,0.0113888347,0.0132501627,-1.5734761556,0.9662475586,-1.9357096354
2.6892650127,-0.0682140299,0.0113888347,0.0132501627,-1.5734761556,0.9662475586,-1.9357096354
2.6918327808,-0.0682140299,0.0113888347,0.0132501627,-1.8939107259,0.9204711914,-2.0425211588
2.6943957806,-0.0662609049,0.0035763347,0.0132501627,-1.8939107259,0.9204711914,-2.0425211588
2.6969649792,-0.0662609049,0.0035763347,0.0132501627,-1.3293355306,0.9052124023,-2.2408854167
2.6995398998,-0.0662609049,0.0035763347,0.0132501627,-1.3293355306,0.9052124023,-2.2408854167
2.7021110058,-0.0662609049,0.0035763347,0.0132501627,-1.3751118978,0.8594360351,-2.4850260417
2.7046790123,-0.0701671549,0.0050411784,0.0156915690,-1.3751118978,0.8594360351,-2.4850260417
2.7072467804,-0.0701671549,0.0050411784,0.0156915690,-1.1767476400,1.3324584961,-2.3476969401
2.7099769115,-0.0701671549,0.0050411784,0.0156915690,-1.1767476400,1.3324584961,-2.3476969401
2.7125449181,-0.0701671549,0.0050411784,0.0156915690,-1.1767476400,1.3019409179,-2.1645914714
2.7151129246,-0.0696788736,0.0084591471,0.0152032877,-1.1920064291,1.3019409179,-2.1645914714
2.7176818848,-0.0696788736,0.0084591471,0.0152032877,-1.1920064291,1.0883178711,-2.0730387370
2.7204809189,-0.0696788736,0.0084591471,0.0152032877,-0.9020894369,1.0883178711,-2.0730387370
2.7231798172,-0.0696788736,0.0084591471,0.0078790690,-0.9020894369,1.0883178711,-2.5613199870
2.7258729935,-0.0667491862,0.0045528971,0.0078790690,-1.0089009603,1.0883178711,-2.5613199870
2.7285819054,-0.0667491862,0.0045528971,0.0078790690,-1.0089009603,0.8746948242,-2.5765787760
2.7312798500,-0.0667491862,0.0045528971,0.0078790690,-0.6121724447,0.8746948242,-2.5765787760
2.7339808941,-0.0623546549,0.0079708659,0.0137384440,-0.6121724447,0.8746948242,-2.8817545573
2.7366797924,-0.0623546549,0.0079708659,0.0137384440,-0.5511372884,0.7526245117,-2.8817545573
2.7393209934,-0.0623546549,0.0079708659,0.0137384440,-0.5511372884,0.7526245117,-2.5613199870
2.7420020103,-0.0623546549,0.0079708659,0.0137384440,-0.8868306478,0.9509887695,-2.5613199870
2.7445738316,-0.0628429362,0.0055294597,0.0059259440,-0.8868306478,0.9509887695,-2.4850260417
2.7471427917,-0.0628429362,0.0055294597,0.0059259440,-0.8868306478,0.8441772461,-2.4850260417
2.7498168945,-0.0628429362,0.0055294597,0.0059259440,-0.8868306478,0.8441772461,-2.6070963542
2.7525348663,-0.0628429362,0.0055294597,0.0059259440,-0.8715718587,0.9052124023,-2.6070963542
2.7551009655,-0.0677257486,0.0030880534,0.0176446940,-0.8715718587,0.9052124023,-2.6070963542
2.7576699257,-0.0677257486,0.0030880534,0.0176446940,-0.7647603353,0.6000366211,-2.9275309245
2.7604918480,-0.0677257486,0.0030880534,0.0176446940,-0.7647603353,0.6000366211,-2.9275309245
2.7637138367,-0.0677257486,0.1280880534,0.0122736003,-0.5511372884,0.8746948242,-2.4392496745
2.7664258480,-0.0628429362,0.0065060221,0.0122736003,-0.5511372884,0.8746948242,-2.5002848307
2.7691388130,-0.0628429362,0.0065060221,0.0122736003,-0.9173482259,0.5847778320,-2.5002848307
2.7718398571,-0.0628429362,0.0065060221,0.0122736003,-0.9173482259,0.5847778320,-2.2714029948
2.7745409012,-0.0667491862,0.0025997721,0.0132501627,-0.6426900228,0.4169311523,-2.2714029948
2.7772419453,-0.0667491862,0.0025997721,0.0132501627,-0.6426900228,0.4169311523,-2.6833902995
2.7799539566,-0.0667491862,0.0025997721,0.0132501627,-0.7037251791,0.6610717773,-2.6833902995
2.7826519012,-0.0667491862,0.0025997721,0.0132501627,-0.7037251791,0.6610717773,-2.8054606120
2.7853529453,-0.0643077799,0.0060177409,0.0039728190,-0.9326070150,0.7831420898,-2.8054606120
2.7881009579,-0.0643077799,0.0060177409,0.0039728190,-0.9326070150,0.7831420898,-2.6223551432
2.7906658649,-0.0643077799,0.0060177409,0.0039728190,-0.8715718587,0.7984008789,-2.6223551432
2.7932298183,-0.0643077799,0.0060177409,0.0039728190,-0.8715718587,0.7984008789,-2.6223551432
2.7957999706,-0.0667491862,-0.0052127279,0.0176446940,-1.0241597494,0.5847778320,-2.5308024088
2.7983729839,-0.0667491862,-0.0052127279,0.0176446940,-1.0241597494,0.5847778320,-2.5308024088
2.8009459972,-0.0667491862,-0.0052127279,0.0176446940,-0.9173482259,0.4169311523,-2.8664957682
2.8035140038,-0.0667491862,-0.0052127279,0.0176446940,-0.9173482259,0.4169311523,-2.8664957682
2.8061900139,-0.0657726236,0.0006466471,0.0103204753,-0.6274312337,0.3101196289,-2.4697672526
2.8088510036,-0.0657726236,0.0006466471,0.0103204753,-0.6274312337,0.3101196289,-2.4697672526
2.8114178181,-0.0657726236,0.0006466471,0.0103204753,-0.8410542806,0.3558959961,-2.5613199870
2.8139779568,-0.0657726236,0.0006466471,0.0166681315,-0.8410542806,0.3558959961,-2.5613199870
2.8165488243,-0.0638194986,0.0016232097,0.0166681315,-0.7647603353,0.4016723632,-2.4545084635
2.8193068504,-0.0638194986,0.0016232097,0.0166681315,-0.7647603353,0.4016723632,-2.4545084635
2.8220098019,-0.0638194986,0.0016232097,0.0166681315,-0.5969136556,0.6763305664,-2.8970133464
2.8247058392,-0.0638194986,-0.0013064779,0.0147150065,-0.5969136556,0.6763305664,-2.8970133464
2.8274059296,-0.0677257486,-0.0013064779,0.0147150065,-0.5969136556,0.4627075195,-2.8664957682
2.8301539421,-0.0677257486,-0.0013064779,0.0147150065,-0.5969136556,0.4627075195,-2.8664957682
2.8328459263,-0.0677257486,-0.0013064779,0.0147150065,-0.6732076009,0.5084838867,-2.8970133464
2.8355388641,-0.0633312174,0.0016232097,0.0064142253,-0.6732076009,0.5084838867,-2.8970133464
2.8382468224,-0.0633312174,0.0016232097,0.0064142253,-0.5053609213,0.7526245117,-2.3782145182
2.8408110142,-0.0633312174,0.0016232097,0.0064142253,-0.5053609213,0.7526245117,-2.3782145182
2.8433837891,-0.0633312174,0.0016232097,0.0064142253,-0.6121724447,0.6763305664,-2.6528727214
2.8459489346,-0.0599132486,0.0035763347,0.0005548503,-0.6121724447,0.6763305664,-2.6528727214
2.8485867977,-0.0599132486,0.0035763347,0.0005548503,-0.6121724447,0.7373657226,-2.5765787760
2.8512938023,-0.0599132486,0.0035763347,0.0005548503,-0.5053609213,0.7373657226,-2.5765787760
2.8539919853,-0.0599132486,0.0035763347,0.0005548503,-0.5053609213,0.3558959961,-2.3782145182
2.8566927910,-0.0643077799,-0.0027713216,0.0195978190,-0.4443257650,0.3558959961,-2.3782145182
2.8594689369,-0.0643077799,-0.0027713216,0.0195978190,-4.3505757650,0.4932250976,-2.3324381510
2.8621559143,-0.0643077799,-0.0027713216,0.0195978190,-1.0241597494,0.4932250976,-2.3324381510
2.8648459911,-0.0643077799,-0.0042361653,0.0073907877,2.8820902506,0.4779663086,-2.3629557292
2.8675329685,-0.0633312174,-0.0042361653,0.0073907877,-0.7952779134,0.4779663086,-2.3629557292
2.8705279827,-0.0633312174,-0.0042361653,0.0073907877,-0.6426900228,0.5237426758,-2.0730387370
2.8732237816,-0.0633312174,-0.0042361653,0.0073907877,-0.6426900228,0.5237426758,-2.0730387370
2.8760368824,-0.0633312174,0.0045528971,0.0117853190,-0.9783833822,0.4779663086,-1.9204508464
2.8788259029,-0.0633312174,0.0045528971,0.0117853190,-0.9783833822,0.4779663086,-1.9204508464
2.8815329075,-0.0633312174,0.0045528971,0.0117853190,-1.0241597494,0.3101196289,-1.8594156901
2.8842217922,-0.0633312174,0.0045528971,0.0117853190,-1.0241597494,0.3101196289,-1.8594156901
2.8869090080,-0.0647960612,0.0011349284,0.0142267253,-1.2835591634,0.8289184570,-1.5847574870
2.8896358013,-0.0647960612,0.0011349284,0.0142267253,-1.2835591634,0.8289184570,-1.5847574870
2.8922019005,-0.0647960612,0.0011349284,0.0142267253,-1.2835591634,0.6915893554,-2.0120035807
2.8947699070,-0.0647960612,0.0011349284,0.0122736003,-1.1309712728,0.6915893554,-2.0120035807
2.8973360062,-0.0618663736,0.0035763347,0.0122736003,-1.1309712728,0.6915893554,-1.7526041667
2.9000458717,-0.0618663736,0.0035763347,0.0122736003,-0.8563130697,0.9967651367,-1.7526041667
2.9027459621,-0.0618663736,0.0035763347,0.0122736003,-0.8563130697,0.9967651367,-1.6763102214
2.9054529667,-0.0618663736,0.0025997721,0.0200861003,-1.1614888509,1.0272827148,-1.6763102214
2.9081628323,-0.0618663736,0.0025997721,0.0200861003,-1.1614888509,1.0272827148,-1.6000162760
2.9107298851,-0.0618663736,0.0025997721,0.0200861003,-1.7718404134,0.8136596679,-1.6000162760
2.9132947922,-0.0618663736,0.0025997721,0.0200861003,-1.7718404134,0.8136596679,-1.3558756510
2.9158618450,-0.0672374674,0.0011349284,0.0191095377,-1.7718404134,0.7221069336,-1.3558756510
2.9184319973,-0.0672374674,0.0011349284,0.0191095377,-1.7718404134,0.7221069336,-1.3558756510
2.9210069180,-0.0672374674,0.0011349284,0.0191095377,-1.4514058431,0.7526245117,-1.8899332682
2.9235689640,-0.0672374674,0.0011349284,0.0191095377,-1.4514058431,0.7526245117,-1.8899332682
2.9261348248,-0.0604015299,0.0050411784,0.0020196940,-1.1462300619,0.7678833008,-2.0120035807
2.9288678169,-0.0604015299,0.0050411784,0.0020196940,-1.1462300619,0.7678833008,-2.0120035807
2.9314339161,-0.0604015299,0.0050411784,0.0020196940,-1.0394185384,0.5084838867,-1.7220865885
2.9341108799,-0.0604015299,0.0050411784,0.0020196940,-1.0394185384,0.5084838867,-1.7220865885
2.9366819859,-0.0701671549,0.0030880534,0.0156915690,-1.0699361166,0.6915893554,-1.9357096354
2.9394009113,-0.0701671549,0.0030880534,0.0156915690,-1.0699361166,0.6915893554,-1.9357096354
2.9419708252,-0.0701671549,0.0030880534,0.0156915690,-1.2377827963,0.3864135742,-1.8594156901
2.9445369244,-0.0701671549,0.0030880534,0.0156915690,-1.2377827963,0.3864135742,-1.8594156901
2.9471089840,-0.0672374674,0.0021114909,0.0112970377,-1.2072652181,0.1422729492,-2.0425211588
2.9497969151,-0.0672374674,0.0021114909,0.0112970377,-1.2072652181,0.1422729492,-2.0425211588
2.9524970055,-0.0672374674,0.0021114909,0.0112970377,-1.4971822103,0.4779663086,-1.9509684245
2.9551949501,-0.0672374674,0.0021114909,0.0142267253,-1.4971822103,0.4779663086,-1.9509684245
2.9579069614,-0.0657726236,-0.0052127279,0.0142267253,-1.5734761556,0.4779663086,-2.1188151042
2.9606130123,-0.0657726236,-0.0052127279,0.0142267253,-1.5734761556,0.4779663086,-2.1188151042
2.9633247852,-0.0657726236,-0.0052127279,0.0142267253,-1.7260640463,0.5695190429,-1.8136393229
2.9660229683,-0.0657726236,0.0021114909,0.0112970377,-1.7260640463,0.5695190429,-1.8136393229
2.9687318802,-0.0662609049,0.0021114909,0.0112970377,-2.0007222494,0.4474487304,-1.7831217448
2.9714348316,-0.0662609049,0.0021114909,0.0112970377,-2.0007222494,0.4474487304,-1.7831217448
2.9741318226,-0.0662609049,0.0021114909,0.0112970377,-2.2296040853,0.6458129882,-2.1340738932
2.9768300056,-0.0657726236,-0.0008181966,0.0152032877,-2.2296040853,0.6458129882,-2.1340738932
2.9795498848,-0.0657726236,-0.0008181966,0.0152032877,-2.1685689291,0.3864135742,-2.1035563151
2.9822487831,-0.0657726236,-0.0008181966,0.0152032877,-2.1685689291,0.3864135742,-2.1035563151
2.9849569798,-0.0657726236,-0.0008181966,0.0152032877,-1.9702046713,0.4474487304,-1.8136393229
2.9876568317,-0.0613780924,-0.0017947591,0.0137384440,-1.9702046713,0.4474487304,-1.8136393229
2.9902439117,-0.0613780924,-0.0017947591,0.0137384440,-1.9702046713,0.4627075195,-1.8136393229
2.9928169250,-0.0613780924,-0.0017947591,0.0137384440,-2.0159810384,0.4627075195,-1.8136393229
2.9955978394,-0.0613780924,-0.0017947591,0.0137384440,-2.0159810384,0.1575317382,-2.1493326823
2.9983839989,-0.0711437174,0.0055294597,0.0088556315,-2.4432271322,0.1575317382,-2.1493326823
3.0010948181,-0.0711437174,0.0055294597,0.0088556315,-2.3821919759,0.4474487304,-1.7526041667
3.0039138794,-0.0711437174,0.0055294597,0.0088556315,-2.3821919759,0.4474487304,-1.7526041667
3.0066218376,-0.0711437174,-0.0013064779,0.0225275065,-2.0770161947,0.5542602539,-1.8746744792
3.0093669891,-0.0735851236,-0.0013064779,0.0225275065,-2.0770161947,0.5542602539,-1.8746744792
3.0120658875,-0.0735851236,-0.0013064779,0.0225275065,-2.4890034994,0.8441772461,-2.0882975260
3.0147628784,-0.0735851236,-0.0013064779,0.0225275065,-2.4890034994,0.8441772461,-2.0882975260
3.0174608231,-0.0760265299,-0.0008181966,0.0166681315,-2.8094380697,0.7678833008,-1.8288981120
3.0201759338,-0.0760265299,-0.0008181966,0.0166681315,-2.8094380697,0.7678833008,-1.8288981120
3.0228748322,-0.0760265299,-0.0008181966,0.0166681315,-2.8094380697,0.6152954101,-1.7831217448
3.0255758762,-0.0760265299,-0.0008181966,0.0166681315,-2.8094380697,0.6152954101,-1.7831217448
3.0283088684,-0.0677257486,-0.0047244466,0.0142267253,-2.8094380697,0.3558959961,-1.7068277995
3.0308740139,-0.0677257486,-0.0047244466,0.0142267253,-3.0993550619,0.3558959961,-1.7068277995
3.0334479809,-0.0677257486,-0.0047244466,0.0142267253,-3.0993550619,0.3558959961,-1.8441569010
3.0360209942,-0.0677257486,-0.0047244466,0.0239923503,-3.2214253744,0.5390014648,-1.8441569010
3.0387248993,-0.0657726236,0.0065060221,0.0239923503,-3.2214253744,0.5390014648,-1.8288981120
3.0412938595,-0.0657726236,0.0065060221,0.0239923503,-3.4045308431,0.8899536132,-1.8288981120
3.0438618660,-0.0657726236,0.0065060221,0.0239923503,-3.4045308431,0.8899536132,-1.8288981120
3.0464270115,-0.0657726236,0.0065060221,0.0088556315,-2.7026265463,0.8441772461,-2.0882975260
3.0491127968,-0.0701671549,0.0065060221,0.0088556315,-2.7026265463,0.8441772461,-2.0882975260
3.0516779423,-0.0701671549,0.0065060221,0.0088556315,-2.7789204916,0.4779663086,-2.2103678385
3.0542469025,-0.0701671549,0.0065060221,0.0088556315,-2.7789204916,0.4779663086,-2.2103678385
3.0568068027,-0.0701671549,0.0113888347,0.0112970377,-2.9620259603,0.4321899414,-2.8512369792
3.0596539974,-0.0618663736,0.0113888347,0.0112970377,-2.9620259603,0.4321899414,-2.8512369792
3.0623238087,-0.0618663736,0.0113888347,0.0112970377,-3.0535786947,-0.1171264649,-2.8664957682
3.0648868084,-0.0618663736,0.0113888347,0.0112970377,-3.0535786947,-0.1171264649,-2.8664957682
3.0674448013,-0.0657726236,0.0001583659,0.0244806315,-3.0383199056,-0.0103149414,-3.0801188151
3.0702619553,-0.0657726236,0.0001583659,0.0244806315,-3.0383199056,-0.0103149414,-3.0801188151
3.0729148388,-0.0657726236,0.0001583659,0.0244806315,-3.3129781087,0.4474487304,-3.2021891276
3.0760707855,-0.0657726236,0.0001583659,0.0244806315,-3.3129781087,0.4474487304,-3.2021891276
3.0786418915,-0.0623546549,-0.0017947591,0.0083673503,-3.2214253744,0.0812377929,-3.0038248698
3.0812017918,-0.0623546549,-0.0017947591,0.0083673503,-3.2214253744,0.0812377929,-3.0038248698
3.0837647915,-0.0623546549,-0.0017947591,0.0083673503,-3.2519429525,0.3101196289,-3.3852945964
3.0863318443,-0.0623546549,-0.0017947591,0.0083673503,-3.2519429525,0.3101196289,-3.3852945964
3.0889368057,-0.0691905924,-0.0061892903,0.0239923503,-3.5266011556,0.5390014648,-3.1564127604
3.0914988518,-0.0691905924,-0.0061892903,0.0239923503,-3.5266011556,0.5390014648,-3.1564127604
3.0940589905,-0.0691905924,-0.0061892903,0.0239923503,-3.5723775228,0.5847778320,-3.1258951823
3.0966219902,-0.0691905924,-0.0061892903,0.0137384440,-3.5723775228,0.5847778320,-3.1258951823
3.0991909504,-0.0613780924,-0.0047244466,0.0137384440,-3.2977193197,0.2033081054,-3.0953776042
3.1017558575,-0.0613780924,-0.0047244466,0.0137384440,-3.2977193197,0.2033081054,-3.0953776042
3.1043210030,-0.0613780924,-0.0047244466,0.0137384440,-3.2977193197,0.3253784179,-2.8054606120
3.1068859100,-0.0613780924,-0.0047244466,0.0181329753,-3.2519429525,0.3253784179,-2.8054606120
3.1094999313,-0.0643077799,0.0001583659,0.0181329753,-3.2519429525,0.3253784179,-2.7596842448
3.1120679379,-0.0643077799,0.0001583659,0.0181329753,-3.4350484213,0.0049438476,-2.7596842448
3.1146318913,-0.0643077799,0.0001583659,0.0181329753,-3.4350484213,0.0049438476,-2.7596842448
3.1171948910,-0.0643077799,0.0001583659,0.0181329753,-2.7941792806,0.1575317382,-2.5918375651
3.1198148727,-0.0672374674,-0.0081424153,0.0181329753,-2.7941792806,0.1575317382,-2.5918375651
3.1223788261,-0.0672374674,-0.0081424153,0.0181329753,-3.0230611166,0.2796020508,-2.3171793620
3.1250548363,-0.0672374674,-0.0081424153,0.0181329753,-3.0230611166,0.2796020508,-2.3171793620
3.1276218891,-0.0672374674,-0.0096072591,0.0239923503,-3.0535786947,0.3406372070,-2.6376139323
3.1304810047,-0.0701671549,-0.0096072591,0.0239923503,-3.0535786947,0.3406372070,-2.6376139323
3.1331799030,-0.0701671549,-0.0096072591,0.0239923503,-3.1451314291,0.3101196289,-2.4697672526
3.1358749866,-0.0701671549,-0.0096072591,0.0239923503,-3.1451314291,0.3101196289,-2.4697672526
3.1385629177,-0.0706554362,-0.0081424153,-0.0004217123,-3.0078023275,0.0507202148,-2.2103678385
3.1411268711,-0.0706554362,-0.0081424153,-0.0004217123,-3.0078023275,0.0507202148,-2.2103678385
3.1436908245,-0.0706554362,-0.0081424153,-0.0004217123,-3.0993550619,-0.0866088868,-1.9967447917
3.1462609768,-0.0706554362,-0.0081424153,-0.0004217123,-3.0993550619,-0.0866088868,-1.9967447917
3.1488819122,-0.0735851236,-0.0061892903,0.0195978190,-3.3587544759,0.2643432617,-1.6305338542
3.1515808105,-0.0735851236,-0.0061892903,0.0195978190,-3.3587544759,0.2643432617,-1.6305338542
3.1542840004,-0.0735851236,-0.0061892903,0.0195978190,-3.4197896322,-0.1476440430,-1.6763102214
3.1569869518,-0.0735851236,-0.0061892903,0.0195978190,-3.4197896322,-0.1476440430,-1.6763102214
3.1597368717,-0.0604015299,-0.0071658529,0.0171564127,-3.2214253744,0.2796020508,-1.6915690104
3.1623539925,-0.0604015299,-0.0071658529,0.0171564127,-3.2214253744,0.2796020508,-1.6915690104
3.1649219990,-0.0604015299,-0.0071658529,0.0171564127,-2.6263326009,0.6458129882,-1.6152750651
3.1674938202,-0.0604015299,-0.0071658529,0.0259454753,-2.6263326009,0.6458129882,-1.6152750651
3.1702837944,-0.0677257486,-0.0052127279,0.0259454753,-3.1298726400,-0.1934204102,-1.5542399088
3.1729497910,-0.0677257486,-0.0052127279,0.0259454753,-3.1298726400,-0.1934204102,-1.5542399088
3.1764488220,-0.0677257486,-0.0052127279,0.0259454753,-2.9009908041,0.0812377929,-1.8594156901
3.1790168285,-0.0652843424,-0.0037478841,0.0186212565,-2.9009908041,0.0812377929,-1.8594156901
3.1815807819,-0.0652843424,-0.0037478841,0.0186212565,-2.8704732259,0.4321899414,-1.6305338542
3.1841437817,-0.0652843424,-0.0037478841,0.0186212565,-2.8704732259,0.4321899414,-1.6305338542
3.1867048740,-0.0652843424,-0.0037478841,0.0186212565,-2.4127095541,0.1727905273,-1.7831217448
3.1893179417,-0.0604015299,-0.0037478841,0.0161798503,-2.4127095541,0.1727905273,-1.7831217448
3.1919908524,-0.0604015299,-0.0037478841,0.0161798503,-2.0617574056,0.3406372070,-2.1035563151
3.1945519447,-0.0604015299,-0.0037478841,0.0161798503,-2.0617574056,0.3406372070,-2.1035563151
3.1971158981,-0.0604015299,-0.0037478841,0.0161798503,-2.4432271322,0.7831420898,-1.7220865885
3.1997168064,-0.0550304362,-0.0032596029,0.0171564127,-2.4432271322,0.7831420898,-1.7220865885
3.2022848129,-0.0550304362,-0.0032596029,0.0171564127,-2.4432271322,0.6610717773,-1.7831217448
3.2048490047,-0.0550304362,-0.0032596029,0.0171564127,-2.0159810384,0.6610717773,-1.7831217448
3.2074139118,-0.0550304362,-0.0032596029,0.0171564127,-2.0159810384,0.6610717773,-2.1340738932
3.2100257874,-0.0696788736,-0.0042361653,0.0235040690,-1.4208882650,-0.1476440430,-2.1340738932
3.2125887871,-0.0696788736,-0.0042361653,0.0235040690,-1.4208882650,-0.1476440430,-2.1340738932
3.2151508331,-0.0696788736,-0.0042361653,0.0235040690,-1.4056294759,-0.4680786133,-2.2103678385
3.2177128792,-0.0696788736,-0.0042361653,0.0235040690,-1.4056294759,-0.4680786133,-2.2103678385
3.2203178406,-0.0613780924,-0.0042361653,0.0132501627,-1.0241597494,-0.3765258789,-1.5389811198
3.2228858471,-0.0613780924,-0.0042361653,0.0132501627,-1.0241597494,-0.3765258789,-1.5389811198
3.2254478931,-0.0613780924,-0.0042361653,0.0132501627,-0.7952779134,-0.6511840821,-1.8136393229
3.2281827927,-0.0613780924,-0.0042361653,0.0264337565,-0.7952779134,-0.6511840821,-1.8136393229
3.2307457924,-0.0696788736,-0.0071658529,0.0264337565,-0.8563130697,-0.2391967774,-1.8136393229
3.2333087921,-0.0696788736,-0.0071658529,0.0264337565,-0.8563130697,-0.2391967774,-1.8136393229
3.2358739376,-0.0696788736,-0.0071658529,0.0264337565,-1.2835591634,0.0049438476,-1.2948404948
3.2384409904,-0.0696788736,-0.0071658529,0.0259454753,-1.2835591634,0.0049438476,-1.2948404948
3.2410039902,-0.0618663736,-0.0061892903,0.0259454753,-1.3445943197,-0.0560913086,-1.1422526042
3.2435719967,-0.0618663736,-0.0061892903,0.0259454753,-1.3445943197,-0.0560913086,-1.1422526042
3.2461338043,-0.0618663736,-0.0061892903,0.0259454753,-1.1309712728,-0.2544555664,-1.1422526042
3.2487568855,-0.0618663736,-0.0086306966,0.0181329753,-1.1309712728,-0.2544555664,-1.1422526042
3.2513189316,-0.0667491862,-0.0086306966,0.0181329753,-1.1309712728,-0.0713500977,-0.8370768229
3.2539858818,-0.0667491862,-0.0086306966,0.0181329753,-1.0394185384,-0.0713500977,-0.8370768229
3.2565507889,-0.0667491862,-0.0086306966,0.0181329753,-1.0394185384,-0.0713500977,-0.8828531901
3.2591238022,-0.0682140299,-0.0115603841,0.0220392253,-0.9631245931,-0.1171264649,-0.8828531901
3.2616868019,-0.0682140299,-0.0115603841,0.0220392253,-0.9631245931,-0.1171264649,-0.7302652995
3.2642519474,-0.0682140299,-0.0115603841,0.0220392253,-0.9936421713,0.0964965820,-0.7302652995
3.2668139935,-0.0682140299,-0.0115603841,0.0220392253,-0.9936421713,0.0964965820,-0.7302652995
3.2693858147,-0.0604015299,-0.0027713216,0.0293634440,-1.2377827963,0.2490844726,-0.3030192057
3.2719500065,-0.0604015299,-0.0027713216,0.0293634440,-1.2377827963,0.2490844726,-0.3030192057
3.2745139599,-0.0604015299,-0.0027713216,0.0293634440,-0.4748433431,0.3101196289,-0.4250895182
3.2770788670,-0.0604015299,-0.0027713216,0.0293634440,-0.4748433431,0.3101196289,-0.4250895182
3.2797808647,-0.0584484049,-0.0027713216,0.0147150065,-0.1696675619,-0.0866088868,-0.2877604167
3.2823469639,-0.0584484049,-0.0027713216,0.0147150065,-0.1696675619,-0.0866088868,-0.2877604167
3.2851188183,-0.0584484049,-0.0027713216,0.0147150065,-0.1544087728,0.0354614258,-0.2267252604
3.2876830101,-0.0584484049,-0.0027713216,0.0147150065,-0.1544087728,0.0354614258,-0.2267252604
3.2904908657,-0.0657726236,0.0001583659,0.0176446940,-0.1086324056,-0.2697143555,-0.3945719401
3.2930579185,-0.0657726236,0.0001583659,0.0176446940,-0.1086324056,-0.2697143555,-0.3945719401
3.2956268787,-0.0657726236,0.0001583659,0.0176446940,0.0134379069,-0.1476440430,-0.2877604167
3.2982227802,-0.0657726236,0.0001583659,0.0176446940,0.0134379069,-0.1476440430,-0.2877604167
3.3009250164,-0.0608898112,0.0060177409,0.0205743815,-0.2307027181,-0.1629028321,-0.4556070964
3.3036279678,-0.0608898112,0.0060177409,0.0205743815,-0.2307027181,-0.1629028321,-0.4556070964
3.3063268661,-0.0608898112,0.0060177409,0.0205743815,0.2423197428,0.1117553711,-0.2725016276
3.3090379238,-0.0608898112,-0.1189822591,0.0137384440,0.2423197428,0.1117553711,-0.2725016276
3.3117368221,-0.0682140299,-0.0003299153,0.0137384440,0.0286966959,0.0354614258,-0.1199137370
3.3144350052,-0.0682140299,-0.0003299153,0.0137384440,0.0286966959,0.0354614258,-0.1199137370
3.3172419071,-0.0682140299,-0.0003299153,0.0137384440,-0.2001851400,0.2338256836,-0.2267252604
3.3198509216,-0.0652843424,-0.0071658529,0.0156915690,-0.2001851400,0.2338256836,-0.2267252604
3.3224217892,-0.0652843424,-0.0071658529,0.0156915690,-0.1544087728,0.1727905273,-0.1351725260
3.3249897957,-0.0652843424,-0.0071658529,0.0156915690,-0.1544087728,0.1727905273,-0.1351725260
3.3275558949,-0.0652843424,-0.0071658529,0.0156915690,-0.1544087728,0.1117553711,-0.1656901042
3.3301339149,-0.0721202799,-0.0052127279,0.0239923503,-0.0475972494,0.1117553711,-0.1656901042
3.3326988220,-0.0721202799,-0.0052127279,0.0239923503,-0.0475972494,0.1117553711,-0.1962076823
3.3352677822,-0.0721202799,-0.0052127279,0.0239923503,0.0897318522,0.1575317382,-0.1962076823
3.3379769325,-0.0721202799,-0.0052127279,0.0239923503,0.0897318522,0.1575317382,0.1089680990
3.3405478001,-0.0657726236,-0.0017947591,0.0274103190,0.0439554850,0.4169311523,0.1089680990
3.3431220055,-0.0657726236,-0.0017947591,0.0274103190,0.0439554850,0.4169311523,0.1089680990
3.3456928730,-0.0657726236,-0.0017947591,0.0274103190,0.0744730631,-0.0866088868,-0.0893961588
3.3484427929,-0.0657726236,-0.0017947591,0.0274103190,0.0744730631,-0.0866088868,-0.0893961588
3.3511459827,-0.0701671549,0.0016232097,0.0166681315,0.4406840006,-0.5443725586,0.0021565755
3.3538439274,-0.0701671549,0.0016232097,0.0166681315,0.4406840006,-0.5443725586,0.0021565755
3.3565468788,-0.0701671549,0.0016232097,0.0166681315,0.3186136881,-0.5138549805,-0.1809488932
3.3592569828,-0.0701671549,0.0016232097,0.0220392253,0.3186136881,-0.5138549805,-0.1809488932
3.3619558811,-0.0687023112,-0.0013064779,0.0220392253,0.1965433756,-0.1781616211,-0.2572428385
3.3646550179,-0.0687023112,-0.0013064779,0.0220392253,0.1965433756,-0.1781616211,-0.2572428385
3.3673558235,-0.0687023112,-0.0013064779,0.0220392253,0.1812845866,0.1575317382,-0.0741373698
3.3700649738,-0.0687023112,-0.0071658529,0.0117853190,0.1812845866,0.1575317382,-0.0741373698
3.3727648258,-0.0589366862,-0.0071658529,0.0117853190,0.5627543131,0.0812377929,-0.0283610026
3.3754680157,-0.0589366862,-0.0071658529,0.0117853190,0.5627543131,0.0812377929,-0.0283610026
3.3781809807,-0.0589366862,-0.0071658529,0.0117853190,0.7763773600,0.0049438476,-0.0131022135
