# time_stamp before, Acceleration x, Acceleration y, Acceleration z, Gyro x, Gyro y, Gyro z
0.0000000000,-0.1600499675,-0.1333295898,0.0615541993,4.0087636312,-1.8237253825,-7.9986572266
0.0025599003,-0.1600499675,-0.1333295898,0.0615541993,2.5134023030,-1.6253611247,-7.9986572266
0.0051209927,-0.1600499675,-0.1333295898,0.0615541993,2.5134023030,-1.6253611247,-7.9986572266
0.0077428818,-0.1683507487,-0.1264936523,0.0591127930,1.7657216390,-1.4880320231,-7.8155517579
0.0103919506,-0.1683507487,-0.1264936523,0.0591127930,1.7657216390,-1.4880320231,-7.8155517579
0.0129508972,-0.1683507487,-0.1264936523,0.0591127930,2.1166737874,-1.3354441325,-7.4798583985
0.0155107975,-0.1683507487,-0.1264936523,0.0591127930,2.1166737874,-1.3354441325,-7.4798583985
0.0182018280,-0.1610265299,-0.1416303710,0.0625307617,2.1777089437,-1.3964792888,-6.8237304688
0.0207829475,-0.1610265299,-0.1416303710,0.0625307617,2.1777089437,-1.3964792888,-6.8237304688
0.0233378410,-0.1610265299,-0.1416303710,0.0625307617,2.3150380452,-1.3964792888,-6.3812255860
0.0258929729,-0.1610265299,-0.1416303710,0.0625307617,2.3150380452,-1.3964792888,-6.3812255860
0.0286598206,-0.1795812175,-0.1533491210,0.0625307617,2.9559071859,-1.3354441325,-5.4504394532
0.0312268734,-0.1795812175,-0.1533491210,0.0625307617,2.9559071859,-1.3354441325,-5.4504394532
0.0337779522,-0.1795812175,-0.1533491210,0.0625307617,3.2153065999,-0.6182810466,-4.6264648438
0.0363509655,-0.1795812175,-0.1533491210,0.0625307617,3.2153065999,-0.6182810466,-4.6264648438
0.0390188694,-0.1878819987,-0.1733686523,0.0610659180,2.2692616780,-0.5267283122,-4.2907714844
0.0415878296,-0.1878819987,-0.1733686523,0.0610659180,2.2692616780,-0.5267283122,-4.2907714844
0.0441489220,-0.1878819987,-0.1733686523,0.0610659180,2.2692616780,-0.3283640544,-3.2684326172
0.0467069149,-0.1878819987,-0.1733686523,0.0610659180,2.3608144124,-0.3283640544,-3.2684326172
0.0492968559,-0.1912999675,-0.1513959960,0.0605776367,2.3608144124,-0.3283640544,-2.8259277344
0.0520238876,-0.1912999675,-0.1513959960,0.0605776367,2.5744374593,0.4498341878,-2.8259277344
0.0545859337,-0.1912999675,-0.1513959960,0.0605776367,2.5744374593,0.4498341878,-3.5125732422
0.0571539402,-0.1912999675,-0.1513959960,0.0566713867,2.8338368733,1.0296681722,-3.5125732422
0.0598278046,-0.2064366862,-0.1264936523,0.0566713867,2.8338368733,1.0296681722,-3.7719726563
0.0625128746,-0.2064366862,-0.1264936523,0.0566713867,5.1073964437,1.4569142659,-3.7719726563
0.0651888847,-0.2064366862,-0.1264936523,0.0566713867,5.1073964437,1.4569142659,-4.3212890625
0.0679118633,-0.0814366862,-0.0869428710,0.0351870117,7.1673329671,0.9075978597,-4.3212890625
0.0705788136,-0.1869054362,-0.0869428710,0.0351870117,7.1673329671,0.9075978597,-4.9468994141
0.0732889175,-0.1869054362,-0.0869428710,0.0351870117,9.3798573812,0.2209523519,-4.9468994141
0.0759708881,-0.1869054362,-0.0869428710,0.0351870117,9.3798573812,0.2209523519,-5.4962158203
0.0787019730,-0.1815343425,-0.0913374023,0.0371401367,11.0583241780,-0.1910349528,-5.4962158203
0.0813829899,-0.1815343425,-0.0913374023,0.0371401367,11.0583241780,-0.1910349528,-5.4962158203
0.0840709209,-0.1815343425,-0.0913374023,0.0371401367,13.0419667562,-0.6487986247,-5.4809570313
0.0867559910,-0.1815343425,-0.0913374023,0.0371401367,13.0419667562,-0.6487986247,-5.4809570313
0.0894608498,-0.1668859049,-0.0962202148,0.0566713867,14.9187978109,-0.9387156169,-5.6335449219
0.0921738148,-0.1668859049,-0.0962202148,0.0566713867,14.9187978109,-0.9387156169,-5.6335449219
0.0948739052,-0.1668859049,-0.0962202148,0.0566713867,14.4152577718,-1.0455271403,-5.7098388672
0.0975739956,-0.1668859049,-0.0962202148,0.0493471680,14.4152577718,-1.0455271403,-5.7098388672
0.1002810001,-0.1717687175,-0.1289350586,0.0493471680,13.8812001546,-0.9844919841,-5.8166503907
0.1029829979,-0.1717687175,-0.1289350586,0.0493471680,13.8812001546,-0.9844919841,-5.8166503907
0.1056900024,-0.1717687175,-0.1289350586,0.0493471680,13.3013661702,-1.3049265544,-5.8319091797
0.1084017754,-0.1707921549,-0.1289350586,0.0434877930,13.3013661702,-1.3049265544,-5.8319091797
0.1111028194,-0.1707921549,-0.1289350586,0.0434877930,13.1335194905,-1.0302683513,-5.7250976563
0.1138088703,-0.1707921549,-0.1289350586,0.0434877930,13.1335194905,-1.0302683513,-5.7250976563
0.1166257858,-0.1707921549,-0.1289350586,0.0434877930,12.8130849202,-1.7016550700,-5.4656982422
0.1193408966,-0.1561437175,-0.1059858398,0.0449526367,12.8130849202,-1.7016550700,-5.4656982422
0.1220469475,-0.1561437175,-0.1059858398,0.0449526367,14.2321523030,-1.9457956950,-6.2438964844
0.1247479916,-0.1561437175,-0.1059858398,0.0449526367,14.2321523030,-1.9457956950,-6.2438964844
0.1274609566,-0.1561437175,-0.1059858398,0.0449526367,14.8882802327,-1.7016550700,-6.9763183594
0.1300327778,-0.1771398112,-0.1113569336,0.0483706055,14.8882802327,-1.7016550700,-6.9763183594
0.1326048374,-0.1771398112,-0.1113569336,0.0483706055,14.2931874593,-0.8624216716,-6.3659667969
0.1351809502,-0.1771398112,-0.1113569336,0.0483706055,14.2931874593,-0.8624216716,-6.3659667969
0.1377577782,-0.1771398112,-0.1113569336,0.0552065430,12.9656728109,-0.7708689372,-5.8166503907
0.1404128075,-0.1712804362,-0.1303999023,0.0552065430,12.9656728109,-0.7708689372,-5.8166503907
0.1430838108,-0.1712804362,-0.1303999023,0.0552065430,11.5313466390,-0.5725046794,-5.6793212891
0.1457448006,-0.1712804362,-0.1303999023,0.0552065430,11.5313466390,-0.5725046794,-5.6793212891
0.1484298706,-0.1712804362,-0.1450483398,0.0639956055,9.8528798421,-0.0689646403,-5.4046630860
0.1511349678,-0.1703038737,-0.1450483398,0.0639956055,9.8528798421,-0.0689646403,-5.4046630860
0.1538419724,-0.1703038737,-0.1450483398,0.0639956055,7.6861317952,-0.2215525310,-5.2062988282
0.1565399170,-0.1703038737,-0.1450483398,0.0639956055,7.6861317952,-0.2215525310,-5.2062988282
0.1592359543,-0.1742101237,-0.1128217773,0.0571596680,6.7706044515,-0.0689646403,-5.3588867188
0.1619338989,-0.1742101237,-0.1128217773,0.0571596680,6.7706044515,-0.0689646403,-5.3588867188
0.1646339893,-0.1742101237,-0.1128217773,0.0571596680,6.9384511312,-0.1147410075,-5.4199218750
0.1673309803,-0.1742101237,-0.1128217773,0.0571596680,6.9384511312,-0.1147410075,-5.4199218750
0.1700329781,-0.1712804362,-0.0991499023,0.0620424805,8.4490712483,-0.4046579997,-5.5419921875
0.1727299690,-0.1712804362,-0.0991499023,0.0620424805,8.4490712483,-0.4046579997,-5.5419921875
0.1754269600,-0.1712804362,-0.0991499023,0.0620424805,9.2425282796,-0.6182810466,-5.7556152344
0.1781167984,-0.1712804362,-0.0991499023,0.0620424805,9.2425282796,-0.6182810466,-5.7556152344
0.1807949543,-0.1659093425,-0.0888959960,0.0566713867,10.2801259359,-0.6335398356,-5.8166503907
0.1833717823,-0.1659093425,-0.0888959960,0.0566713867,10.2801259359,-0.6335398356,-5.8166503907
0.1859459877,-0.1659093425,-0.0888959960,0.0566713867,10.3716786702,-0.8013865153,-6.2591552735
0.1885848045,-0.1659093425,-0.0888959960,0.0537416993,10.3716786702,-0.8013865153,-6.2591552735
0.1912930012,-0.1424718425,-0.1011030273,0.0537416993,10.5090077718,-1.2286326091,-6.9152832032
0.1939969063,-0.1424718425,-0.1011030273,0.0537416993,10.5090077718,-1.2286326091,-6.9152832032
0.1966948509,-0.1424718425,-0.1011030273,0.0537416993,10.1275380452,-1.5032908122,-7.7087402344
0.1994178295,-0.1361241862,-0.0879194336,0.0527651367,10.1275380452,-1.5032908122,-7.7087402344
0.2021129131,-0.1361241862,-0.0879194336,0.0527651367,9.8681386312,-1.7626902263,-8.3343505860
0.2048130035,-0.1361241862,-0.0879194336,0.0527651367,9.8681386312,-1.7626902263,-8.3343505860
0.2075238228,-0.1361241862,-0.0879194336,0.0527651367,8.9678700765,-1.3201853434,-8.4411621094
0.2102220058,-0.1468663737,-0.0952436523,0.0576479493,8.9678700765,-1.3201853434,-8.4411621094
0.2129259109,-0.1468663737,-0.0952436523,0.0576479493,8.9678700765,-1.1828562419,-8.6090087891
0.2156248093,-0.1468663737,-0.0952436523,0.0576479493,8.4032948812,-1.1828562419,-8.6090087891
0.2183330059,-0.1468663737,-0.0952436523,0.0576479493,8.4032948812,-1.0607859294,-9.2956542969
0.2210309505,-0.1449132487,-0.0932905273,0.0674135743,7.9150136312,-1.0607859294,-9.2956542969
0.2237339020,-0.1449132487,-0.0932905273,0.0674135743,7.9150136312,-0.9234568278,-10.6384277344
0.2264349461,-0.1449132487,-0.0932905273,0.0674135743,7.2131093343,-0.9234568278,-10.6384277344
0.2290728092,-0.1449132487,-0.0932905273,0.0625307617,7.2131093343,-0.9997507731,-11.1419677735
0.2316398621,-0.1541905925,-0.0932905273,0.0625307617,6.8926747640,-0.9997507731,-11.1419677735
0.2342119217,-0.1541905925,-0.0932905273,0.0625307617,6.8926747640,-0.9997507731,-11.8133544922
0.2367818356,-0.1541905925,-0.0932905273,0.0625307617,7.0300038655,-1.3201853434,-11.8133544922
0.2394518852,-0.1541905925,-0.1128217773,0.0596010743,7.0300038655,-1.3201853434,-12.5457763672
0.2421569824,-0.1580968425,-0.1128217773,0.0596010743,6.7858632405,-1.1370798747,-12.5457763672
0.2449629307,-0.1580968425,-0.1128217773,0.0596010743,6.7858632405,-1.1370798747,-12.8662109375
0.2477049828,-0.1580968425,-0.1128217773,0.0596010743,6.0229237874,-0.5572458903,-12.8662109375
0.2504029274,-0.1776280925,-0.1181928710,0.0591127930,6.0229237874,-0.5572458903,-13.2324218750
0.2530968189,-0.1776280925,-0.1181928710,0.0591127930,5.0463612874,-0.2520701091,-13.2324218750
0.2557959557,-0.1776280925,-0.1181928710,0.0591127930,5.0463612874,-0.2520701091,-12.8967285157
0.2585089207,-0.1776280925,-0.1181928710,0.0591127930,4.6496327718,0.1599171956,-12.8967285157
0.2612028122,-0.1644444987,-0.1216108398,0.0596010743,4.6496327718,0.1599171956,-12.8356933594
0.2638998032,-0.1644444987,-0.1216108398,0.0596010743,3.8256581624,0.1751759847,-12.8356933594
0.2665917873,-0.1644444987,-0.1216108398,0.0596010743,3.8256581624,0.1751759847,-12.6068115235
0.2693259716,-0.1644444987,-0.1216108398,0.0517885743,2.8796132405,-0.2062937419,-12.6068115235
0.2720308304,-0.1703038737,-0.1250288086,0.0517885743,2.8796132405,-0.2062937419,-12.5000000000
0.2747259140,-0.1703038737,-0.1250288086,0.0517885743,3.1847890218,-0.0842234294,-12.5000000000
0.2774307728,-0.1703038737,-0.1250288086,0.0517885743,3.1847890218,-0.0842234294,-12.5000000000
0.2799928188,-0.1703038737,-0.1128217773,0.0410463867,3.3526357015,-0.3283640544,-12.3016357422
0.2825570107,-0.1551671549,-0.1128217773,0.0410463867,3.3526357015,-0.3283640544,-12.3016357422
0.2851269245,-0.1551671549,-0.1128217773,0.0410463867,3.7646230062,-0.5419871013,-12.4084472657
0.2877399921,-0.1551671549,-0.1128217773,0.0410463867,3.7646230062,-0.5419871013,-12.4084472657
0.2904379368,-0.1478429362,-0.1108686523,0.0366518555,3.7341054280,-0.8166453044,-12.4847412110
0.2931399345,-0.1478429362,-0.1108686523,0.0366518555,3.7341054280,-0.8166453044,-12.4847412110
0.2958319187,-0.1478429362,-0.1108686523,0.0366518555,4.3291982015,-1.1523386638,-12.8051757813
0.2985467911,-0.1478429362,-0.1108686523,0.0366518555,4.3291982015,-1.1523386638,-12.8051757813
0.3012409210,-0.1468663737,-0.1108686523,0.0532534180,4.3291982015,-1.2591501872,-13.2324218750
0.3039388657,-0.1468663737,-0.1108686523,0.0532534180,4.3291982015,-1.2591501872,-13.2324218750
0.3066368103,-0.1468663737,-0.1108686523,0.0532534180,3.9629872640,-1.3507029216,-13.4918212891
0.3094489574,-0.1468663737,-0.1108686523,0.0449526367,3.9629872640,-1.3507029216,-13.4918212891
0.3121428490,-0.1468663737,-0.1040327148,0.0449526367,3.7341054280,-1.6406199138,-13.3697509766
0.3148438931,-0.1468663737,-0.1040327148,0.0449526367,3.7341054280,-1.6406199138,-13.3697509766
0.3175468445,-0.1468663737,-0.1040327148,0.0449526367,3.7798817952,-1.5338083903,-13.3697509766
0.3202488422,-0.1468663737,-0.1089155273,0.0757143555,3.7798817952,-1.5338083903,-13.3697509766
0.3229458332,-0.1424718425,-0.1089155273,0.0757143555,3.9782460530,-1.6406199138,-13.6291503907
0.3256409168,-0.1424718425,-0.1089155273,0.0757143555,3.9782460530,-1.6406199138,-13.6291503907
0.3283178806,-0.1424718425,-0.1089155273,0.0757143555,4.9242909749,-1.8237253825,-14.1021728516
0.3308789730,-0.1419835612,-0.1118452148,0.0796206055,4.9242909749,-1.8237253825,-14.1021728516
0.3334419727,-0.1419835612,-0.1118452148,0.0796206055,5.8703358968,-1.7626902263,-14.1021728516
0.3360137939,-0.1419835612,-0.1118452148,0.0796206055,5.8703358968,-1.7626902263,-14.1021728516
0.3386409283,-0.1419835612,-0.1118452148,0.0796206055,6.7400868733,-1.5795847575,-14.4378662110
0.3413448334,-0.1405187175,-0.1372358398,0.0776674805,6.7400868733,-1.5795847575,-14.4378662110
0.3440449238,-0.1405187175,-0.1372358398,0.0776674805,6.2975819905,-1.2286326091,-14.7735595703
0.3467428684,-0.1405187175,-0.1372358398,0.0776674805,6.2975819905,-1.2286326091,-14.7735595703
0.3494439125,-0.1405187175,-0.1372358398,0.0776674805,5.5346425374,-0.8166453044,-14.0869140625
0.3521389961,-0.1532140299,-0.1523725586,0.0845034180,5.5346425374,-0.8166453044,-14.0869140625
0.3548338413,-0.1532140299,-0.1523725586,0.0845034180,4.4360097249,-0.7708689372,-13.7817382813
0.3575429916,-0.1532140299,-0.1523725586,0.0845034180,4.4360097249,-0.7708689372,-13.7817382813
0.3602428436,-0.1532140299,-0.1523725586,0.0742495117,3.6883290609,-0.5572458903,-13.7359619141
0.3629469872,-0.1600499675,-0.1401655273,0.0742495117,3.6883290609,-0.5572458903,-13.7359619141
0.3656468391,-0.1600499675,-0.1401655273,0.0742495117,3.1542714437,-0.3893992106,-13.5070800782
0.3683569431,-0.1600499675,-0.1401655273,0.0742495117,3.1542714437,-0.3893992106,-13.5070800782
0.3710589409,-0.1683507487,-0.1372358398,0.0635073243,2.1014149983,0.1446584066,-13.3087158203
0.3738548756,-0.1683507487,-0.1372358398,0.0635073243,2.1014149983,0.1446584066,-13.3087158203
0.3765537739,-0.1683507487,-0.1372358398,0.0635073243,1.4605458577,0.1599171956,-13.4765625000
0.3791699409,-0.1683507487,-0.1372358398,0.0635073243,1.4605458577,0.1599171956,-13.4765625000
0.3817348480,-0.1624913737,-0.1201459960,0.0386049805,1.4605458577,-0.1757761638,-13.7969970703
0.3843028545,-0.1624913737,-0.1201459960,0.0386049805,1.3995107015,-0.1757761638,-13.7969970703
0.3868708611,-0.1624913737,-0.1201459960,0.0386049805,1.3995107015,-0.3283640544,-13.5528564453
0.3895628452,-0.1624913737,-0.1201459960,0.0386049805,1.2011464437,-0.3283640544,-13.5528564453
0.3922619820,-0.1585851237,-0.1206342773,0.0259096680,1.2011464437,-0.3283640544,-13.4155273438
0.3949568272,-0.1585851237,-0.1206342773,0.0259096680,1.8267567952,-0.5419871013,-13.4155273438
0.3976979256,-0.1585851237,-0.1206342773,0.0259096680,1.8267567952,-0.5419871013,-13.0035400391
0.4004008770,-0.1585851237,-0.1206342773,0.0337221680,1.7657216390,-0.5419871013,-13.0035400391
0.4030969143,-0.1717687175,-0.1338178710,0.0337221680,1.7657216390,-0.5419871013,-12.8051757813
0.4057939053,-0.1717687175,-0.1338178710,0.0337221680,1.7962392171,-0.4809519450,-12.8051757813
0.4085049629,-0.1717687175,-0.1338178710,0.0337221680,1.7962392171,-0.4809519450,-12.9272460938
0.4112029076,-0.1717687175,-0.1328413086,0.0508120117,1.8725331624,-0.7708689372,-12.9272460938
0.4139029980,-0.1703038737,-0.1328413086,0.0508120117,1.8725331624,-0.7708689372,-12.6678466797
0.4165968895,-0.1703038737,-0.1328413086,0.0508120117,2.0861562093,-0.6640574138,-12.6678466797
0.4193339348,-0.1703038737,-0.1328413086,0.0508120117,2.0861562093,-0.6640574138,-12.3016357422
0.4220378399,-0.1815343425,-0.1352827148,0.0552065430,1.8877919515,-0.3131052653,-12.3016357422
0.4247338772,-0.1815343425,-0.1352827148,0.0552065430,1.8877919515,-0.3131052653,-12.4542236329
0.4274458885,-0.1815343425,-0.1352827148,0.0552065430,1.3689931233,-0.1757761638,-12.4542236329
0.4300088882,-0.1815343425,-0.1352827148,0.0552065430,1.3689931233,-0.1757761638,-12.0422363282
0.4325718880,-0.1703038737,-0.1474897460,0.0459291993,1.4452870687,0.2209523519,-12.0422363282
0.4351358414,-0.1703038737,-0.1474897460,0.0459291993,1.4452870687,0.2209523519,-12.0422363282
0.4377648830,-0.1703038737,-0.1474897460,0.0459291993,1.6436513265,0.2362111409,-11.4013671875
0.4405620098,-0.1703038737,-0.1474897460,0.0459291993,1.6436513265,0.2362111409,-11.4013671875
0.4432609081,-0.1751866862,-0.1606733398,0.0649721680,1.7046864827,0.2362111409,-10.8673095703
0.4459569454,-0.1751866862,-0.1606733398,0.0649721680,1.7046864827,0.2362111409,-10.8673095703
0.4486939907,-0.1751866862,-0.1606733398,0.0649721680,2.1014149983,0.5413869222,-10.4705810547
0.4513909817,-0.1751866862,-0.1572553710,0.0571596680,2.1014149983,0.5413869222,-10.4705810547
0.4540879726,-0.1800694987,-0.1572553710,0.0571596680,1.6894276937,0.4345753987,-9.9212646485
0.4567868710,-0.1800694987,-0.1572553710,0.0571596680,1.6894276937,0.4345753987,-9.9212646485
0.4595279694,-0.1800694987,-0.1572553710,0.0571596680,1.6131337483,0.8618214925,-9.7229003907
0.4622168541,-0.1815343425,-0.1509077148,0.0654604493,1.6131337483,0.8618214925,-9.7229003907
0.4649128914,-0.1815343425,-0.1509077148,0.0654604493,1.5673573812,1.0907033284,-9.8602294922
0.4676609039,-0.1815343425,-0.1509077148,0.0654604493,1.5673573812,1.0907033284,-9.8602294922
0.4703669548,-0.1815343425,-0.1509077148,0.0654604493,1.4605458577,1.2890675862,-9.9517822266
0.4730589390,-0.1864171549,-0.1303999023,0.0517885743,1.4605458577,1.2890675862,-9.9517822266
0.4757518768,-0.1864171549,-0.1303999023,0.0517885743,1.8114980062,1.5179494222,-9.9670410157
0.4784507751,-0.1864171549,-0.1303999023,0.0517885743,1.8114980062,1.5179494222,-9.9670410157
0.4810137749,-0.1864171549,-0.1303999023,0.0517885743,2.5591786702,1.4263966878,-9.9975585938
0.4835748672,-0.1766515299,-0.1313764648,0.0493471680,2.5591786702,1.4263966878,-9.9975585938
0.4861459732,-0.1766515299,-0.1313764648,0.0493471680,2.8643544515,1.3653615316,-9.7991943360
0.4887969494,-0.1766515299,-0.1313764648,0.0493471680,2.8643544515,1.3653615316,-9.7991943360
0.4915049076,-0.1766515299,-0.1313764648,0.0498354493,3.2153065999,1.3195851644,-10.0738525391
0.4941918850,-0.1590734049,-0.1264936523,0.0498354493,3.2153065999,1.3195851644,-10.0738525391
0.4968829155,-0.1590734049,-0.1264936523,0.0498354493,3.7798817952,1.3348439534,-10.8520507813
0.4995899200,-0.1590734049,-0.1264936523,0.0498354493,3.7798817952,1.3348439534,-10.8520507813
0.5022828579,-0.1590734049,-0.1406538086,0.0576479493,4.4970448812,1.6552785237,-10.3332519532
0.5050828457,-0.1683507487,-0.1406538086,0.0576479493,4.4970448812,1.6552785237,-10.3332519532
0.5077939034,-0.1683507487,-0.1406538086,0.0576479493,4.9090321859,1.5789845784,-10.0280761719
0.5104839802,-0.1683507487,-0.1406538086,0.0576479493,4.9090321859,1.5789845784,-10.0280761719
0.5131819248,-0.1580968425,-0.1426069336,0.0473940430,4.9242909749,1.4263966878,-9.9212646485
0.5158770084,-0.1580968425,-0.1426069336,0.0473940430,4.9242909749,1.4263966878,-9.9212646485
0.5185828209,-0.1580968425,-0.1426069336,0.0473940430,4.3902333577,1.1212209066,-9.7686767579
0.5212798119,-0.1580968425,-0.1426069336,0.0473940430,4.3902333577,1.1212209066,-9.7686767579
0.5239729881,-0.1610265299,-0.1377241210,0.0513002930,4.6191151937,1.0754445394,-9.9212646485
0.5266649723,-0.1610265299,-0.1377241210,0.0513002930,4.6191151937,1.0754445394,-9.9212646485
0.5292878151,-0.1610265299,-0.1377241210,0.0513002930,5.2752431233,1.1212209066,-9.8297119141
0.5318508148,-0.1610265299,-0.1377241210,0.0464174805,5.2752431233,1.1212209066,-9.8297119141
0.5344197750,-0.1634679362,-0.1479780273,0.0464174805,5.5346425374,1.0296681722,-10.1196289063
0.5369858742,-0.1634679362,-0.1479780273,0.0464174805,5.5346425374,1.0296681722,-10.1196289063
0.5397047997,-0.1634679362,-0.1479780273,0.0464174805,5.0311024983,1.1517384847,-9.8602294922
0.5424017906,-0.1634679362,-0.1450483398,0.0425112305,5.0311024983,1.1517384847,-9.8602294922
0.5450909138,-0.1683507487,-0.1450483398,0.0425112305,4.6496327718,1.5789845784,-9.4329833985
0.5477948189,-0.1683507487,-0.1450483398,0.0425112305,4.6496327718,1.5789845784,-9.4329833985
0.5505008698,-0.1683507487,-0.1450483398,0.0425112305,4.3749745687,1.3958791097,-9.1278076172
0.5532009602,-0.1712804362,-0.1499311523,0.0439760743,4.3749745687,1.3958791097,-9.1278076172
0.5558969975,-0.1712804362,-0.1499311523,0.0439760743,4.3749745687,1.4569142659,-9.0515136719
0.5586040020,-0.1712804362,-0.1499311523,0.0439760743,4.5275624593,1.4569142659,-9.0515136719
0.5612988472,-0.1712804362,-0.1499311523,0.0439760743,4.5275624593,1.2738087972,-9.3261718750
0.5639958382,-0.1742101237,-0.1548139648,0.0591127930,4.8632558187,1.2738087972,-9.3261718750
0.5666887760,-0.1742101237,-0.1548139648,0.0591127930,4.8632558187,1.2585500081,-9.0820312500
0.5694038868,-0.1742101237,-0.1548139648,0.0591127930,4.9090321859,1.2585500081,-9.0820312500
0.5719769001,-0.1742101237,-0.1548139648,0.0591127930,4.9090321859,1.2585500081,-9.2041015625
0.5745379925,-0.1746984049,-0.1494428710,0.0542299805,5.3362782796,1.0754445394,-9.2041015625
0.5771069527,-0.1746984049,-0.1494428710,0.0542299805,5.3362782796,1.0754445394,-9.3109130860
0.5798029900,-0.1746984049,-0.1494428710,0.0542299805,5.2905019124,1.2585500081,-9.3109130860
0.5824959278,-0.1746984049,-0.1494428710,0.0517885743,5.2905019124,1.2585500081,-9.8144531250
0.5851929188,-0.1605382487,-0.1387006836,0.0517885743,4.5580800374,1.4721730550,-9.8144531250
0.5879290104,-0.1605382487,-0.1387006836,0.0517885743,4.5580800374,1.4721730550,-10.0433349610
0.5906248093,-0.1605382487,-0.1387006836,0.0517885743,4.4817860921,2.0062306722,-10.0433349610
0.5933299065,-0.1610265299,-0.1323530273,0.0342104493,4.4817860921,2.0062306722,-10.1654052735
0.5960268974,-0.1610265299,-0.1323530273,0.0342104493,4.5123036702,1.9451955159,-10.1654052735
0.5987379551,-0.1610265299,-0.1323530273,0.0342104493,4.5123036702,1.9451955159,-10.3637695313
0.6014318466,-0.1610265299,-0.1323530273,0.0342104493,4.7869618733,1.8536427816,-10.3637695313
0.6041347980,-0.1610265299,-0.1294233398,0.0434877930,4.7869618733,1.8536427816,-10.5010986329
0.6068408489,-0.1610265299,-0.1294233398,0.0434877930,4.5885976155,1.7468312581,-10.5010986329
0.6095449924,-0.1610265299,-0.1294233398,0.0434877930,4.5885976155,1.7468312581,-10.0280761719
0.6122398376,-0.1610265299,-0.1294233398,0.0434877930,4.5123036702,1.9451955159,-10.0280761719
0.6149427891,-0.1595616862,-0.1382124023,0.0434877930,4.5123036702,1.9451955159,-10.0280761719
0.6176798344,-0.1595616862,-0.1382124023,0.0434877930,4.2071278890,2.1893361409,-9.4329833985
0.6202509403,-0.1595616862,-0.1382124023,0.0434877930,4.2071278890,2.1893361409,-9.4329833985
0.6228189468,-0.1595616862,-0.1382124023,0.0639956055,3.4289296468,2.5097707112,-9.1430664063
0.6253869534,-0.1541905925,-0.1767866210,0.0639956055,3.4289296468,2.5097707112,-9.1430664063
0.6279678345,-0.1541905925,-0.1767866210,0.0639956055,2.9559071859,2.4639943440,-9.2803955079
0.6305329800,-0.1541905925,-0.1767866210,0.0639956055,2.9559071859,2.4639943440,-9.2803955079
0.6331968307,-0.1541905925,-0.1450483398,0.0747377930,2.6812489827,2.6470998128,-9.1125488282
0.6357638836,-0.1673741862,-0.1450483398,0.0747377930,2.6812489827,2.6470998128,-9.1125488282
0.6385278702,-0.1673741862,-0.1450483398,0.0747377930,2.7880605062,2.7844289144,-9.2498779297
0.6410918236,-0.1673741862,-0.1450483398,0.0747377930,2.7880605062,2.7844289144,-9.2498779297
0.6436519623,-0.1673741862,-0.1430952148,0.0566713867,3.5967763265,3.2421925862,-9.4787597657
0.6462140083,-0.1693273112,-0.1430952148,0.0566713867,3.5967763265,3.2421925862,-9.4787597657
0.6487839222,-0.1693273112,-0.1430952148,0.0566713867,3.5967763265,3.1506398519,-9.5397949219
0.6513438225,-0.1693273112,-0.1430952148,0.0566713867,3.5967763265,3.1506398519,-9.5397949219
0.6539099216,-0.1703038737,-0.1596967773,0.0547182617,3.5967763265,2.9675343831,-9.2346191407
0.6564719677,-0.1703038737,-0.1596967773,0.0547182617,3.9019521077,2.9675343831,-9.2346191407
0.6590709686,-0.1703038737,-0.1596967773,0.0547182617,3.9019521077,6.8737843831,-9.0820312500
0.6616299152,-0.1703038737,-0.1596967773,0.0547182617,3.6120351155,3.3032277425,-9.0820312500
0.6641919613,-0.1663976237,-0.1484663086,0.0449526367,3.6120351155,3.3032277425,-9.2041015625
0.6667478085,-0.1663976237,-0.1484663086,0.0449526367,3.4899648030,3.2574513753,-9.2041015625
0.6693189144,-0.1663976237,-0.1484663086,0.0449526367,3.4899648030,3.2574513753,-9.2041015625
0.6718769073,-0.1663976237,-0.1484663086,0.0449526367,3.5357411702,3.1658986409,-9.3261718750
0.6744379997,-0.1663976237,-0.1382124023,0.0371401367,3.5357411702,3.1658986409,-9.3261718750
0.6770029068,-0.1663976237,-0.1382124023,0.0371401367,3.6272939046,3.6694386800,-9.4177246094
0.6797327995,-0.1663976237,-0.1382124023,0.0371401367,3.6272939046,3.6694386800,-9.4177246094
0.6824319363,-0.1663976237,-0.1382124023,0.0371401367,3.2000478109,3.3032277425,-9.4635009766
0.6851258278,-0.1576085612,-0.1435834960,0.0249331055,3.2000478109,3.3032277425,-9.4635009766
0.6878237724,-0.1576085612,-0.1435834960,0.0249331055,3.4289296468,3.3184865316,-9.7381591797
0.6905260086,-0.1576085612,-0.1435834960,0.0249331055,3.4289296468,3.3184865316,-9.7381591797
0.6932239532,-0.1576085612,-0.1435834960,0.0249331055,3.3984120687,3.0438283284,-9.6618652344
0.6960229874,-0.1620030925,-0.1377241210,0.0322573243,3.3984120687,3.0438283284,-9.6618652344
0.6987369061,-0.1620030925,-0.1377241210,0.0322573243,2.9101308187,2.9675343831,-9.6160888672
0.7014338970,-0.1620030925,-0.1377241210,0.0322573243,2.9101308187,2.9675343831,-9.6160888672
0.7041318417,-0.1620030925,-0.1416303710,0.0317690430,2.7728017171,2.7386525472,-9.4177246094
0.7068247795,-0.1649327799,-0.1416303710,0.0317690430,2.7728017171,2.7386525472,-9.4177246094
0.7095339298,-0.1649327799,-0.1416303710,0.0317690430,2.9711659749,2.3571828206,-9.6771240235
0.7122378349,-0.1649327799,-0.1416303710,0.0317690430,2.9711659749,2.3571828206,-9.6771240235
0.7149288654,-0.1561437175,-0.1264936523,0.0361635743,2.9101308187,2.0214894612,-9.7839355469
0.7176678181,-0.1561437175,-0.1264936523,0.0361635743,2.9101308187,2.0214894612,-9.7839355469
0.7202379704,-0.1561437175,-0.1264936523,0.0361635743,2.6659901937,2.6318410237,-10.5773925782
0.7228047848,-0.1561437175,-0.1264936523,0.0361635743,2.6659901937,2.6318410237,-10.5773925782
0.7253708839,-0.1615148112,-0.1416303710,0.0415346680,2.8796132405,2.0672658284,-10.8978271485
0.7279779911,-0.1615148112,-0.1416303710,0.0415346680,2.8796132405,2.0672658284,-10.8978271485
0.7306709290,-0.1615148112,-0.1416303710,0.0415346680,3.0169423421,2.4029591878,-10.8520507813
0.7333698273,-0.1615148112,-0.1416303710,0.0415346680,3.0169423421,2.4029591878,-10.8520507813
0.7360618114,-0.1751866862,-0.1543256836,0.0532534180,2.1929677327,3.0590871175,-10.3637695313
0.7387628555,-0.1751866862,-0.1543256836,0.0532534180,2.1929677327,3.0590871175,-10.3637695313
0.7414658070,-0.1751866862,-0.1543256836,0.0532534180,1.4300282796,2.5250295003,-10.3027343750
0.7441618443,-0.1751866862,-0.1543256836,0.0591127930,1.4300282796,2.5250295003,-10.3027343750
0.7468619347,-0.1624913737,-0.1748334960,0.0591127930,0.2856190999,2.7996877034,-10.4858398438
0.7495629787,-0.1624913737,-0.1748334960,0.0591127930,0.2856190999,2.7996877034,-10.4858398438
0.7522568703,-0.1624913737,-0.1748334960,0.0591127930,-1.0113779704,3.7609914144,-10.3485107422
0.7549598217,-0.1776280925,-0.1870405273,0.0351870117,-1.0113779704,3.7609914144,-10.3485107422
0.7576987743,-0.1776280925,-0.1870405273,0.0351870117,-2.3999277751,3.8678029378,-9.8449707032
0.7604949474,-0.1776280925,-0.1870405273,0.0351870117,-2.3999277751,3.8678029378,-9.8449707032
0.7631969452,-0.1776280925,-0.1870405273,0.0351870117,-3.4527842204,3.6694386800,-10.1348876953
0.7658908367,-0.1771398112,-0.1264936523,0.0327456055,-3.4527842204,3.6694386800,-10.1348876953
0.7685539722,-0.1771398112,-0.1264936523,0.0327456055,-3.7427012126,3.4100392659,-11.0961914063
0.7711148262,-0.1771398112,-0.1264936523,0.0327456055,-3.7427012126,3.4100392659,-11.0961914063
0.7736759186,-0.1771398112,-0.1264936523,0.0327456055,-3.7427012126,3.6084035237,-12.4847412110
0.7762429714,-0.1654210612,-0.1245405273,0.0156557617,-3.6969248454,3.6084035237,-12.4847412110
0.7789218426,-0.1654210612,-0.1245405273,0.0156557617,-3.6969248454,3.8983205159,-13.3544921875
0.7816188335,-0.1654210612,-0.1245405273,0.0156557617,-3.9563242595,3.8983205159,-13.3544921875
0.7843198776,-0.1654210612,-0.1245405273,0.0249331055,-3.9563242595,3.8220265706,-14.0106201172
0.7870099545,-0.1673741862,-0.1313764648,0.0249331055,-4.7345225017,3.8220265706,-14.0106201172
0.7897219658,-0.1673741862,-0.1313764648,0.0249331055,-4.7345225017,3.5321095784,-14.5141601563
0.7924218178,-0.1673741862,-0.1313764648,0.0249331055,-5.1159922282,3.5321095784,-14.5141601563
0.7951118946,-0.1673741862,-0.1260053710,0.0171206055,-5.1159922282,3.5321095784,-15.6738281250
0.7978258133,-0.1663976237,-0.1260053710,0.0171206055,-5.5432383220,3.4863332112,-15.6738281250
0.8005299568,-0.1663976237,-0.1260053710,0.0171206055,-5.5432383220,3.4863332112,-16.6961669922
0.8032379150,-0.1663976237,-0.1260053710,0.0171206055,-5.2075449626,3.1964162190,-16.6961669922
0.8059408665,-0.1717687175,-0.1181928710,0.0254213867,-5.2075449626,-0.7098337810,-17.3370361329
0.8085918427,-0.1717687175,-0.1181928710,0.0254213867,-4.0631357829,3.0438283284,-17.3370361329
0.8111658096,-0.1717687175,-0.1181928710,0.0254213867,-4.0631357829,3.0438283284,-18.8018798829
0.8137369156,-0.1717687175,-0.1181928710,0.0254213867,-1.7132822673,2.9522755940,-18.8018798829
0.8163089752,-0.1659093425,-0.1118452148,0.0298159180,-1.7132822673,2.9522755940,-18.8018798829
0.8189687729,-0.1659093425,-0.1118452148,0.0298159180,-0.5230967204,1.9299367269,-19.9310302735
0.8216738701,-0.1659093425,-0.1118452148,0.0298159180,-0.5230967204,1.9299367269,-23.8372802735
0.8244819641,-0.1659093425,-0.1118452148,0.0298159180,0.7128651937,0.8923390706,-20.8312988282
0.8271918297,-0.1546788737,-0.1084272460,0.0093081055,0.7128651937,0.8923390706,-20.8312988282
0.8299329281,-0.1546788737,-0.1084272460,0.0093081055,2.0556386312,0.7244923909,-21.8078613282
0.8325588703,-0.1546788737,-0.1084272460,0.0093081055,2.0556386312,0.7244923909,-21.8078613282
0.8351287842,-0.1546788737,-0.1084272460,0.0156557617,2.8490956624,0.7855275472,-22.6623535157
0.8378889561,-0.1478429362,-0.1191694336,0.0156557617,2.8490956624,0.7855275472,-22.6623535157
0.8405518532,-0.1478429362,-0.1191694336,0.0156557617,3.0322011312,0.6787160237,-23.5778808594
0.8433330059,-0.1478429362,-0.1191694336,0.0156557617,3.0322011312,0.6787160237,-23.5778808594
0.8460137844,-0.1659093425,-0.1367475586,0.0283510743,2.2692616780,0.6481984456,-24.3255615235
0.8498909473,-0.1659093425,-0.1367475586,0.0283510743,2.2692616780,0.7855275472,-25.0274658203
0.8524589539,-0.1659093425,-0.1367475586,0.0283510743,1.4300282796,0.7855275472,-25.0274658203
0.8550357819,-0.1659093425,-0.1367475586,0.0376284180,1.4300282796,0.7855275472,-25.4394531250
0.8576838970,-0.1639562175,-0.1645795898,0.0376284180,-0.7977549235,0.8770802816,-25.4394531250
0.8602588177,-0.1639562175,-0.1645795898,0.0376284180,-0.7977549235,0.8770802816,-26.5838623047
0.8628268242,-0.1639562175,-0.1645795898,0.0376284180,-2.0947519938,1.3195851644,-26.5838623047
0.8653969765,-0.1639562175,-0.1645795898,0.0503237305,-2.0947519938,1.3195851644,-26.5838623047
0.8679749966,-0.1742101237,-0.1675092773,0.0503237305,-3.7427012126,1.6552785237,-27.3773193360
0.8705399036,-0.1742101237,-0.1675092773,0.0503237305,-3.7427012126,1.6552785237,-27.3773193360
0.8731079102,-0.1742101237,-0.1675092773,0.0503237305,-6.1841074626,1.6552785237,-27.9724121094
0.8756837845,-0.1742101237,-0.1772749023,0.0498354493,-6.1841074626,1.6552785237,-27.9724121094
0.8782968521,-0.1634679362,-0.1772749023,0.0498354493,-9.0985361735,1.4111378987,-27.9418945313
0.8808698654,-0.1634679362,-0.1772749023,0.0498354493,-9.0985361735,1.4111378987,-27.9418945313
0.8834388256,-0.1634679362,-0.1772749023,0.0498354493,-11.6314951579,1.8383839925,-28.3386230469
0.8860049248,-0.1634679362,-0.1968061523,0.0610659180,-11.6314951579,1.8383839925,-28.3386230469
0.8886928558,-0.1761632487,-0.1968061523,0.0610659180,-14.3933359782,2.7539113362,-28.2775878907
0.8912689686,-0.1761632487,-0.1968061523,0.0610659180,-14.3933359782,2.7539113362,-28.2775878907
0.8938369751,-0.1761632487,-0.1968061523,0.0610659180,-15.7971445720,2.9675343831,-27.8656005860
0.8964128494,-0.1800694987,-0.1723920898,0.0542299805,-15.7971445720,2.9675343831,-27.8656005860
0.8991777897,-0.1800694987,-0.1723920898,0.0542299805,-13.2184092204,3.0438283284,-28.3691406250
0.9017620087,-0.1800694987,-0.1723920898,0.0542299805,-13.2184092204,3.0438283284,-28.3691406250
0.9043359756,-0.1800694987,-0.1723920898,0.0542299805,-9.3121592204,3.4710744222,-29.4219970703
0.9069058895,-0.2044835612,-0.1787397460,0.0185854493,-9.1137949626,3.4710744222,-29.4219970703
0.9096188545,-0.2044835612,-0.1787397460,0.0185854493,-9.1137949626,3.0590871175,-29.8797607422
0.9121909142,-0.2044835612,-0.1787397460,0.0185854493,-5.8941904704,3.0590871175,-29.8797607422
0.9147558212,-0.2044835612,-0.1787397460,0.0185854493,-5.8941904704,3.0590871175,-30.1696777344
0.9173319340,-0.2079015299,-0.1753217773,0.0024721680,-3.1781260173,2.8302052816,-30.1696777344
0.9200367928,-0.2079015299,-0.1753217773,0.0024721680,-3.1781260173,2.8302052816,-30.1239013672
0.9227378368,-0.2079015299,-0.1753217773,0.0024721680,-0.9808603923,2.7386525472,-30.1239013672
0.9254357815,-0.2079015299,-0.1753217773,0.0024721680,-0.9808603923,2.7386525472,-30.0323486329
0.9281527996,-0.1986241862,-0.1772749023,0.0332338867,0.4076894124,2.4792531331,-30.0323486329
0.9308559895,-0.1986241862,-0.1772749023,0.0332338867,0.4076894124,2.4792531331,-30.5358886719
0.9335508347,-0.1986241862,-0.1772749023,0.0332338867,1.5063222249,1.7926076253,-30.5358886719
0.9362459183,-0.1986241862,-0.1977827148,0.0112612305,1.5063222249,1.7926076253,-30.2612304688
0.9389629364,-0.1790929362,-0.1977827148,0.0112612305,2.2082265218,2.0367482503,-30.2612304688
0.9416627884,-0.1790929362,-0.1977827148,0.0112612305,2.2082265218,2.0367482503,-30.2154541016
0.9443669319,-0.1790929362,-0.1977827148,0.0112612305,1.3232167562,2.3266652425,-30.2154541016
0.9470667839,-0.1815343425,-0.2251264648,0.0107729493,1.3232167562,2.3266652425,-29.7882080079
0.9497809410,-0.1815343425,-0.2251264648,0.0107729493,-0.8893076579,2.8302052816,-29.7882080079
0.9526009560,-0.1815343425,-0.2251264648,0.0107729493,-0.8893076579,2.8302052816,-28.7506103516
0.9553048611,-0.1815343425,-0.2251264648,0.0107729493,-3.3154551188,3.7915089925,-28.7506103516
0.9579958916,-0.1903234049,-0.2422163086,0.0361635743,-3.3154551188,3.7915089925,-28.7506103516
0.9605658054,-0.1903234049,-0.2422163086,0.0361635743,-5.0702158610,3.7762502034,-28.7506103516
0.9631359577,-0.1903234049,-0.2422163086,0.0361635743,-5.0702158610,3.7762502034,-28.7506103516
0.9657938480,-0.1903234049,-0.2422163086,0.0361635743,-6.7486826579,4.0051320394,-28.5064697266
0.9684219360,-0.1971593425,-0.2221967773,0.0473940430,-6.7486826579,4.0051320394,-28.5064697266
0.9711267948,-0.1971593425,-0.2221967773,0.0473940430,-8.5644785563,4.5086720784,-28.1860351563
0.9738249779,-0.1971593425,-0.2221967773,0.0473940430,-8.5644785563,4.5086720784,-28.1860351563
0.9765257835,-0.1971593425,-0.2221967773,0.0600893555,-9.6478525798,4.7528127034,-28.1402587891
0.9792358875,-0.1991124675,-0.2104780273,0.0600893555,-9.6478525798,4.7528127034,-28.1402587891
0.9819428921,-0.1991124675,-0.2104780273,0.0600893555,-10.5023447673,5.0427296956,-28.2928466797
0.9846448898,-0.1991124675,-0.2104780273,0.0600893555,-10.5023447673,5.0427296956,-28.2928466797
0.9873478413,-0.1717687175,-0.2046186523,0.0586245117,-11.4941660563,5.6530812581,-28.3538818360
0.9900538921,-0.1717687175,-0.2046186523,0.0586245117,-11.4941660563,5.6530812581,-28.3538818360
0.9927568436,-0.1717687175,-0.2046186523,0.0586245117,-12.9284922282,6.1566212972,-28.5217285157
0.9954628944,-0.1717687175,-0.2046186523,0.0586245117,-12.9284922282,6.1566212972,-28.5217285157
0.9981579781,-0.1703038737,-0.2007124023,0.0615541993,-14.1186777751,6.1413625081,-28.1250000000
1.0007348061,-0.1703038737,-0.2007124023,0.0615541993,-14.1186777751,6.1413625081,-28.1250000000
1.0033109188,-0.1703038737,-0.2007124023,0.0615541993,-14.9884287517,6.5075734456,-28.8421630860
1.0058839321,-0.1703038737,-0.2007124023,0.0615541993,-14.9884287517,6.5075734456,-28.8421630860
1.0086038113,-0.1737218425,-0.1797163086,0.0508120117,-13.5083262126,6.9653371175,-30.4595947266
1.0111749172,-0.1737218425,-0.1797163086,0.0508120117,-13.5083262126,6.9653371175,-30.4595947266
1.0137457848,-0.1737218425,-0.1797163086,0.0508120117,-11.3568369548,7.9418996175,-31.6345214844
1.0164268017,-0.1737218425,-0.1797163086,0.0508120117,-11.3568369548,7.9418996175,-31.6345214844
1.0192389488,-0.1937413737,-0.1450483398,0.0112612305,-9.0222422282,8.4454396566,-32.7331542969
1.0219278336,-0.1937413737,-0.1450483398,0.0112612305,-9.0222422282,8.4454396566,-32.7331542969
1.0246109962,-0.1937413737,-0.1450483398,0.0112612305,-6.9165293376,8.8269093831,-34.8236083985
1.0272989273,-0.1937413737,-0.1391889648,0.0019838867,-6.9165293376,8.8269093831,-34.8236083985
1.0299949646,-0.1991124675,-0.1391889648,0.0019838867,-4.9176279704,8.8574269612,-36.6546630860
1.0326848030,-0.1991124675,-0.1391889648,0.0019838867,-4.9176279704,8.8574269612,-36.6546630860
1.0353739262,-0.1991124675,-0.1391889648,0.0019838867,-1.2707773845,8.8879445394,-37.9058837891
1.0381669998,-0.1912999675,-0.1484663086,0.0068666993,-1.2707773845,8.8879445394,-37.9058837891
1.0408349037,-0.1912999675,-0.1484663086,0.0068666993,2.6202138265,8.6743214925,-39.2028808594
1.0434968472,-0.1912999675,-0.1484663086,0.0068666993,2.6202138265,8.6743214925,-39.2028808594
1.0461637974,-0.1912999675,-0.1484663086,0.0068666993,5.9008534749,8.7811330159,-40.3320312500
1.0487909317,-0.2025304362,-0.1679975586,-0.0063168945,5.9008534749,8.7811330159,-40.3320312500
1.0513617992,-0.2025304362,-0.1679975586,-0.0063168945,9.8071034749,9.1931203206,-40.8355712891
1.0539379120,-0.2025304362,-0.1679975586,-0.0063168945,7.7624257405,9.1931203206,-40.8355712891
1.0565078259,-0.2025304362,-0.1679975586,-0.0063168945,7.7624257405,9.1473439534,-40.7440185547
1.0591738224,-0.1849523112,-0.1845991210,0.0010073243,9.2577870687,9.1473439534,-40.7440185547
1.0618767738,-0.1849523112,-0.1845991210,0.0010073243,9.2577870687,9.1473439534,-40.2099609375
1.0645799637,-0.1849523112,-0.1845991210,0.0010073243,11.2719472249,8.9337209066,-40.2099609375
1.0672898293,-0.1849523112,-0.3095991210,0.0010073243,11.2719472249,8.9337209066,-40.2404785157
1.0700058937,-0.1956944987,-0.2070600586,0.0010073243,12.2332509359,9.1473439534,-40.2404785157
1.0727069378,-0.1956944987,-0.2070600586,0.0010073243,12.2332509359,9.1473439534,-39.8132324219
1.0754098892,-0.1956944987,-0.2070600586,0.0010073243,12.4926503499,8.7048390706,-39.8132324219
1.0781288147,-0.2152257487,-0.2163374023,-0.0009458007,12.4926503499,8.7048390706,-39.2486572266
1.0809309483,-0.2152257487,-0.2163374023,-0.0009458007,11.1803944905,8.7658742269,-39.2486572266
1.0836338997,-0.2152257487,-0.2163374023,-0.0009458007,11.1803944905,8.7658742269,-38.4094238282
1.0863368511,-0.2152257487,-0.2163374023,-0.0009458007,8.7695058187,8.3844045003,-38.4094238282
1.0890438557,-0.2015538737,-0.2026655273,-0.0009458007,8.7695058187,8.3844045003,-37.0208740235
1.0917439461,-0.2015538737,-0.2026655273,-0.0009458007,6.2670644124,8.0639699300,-37.0208740235
1.0944468975,-0.2015538737,-0.2026655273,-0.0009458007,6.2670644124,8.0639699300,-35.0524902344
1.0971448421,-0.2015538737,-0.2026655273,-0.0009458007,3.6272939046,8.0487111409,-35.0524902344
1.0997278690,-0.2181554362,-0.2046186523,0.0176088867,3.6272939046,8.0487111409,-33.5723876953
1.1022977829,-0.2181554362,-0.2046186523,0.0176088867,2.8643544515,8.0792287190,-33.5723876953
1.1048688889,-0.2181554362,-0.2046186523,0.0176088867,2.8643544515,8.0792287190,-29.6661376953
1.1074547768,-0.2181554362,-0.2046186523,0.0263979493,1.9183095296,8.2012990316,-32.4737548829
1.1101598740,-0.2201085612,-0.2212202148,0.0263979493,1.9183095296,8.2012990316,-32.4737548829
1.1128590107,-0.2201085612,-0.2212202148,0.0263979493,0.6365712483,7.4383595784,-30.1086425782
1.1155569553,-0.2201085612,-0.2212202148,0.0263979493,0.6365712483,7.4383595784,-30.1086425782
1.1183028221,-0.2201085612,-0.2148725586,0.0371401367,0.0872548421,7.9724171956,-26.6906738282
1.1210069656,-0.2328038737,-0.2148725586,0.0371401367,0.0872548421,7.9724171956,-26.6906738282
1.1237049103,-0.2328038737,-0.2148725586,0.0371401367,-0.6299082438,8.2928517659,-22.9217529297
1.1264059544,-0.2328038737,-0.2148725586,0.0371401367,-0.6299082438,8.2928517659,-22.9217529297
1.1291148663,-0.2464757487,-0.0854780273,0.0014956055,-1.6980234782,9.8339894612,-17.1386718750
1.1318190098,-0.2464757487,-0.0854780273,0.0014956055,-1.6980234782,9.8339894612,-17.1386718750
1.1345257759,-0.2464757487,-0.0854780273,0.0014956055,-2.9034678141,11.6803029378,-7.8308105469
1.1372289658,-0.2464757487,-0.0854780273,0.0014956055,-2.9034678141,11.6803029378,-7.8308105469
1.1398179531,-0.2288976237,0.2665727540,0.0000307617,-1.8048350017,12.0312550862,1.1260986328
1.1423859596,-0.2288976237,0.2665727540,0.0000307617,-1.8048350017,12.0312550862,1.1260986328
1.1449558735,-0.2288976237,0.2665727540,0.0000307617,1.6589101155,12.1991017659,10.9527587890
1.1476988792,-0.2288976237,0.2665727540,-0.1249692383,1.6589101155,12.1991017659,10.9527587890
1.1504008770,-0.2284093425,0.5126665040,-0.0243833007,7.4572499593,12.5195363362,20.7031250000
1.1531059742,-0.2284093425,0.5126665040,-0.0243833007,7.4572499593,12.5195363362,20.7031250000
1.1558079720,-0.2284093425,0.5126665040,-0.0243833007,11.6839345296,12.0922902425,29.6905517578
1.1585237980,-0.2284093425,0.5922563477,0.0127260743,11.6839345296,12.0922902425,29.6905517578
1.1612339020,-0.2044835612,0.5922563477,0.0127260743,17.3296864827,11.7260793050,38.1744384765
1.1639339924,-0.2044835612,0.5922563477,0.0127260743,17.3296864827,11.7260793050,38.1744384765
1.1666388512,-0.2044835612,0.5922563477,0.0127260743,23.8299306233,11.0089162190,48.5656738281
1.1693568230,-0.1815343425,0.5531938477,0.0220034180,23.8299306233,11.0089162190,48.5656738281
1.1720609665,-0.1815343425,0.5531938477,0.0220034180,30.0555165609,9.7119191487,57.2326660156
1.1747698784,-0.1815343425,0.5531938477,0.0220034180,30.0555165609,9.7119191487,57.2326660156
1.1774809361,-0.1815343425,0.5531938477,0.0220034180,33.4582265218,8.7048390706,64.8315429687
1.1800568104,-0.2166905925,0.4794633790,0.0161440430,33.4582265218,8.7048390706,64.8315429687
1.1826319695,-0.2166905925,0.4794633790,0.0161440430,35.1519521077,9.4982961019,72.8881835937
1.1852059364,-0.2166905925,0.4794633790,0.0161440430,35.1519521077,9.4982961019,72.8881835937
1.1878268719,-0.2166905925,0.4794633790,0.0161440430,35.0603993733,10.5206349690,80.4260253906
1.1905319691,-0.2367101237,0.4233110352,-0.0175473633,35.0603993733,10.5206349690,80.4260253906
1.1932418346,-0.2367101237,0.4233110352,-0.0175473633,34.1601308187,10.5969289144,87.5671386718
1.1959547997,-0.2367101237,0.4233110352,-0.0175473633,34.1601308187,10.5969289144,87.5671386718
1.1986639500,-0.2367101237,0.2983110352,-0.0131528320,32.8631337483,10.8410695394,94.9218750000
1.2013750076,-0.2401280925,0.3842485352,-0.0131528320,32.8631337483,10.8410695394,94.9218750000
1.2040808201,-0.2401280925,0.3842485352,-0.0131528320,31.5356190999,11.2683156331,102.1240234375
1.2067840099,-0.2401280925,0.3842485352,-0.0131528320,31.5356190999,11.2683156331,102.1240234375
1.2095408440,-0.2523351237,0.3412797852,0.0073549805,30.1928456624,10.5664113362,107.7392578125
1.2123579979,-0.2523351237,0.3412797852,0.0073549805,30.1928456624,10.5664113362,107.7392578125
1.2150678635,-0.2523351237,0.3412797852,0.0073549805,28.2854970296,9.7729543050,112.6373291015
1.2177898884,-0.2523351237,0.3412797852,0.0073549805,28.2854970296,9.7729543050,112.6373291015
1.2204968929,-0.2625890299,0.2831743164,0.0322573243,26.1950429280,8.2012990316,116.9250488281
1.2232007980,-0.2625890299,0.2831743164,0.0322573243,26.1950429280,8.2012990316,116.9250488281
1.2258977890,-0.2625890299,0.2831743164,0.0322573243,24.5623524983,5.5462697347,120.2972412109
1.2285709381,-0.2625890299,0.2831743164,0.0322573243,24.5623524983,5.5462697347,120.2972412109
1.2311468124,-0.2845616862,0.2065141602,0.0547182617,24.4250233968,2.0214894612,121.9757080078
1.2337198257,-0.2845616862,0.2065141602,0.0547182617,24.4250233968,2.0214894612,121.9757080078
1.2362937927,-0.2845616862,0.2065141602,0.0547182617,24.4250233968,0.1904347737,122.9217529297
1.2389829159,-0.2845616862,0.0815141602,0.0420229493,24.4555409749,0.1904347737,122.9217529297
1.2416877747,-0.2621007487,0.1513383790,0.0420229493,28.3617909749,-1.7932078044,123.2574462890
1.2443959713,-0.2621007487,0.1513383790,0.0420229493,27.0342763265,-1.7932078044,123.2574462890
1.2470989227,-0.2621007487,0.1513383790,0.0420229493,27.0342763265,-4.1430613200,122.7539062500
1.2498159409,-0.2928624675,0.0326860352,0.0449526367,29.5672353109,-4.1430613200,122.7539062500
1.2525207996,-0.2928624675,0.0326860352,0.0449526367,29.5672353109,-6.6607615153,120.3430175781
1.2552249432,-0.2928624675,0.0326860352,0.0449526367,29.4756825765,-6.6607615153,120.3430175781
1.2579410076,-0.2928624675,0.0326860352,0.0449526367,29.4756825765,-7.5152537028,116.7266845703
1.2606489658,-0.2826085612,-0.0537397460,0.0303041993,29.0179189046,-7.5152537028,116.7266845703
1.2633547783,-0.2826085612,-0.0537397460,0.0303041993,29.0179189046,-7.3779246013,114.4836425781
1.2660558224,-0.2826085612,-0.0537397460,0.0303041993,31.8102773030,-7.3779246013,114.4836425781
1.2687718868,-0.2826085612,-0.0537397460,0.0303041993,31.8102773030,-7.1643015544,113.3544921875
1.2714729309,-0.2913976237,-0.0185834960,-0.0053403320,35.6860097249,-7.1643015544,113.3544921875
1.2741758823,-0.2913976237,-0.0185834960,-0.0053403320,35.6860097249,-7.1643015544,113.4918212890
1.2769868374,-0.2913976237,-0.0185834960,-0.0053403320,38.3715565999,-6.1877390544,113.4918212890
1.2796349525,-0.2913976237,-0.0220014648,-0.0087583007,38.3715565999,-6.1877390544,112.8356933593
1.2822108269,-0.2957921549,-0.0220014648,-0.0087583007,40.6756337483,-5.1654001872,112.8356933593
1.2847878933,-0.2957921549,-0.0220014648,-0.0087583007,40.6756337483,-5.1654001872,112.2711181640
1.2873618603,-0.2957921549,-0.0220014648,-0.0087583007,42.4761708577,-3.3801218669,112.2711181640
1.2900688648,-0.2957921549,-0.0835249023,-0.0331723633,42.4761708577,-3.3801218669,112.1643066406
1.2927749157,-0.3016515299,-0.0835249023,-0.0331723633,42.2625478109,-1.1981150310,112.1643066406
1.2954809666,-0.3016515299,-0.0835249023,-0.0331723633,42.2625478109,-1.1981150310,113.0035400390
1.2981967926,-0.3016515299,-0.0835249023,-0.0331723633,41.3622792562,0.3887990316,113.0035400390
1.3009028435,-0.2821202799,-0.1211225586,-0.0268247070,41.3622792562,0.3887990316,113.0035400390
1.3036057949,-0.2821202799,-0.1211225586,-0.0268247070,40.0042470296,1.8383839925,113.0798339843
1.3063089848,-0.2821202799,-0.1211225586,-0.0268247070,40.0042470296,1.8383839925,113.0798339843
1.3090260029,-0.2821202799,-0.1211225586,-0.0268247070,38.9056142171,3.1658986409,111.9964599609
1.3117299080,-0.2347569987,-0.1367475586,-0.0258481445,38.9056142171,3.1658986409,108.0902099609
1.3144288063,-0.2347569987,-0.1367475586,-0.0258481445,37.3339589437,4.9664357503,110.3485107421
1.3171339035,-0.2347569987,-0.1367475586,-0.0258481445,37.3339589437,4.9664357503,110.3485107421
1.3198459148,-0.2347569987,-0.1367475586,-0.0072934570,34.7399648030,6.7669728597,108.2733154297
1.3225519657,-0.1917882487,-0.1616499023,-0.0072934570,34.7399648030,6.7669728597,104.3670654297
1.3252558708,-0.1917882487,-0.1616499023,-0.0072934570,30.8794911702,8.4301808675,106.1065673828
1.3279528618,-0.1917882487,-0.1616499023,-0.0072934570,30.8794911702,8.4301808675,106.1065673828
1.3305268288,-0.0667882487,-0.1133100586,-0.0024106445,27.9650624593,9.5288136800,103.4820556640
1.3331038952,-0.1546788737,-0.1133100586,-0.0024106445,27.9650624593,9.5288136800,103.4820556640
1.3356809616,-0.1546788737,-0.1133100586,-0.0024106445,28.3312733968,9.9560597737,101.1322021484
1.3383429050,-0.1546788737,-0.1133100586,-0.0024106445,28.3312733968,9.9560597737,101.1322021484
1.3411629200,-0.1200109049,-0.0923139648,0.0249331055,30.1470692952,9.1168263753,98.3703613281
1.3438727856,-0.1200109049,-0.0923139648,0.0249331055,30.1470692952,9.1168263753,98.3703613281
1.3465797901,-0.1200109049,-0.0923139648,0.0249331055,30.8489735921,8.4454396566,94.5709228515
1.3493328094,-0.1200109049,-0.0923139648,0.0249331055,30.8489735921,8.4454396566,94.5709228515
1.3520388603,-0.1200109049,-0.1889936523,0.0376284180,30.3912099202,7.7740529378,90.2221679687
1.3547439575,-0.1200109049,-0.1889936523,0.0376284180,30.3912099202,7.7740529378,90.2221679687
1.3574559689,-0.1200109049,-0.1889936523,0.0376284180,28.5296376546,7.0874074300,85.7513427734
1.3601658344,-0.1200109049,-0.1889936523,0.0239565430,28.5296376546,7.0874074300,85.7513427734
1.3628699780,-0.1156163737,-0.2573530273,0.0239565430,26.4544423421,6.5075734456,80.7464599609
1.3655748367,-0.1156163737,-0.2573530273,0.0239565430,26.4544423421,6.5075734456,80.7464599609
1.3683199883,-0.1156163737,-0.2573530273,0.0239565430,24.6996815999,5.5310109456,75.7415771484
1.3710188866,-0.0912023112,-0.2720014648,0.0078432617,24.6996815999,5.5310109456,75.7415771484
1.3737227917,-0.0912023112,-0.2720014648,0.0078432617,21.6784413655,4.1424611409,70.9655761718
1.3764288425,-0.0912023112,-0.2720014648,0.0078432617,21.6784413655,4.1424611409,70.9655761718
1.3790688515,-0.0912023112,-0.2720014648,0.0078432617,19.1302235921,3.3795216878,66.7236328125
1.3816418648,-0.0536046549,-0.2842084960,-0.0024106445,19.1302235921,3.3795216878,66.7236328125
1.3842179775,-0.0536046549,-0.2842084960,-0.0024106445,15.9411366780,2.6013234456,61.6577148437
1.3867928982,-0.0536046549,-0.2842084960,-0.0024106445,15.9411366780,2.6013234456,61.6577148437
1.3895189762,-0.0536046549,-0.2842084960,-0.0024106445,13.7286122640,1.7468312581,56.3476562500
1.3922247887,-0.0326085612,-0.2763959960,0.0010073243,13.7286122640,1.7468312581,56.3476562500
1.3949267864,-0.0326085612,-0.2763959960,0.0010073243,12.4316151937,0.6787160237,50.7934570312
1.3976778984,-0.0326085612,-0.2763959960,0.0010073243,12.4316151937,0.6787160237,50.7934570312
1.4003829956,-0.0326085612,-0.2763959960,-0.0019223633,11.0125478109,-0.6945749919,45.7122802734
1.4030878544,-0.0360265299,-0.2656538086,-0.0019223633,11.0125478109,-0.6945749919,45.7122802734
1.4059019089,-0.0360265299,-0.2656538086,-0.0019223633,9.1662343343,-1.8389841716,39.6392822265
1.4086148739,-0.0360265299,-0.2656538086,-0.0019223633,9.1662343343,-1.8389841716,39.6392822265
1.4113178253,-0.0360265299,-0.2866499023,0.0185854493,6.5569814046,-2.8613230388,33.9172363281
1.4140179157,-0.0477452799,-0.2866499023,0.0185854493,6.5569814046,-2.8613230388,33.9172363281
1.4167168140,-0.0477452799,-0.2866499023,0.0185854493,4.5733388265,-3.9904734294,28.6529541015
1.4194269180,-0.0477452799,-0.2866499023,0.0185854493,4.5733388265,-3.9904734294,28.6529541015
1.4221220016,-0.0326085612,-0.1992475586,-0.0004575195,6.8468983968,-5.1654001872,24.2431640625
1.4248209000,-0.0326085612,-0.1992475586,-0.0004575195,6.8468983968,-5.1654001872,24.2431640625
1.4275338650,-0.0326085612,-0.1992475586,-0.0004575195,15.5596669515,-6.5386912028,19.5129394531
1.4301037788,-0.0326085612,-0.1992475586,-0.0004575195,15.5596669515,-6.5386912028,19.5129394531
1.4326758385,-0.0389562175,-0.1943647460,0.0259096680,23.8909657796,-9.1174265544,10.2508544921
1.4352488518,-0.0389562175,-0.1943647460,0.0259096680,23.8909657796,-9.1174265544,10.2508544921
1.4378449917,-0.0389562175,-0.1943647460,0.0259096680,23.8909657796,-11.8334910075,-0.5981445313
1.4405498505,-0.0389562175,-0.1943647460,0.0259096680,25.3252919515,-11.8334910075,-0.5981445313
1.4432449341,-0.0545812175,-0.4936811523,0.0508120117,25.3252919515,-12.9626413981,-7.2662353516
1.4459459782,-0.0545812175,-0.4936811523,0.0508120117,24.5928700765,-12.9626413981,-7.2662353516
1.4486539364,-0.0545812175,-0.4936811523,0.0508120117,24.5928700765,-13.6187693278,-11.3403320313
1.4513528347,-0.0545812175,-0.4136030273,0.0156557617,24.9133046468,-13.6187693278,-11.3403320313
1.4540569782,-0.0428624675,-0.4136030273,0.0156557617,28.8195546468,-15.3124949138,-15.9637451172
1.4567639828,-0.0428624675,-0.4136030273,0.0156557617,27.2478993733,-15.3124949138,-15.9637451172
1.4595170021,-0.0428624675,-0.4136030273,0.0156557617,31.1541493733,-17.3571726481,-23.7762451172
1.4622268677,-0.0477452799,-0.4087202148,0.0200502930,30.8794911702,-17.3571726481,-23.7762451172
1.4649357796,-0.0477452799,-0.4087202148,0.0200502930,34.7857411702,-19.7375437419,-32.9620361329
1.4676909447,-0.0477452799,-0.4087202148,0.0200502930,35.4571278890,-19.7375437419,-32.9620361329
1.4705028534,-0.0477452799,-0.4087202148,0.0200502930,39.3633778890,-20.7293650310,-42.6818847657
1.4732089043,-0.0780187175,-0.5410444336,0.0210268555,39.3481190999,-20.7293650310,-42.6818847657
1.4759149551,-0.0780187175,-0.5410444336,0.0210268555,39.3481190999,-20.9429880778,-51.4862060547
1.4785859585,-0.0780187175,-0.5410444336,0.0210268555,41.9726308187,-20.9429880778,-51.4862060547
1.4811639786,-0.0780187175,-0.5410444336,-0.1039731445,41.9726308187,-21.6601511638,-58.6425781250
1.4837357998,-0.1063390299,-0.5605756836,-0.0155942383,42.9034169515,-21.6601511638,-58.6425781250
1.4863119125,-0.1063390299,-0.5605756836,-0.0155942383,42.9034169515,-21.6601511638,-66.5466308594
1.4889688492,-0.1063390299,-0.5605756836,-0.0155942383,43.1170399983,-21.9042917888,-66.5466308594
1.4916808605,-0.1063390299,-0.5605756836,-0.0038754883,43.1170399983,-21.9042917888,-74.0539550782
1.4943928719,-0.1742101237,-0.5591108398,-0.0038754883,41.3775380452,-22.3162790934,-74.0539550782
1.4971017838,-0.1742101237,-0.5591108398,-0.0038754883,41.3775380452,-22.3162790934,-77.2277832032
1.4998219013,-0.1742101237,-0.5591108398,-0.0038754883,32.8631337483,-23.4454294841,-77.2277832032
1.5025279522,-0.2850499675,-0.2807905273,0.0132143555,32.8631337483,-23.4454294841,-77.0446777344
1.5052328110,-0.2850499675,-0.2807905273,0.0132143555,18.4435780843,-22.5299021403,-77.0446777344
1.5079488754,-0.2850499675,-0.2807905273,0.0132143555,18.4435780843,-22.5299021403,-73.0621337891
1.5106568336,-0.2850499675,-0.2807905273,0.0132143555,9.2730458577,-20.2716013591,-73.0621337891
1.5133628845,-0.3812413737,0.2660844727,0.0156557617,9.2730458577,-20.2716013591,-66.0583496094
1.5160708427,-0.3812413737,0.2660844727,0.0156557617,5.6872304280,-17.4792429606,-66.0583496094
1.5187878609,-0.3812413737,0.2660844727,0.0156557617,5.6872304280,-17.4792429606,-61.3281250000
1.5214858055,-0.3812413737,0.2660844727,-0.1093442383,3.1847890218,-15.4650828044,-61.3281250000
1.5241940022,-0.3787999675,0.2997758790,-0.0131528320,3.1847890218,-15.4650828044,-59.3902587891
1.5269019604,-0.3787999675,0.2997758790,-0.0131528320,0.9417470296,-13.6492869060,-59.3902587891
1.5295178890,-0.3787999675,0.2997758790,-0.0131528320,0.9417470296,-13.6492869060,-59.3902587891
1.5320940018,-0.3787999675,0.0497758790,-0.0282895507,-0.0653330485,-12.2149607341,-58.0017089844
1.5347747803,-0.2870030925,0.1093461914,-0.0282895507,-0.0653330485,-12.2149607341,-58.0017089844
1.5373499393,-0.2870030925,0.1093461914,-0.0282895507,0.8196767171,-11.6198679606,-57.7728271485
1.5400578976,-0.2870030925,0.1093461914,-0.0282895507,0.8196767171,-11.6198679606,-57.7728271485
1.5427639484,-0.2611241862,-0.1147749023,-0.0610043945,2.0556386312,-11.4062449138,-58.0932617188
1.5454719067,-0.2611241862,-0.1147749023,-0.0610043945,2.0556386312,-11.4062449138,-58.0932617188
1.5481848717,-0.2611241862,-0.1147749023,-0.0610043945,2.1777089437,-10.9789988200,-57.3760986329
1.5508840084,-0.2611241862,-0.1147749023,-0.0610043945,2.1777089437,-10.9789988200,-57.3760986329
1.5535848141,-0.2713780925,-0.1811811523,-0.0448911133,1.2011464437,-10.3381296794,-56.2622070313
1.5562899113,-0.2713780925,-0.1811811523,-0.0448911133,1.2011464437,-10.3381296794,-56.2622070313
1.5590038300,-0.2713780925,-0.1811811523,-0.0448911133,-1.4386240641,-8.6749216716,-54.7515869141
1.5617058277,-0.2713780925,-0.1811811523,-0.0448911133,-1.4386240641,-8.6749216716,-54.7515869141
1.5644078255,-0.2679601237,-0.1357709960,-0.0297543945,-4.0021006267,-7.2405954997,-52.7221679688
1.5671098232,-0.2679601237,-0.1357709960,-0.0297543945,-4.0021006267,-7.2405954997,-52.7221679688
1.5698199272,-0.2679601237,-0.1357709960,-0.0297543945,-6.4435068767,-7.0117136638,-50.4943847657
1.5725178719,-0.2679601237,-0.0107709960,-0.0155942383,-6.4435068767,-7.0117136638,-50.4943847657
1.5752217770,-0.2591710612,-0.0415327148,-0.0155942383,-6.9623057048,-7.1643015544,-48.8311767579
1.5779139996,-0.2591710612,-0.0415327148,-0.0155942383,-6.9623057048,-7.1643015544,-48.8311767579
1.5804867744,-0.2591710612,-0.0415327148,-0.0155942383,-6.5045420329,-7.5305124919,-48.7548828125
1.5830578804,-0.2591710612,-0.0019819336,0.0063784180,-6.5045420329,-7.5305124919,-48.7548828125
1.5856289864,-0.2411046549,-0.0019819336,0.0063784180,-5.4974619548,-7.3626658122,-48.6022949219
1.5882449150,-0.2411046549,-0.0019819336,0.0063784180,-5.4974619548,-7.3626658122,-48.6022949219
1.5909469128,-0.2411046549,-0.0019819336,0.0063784180,-4.3225351970,-7.6831003825,-48.8922119141
1.5936498642,-0.2484288737,0.0024125977,0.0049135743,-4.3225351970,-7.6831003825,-48.8922119141
1.5963509083,-0.2484288737,0.0024125977,0.0049135743,-3.7884775798,-7.9577585856,-48.2666015625
1.5991599560,-0.2484288737,0.0024125977,0.0049135743,-3.7884775798,-7.9577585856,-48.2666015625
1.6018610001,-0.2484288737,0.0024125977,0.0049135743,-3.7274424235,-7.9424997966,-47.4731445313
1.6045629978,-0.2494054362,-0.0464155273,-0.0048520507,-3.7274424235,-7.9424997966,-47.4731445313
1.6072628498,-0.2494054362,-0.0464155273,-0.0048520507,-3.6511484782,-8.8732859294,-46.6796875000
1.6099758148,-0.2494054362,-0.0464155273,-0.0048520507,-3.6511484782,-8.8732859294,-46.6796875000
1.6126768589,-0.2494054362,-0.0464155273,0.0088198243,-2.8271738688,-9.7582956950,-45.1843261719
1.6153798103,-0.2318273112,-0.0581342773,0.0088198243,-2.8271738688,-9.7582956950,-45.1843261719
1.6181249619,-0.2318273112,-0.0581342773,0.0088198243,-0.1568857829,-10.4601999919,-44.3298339844
1.6208178997,-0.2318273112,-0.0581342773,0.0088198243,-0.1568857829,-10.4601999919,-44.3298339844
1.6235179901,-0.2210851237,-0.0703413086,0.0185854493,3.2763417562,-10.7653757731,-43.3532714844
1.6262168884,-0.2210851237,-0.0703413086,0.0185854493,3.2763417562,-10.7653757731,-43.3532714844
1.6288619041,-0.2210851237,-0.0703413086,0.0185854493,5.2294667562,-11.1773630778,-42.8192138672
1.6314377785,-0.2210851237,-0.0703413086,0.0185854493,5.2294667562,-11.1773630778,-42.8192138672
1.6340098381,-0.2127843425,-0.0879194336,0.0273745117,5.6414540609,-11.4825388591,-42.1173095703
1.6365828514,-0.2127843425,-0.0879194336,0.0273745117,5.6414540609,-11.4825388591,-42.1173095703
1.6392478943,-0.2127843425,-0.0879194336,0.0273745117,5.6414540609,-11.3299509684,-40.7440185547
1.6419548988,-0.2127843425,-0.0879194336,0.0273745117,5.9161122640,-11.3299509684,-40.7440185547
1.6446638107,-0.2020421549,-0.0757124023,0.0386049805,5.9161122640,-11.4520212810,-38.8977050782
1.6473648548,-0.2020421549,-0.0757124023,0.0386049805,5.7482655843,-11.4520212810,-38.8977050782
1.6501109600,-0.2020421549,-0.0757124023,0.0386049805,5.7482655843,-11.1010691325,-36.7919921875
1.6528158188,-0.2020421549,-0.0757124023,0.0386049805,4.6496327718,-11.1010691325,-36.7919921875
1.6555237770,-0.1937413737,-0.0727827148,0.0351870117,4.6496327718,-11.5130564372,-34.8236083985
1.6582338810,-0.1937413737,-0.0727827148,0.0351870117,3.4594472249,-11.5130564372,-34.8236083985
1.6609389782,-0.1937413737,-0.0727827148,0.0351870117,3.4594472249,-10.7806345622,-32.0312500000
1.6637468338,-0.1937413737,-0.1201459960,0.0220034180,4.1003163655,-10.7806345622,-32.0312500000
1.6664519310,-0.1898351237,-0.1201459960,0.0220034180,4.1003163655,-10.2465769450,-29.6813964844
1.6691689491,-0.1898351237,-0.1201459960,0.0220034180,3.4136708577,-10.2465769450,-29.6813964844
1.6718659401,-0.1898351237,-0.1201459960,0.0220034180,3.4136708577,-9.9108835856,-27.7587890625
1.6745657921,-0.2108312175,-0.1421186523,0.0112612305,3.2610829671,-9.9108835856,-27.7587890625
1.6772627831,-0.2108312175,-0.1421186523,0.0112612305,3.2610829671,-9.1479441325,-26.0498046875
1.6798548698,-0.2108312175,-0.1421186523,0.0112612305,3.1847890218,-9.1479441325,-26.0498046875
1.6824259758,-0.2108312175,-0.1421186523,0.0112612305,3.1847890218,-9.1479441325,-24.8138427735
1.6849958897,-0.2127843425,-0.0786420898,0.0161440430,2.2540028890,-8.8122507731,-24.8138427735
1.6875708103,-0.2127843425,-0.0786420898,0.0161440430,2.2540028890,-8.8122507731,-22.8149414063
1.6902728081,-0.2127843425,-0.0786420898,0.0161440430,1.1553700765,-8.9190622966,-22.8149414063
1.6929709911,-0.2127843425,-0.0786420898,0.0161440430,1.1553700765,-8.9190622966,-20.9381103516
1.6956689358,-0.1952062175,-0.0259077148,-0.0097348633,1.1248524983,-9.3615671794,-20.9381103516
1.6983809471,-0.1952062175,-0.0259077148,-0.0097348633,1.1248524983,-9.3615671794,-19.9615478516
1.7010807991,-0.1952062175,-0.0259077148,-0.0097348633,1.1553700765,-8.5986277263,-19.9615478516
1.7037808895,-0.1952062175,-0.0259077148,-0.0444028320,1.1553700765,-8.5986277263,-18.5424804688
1.7064788342,-0.1795812175,-0.0342084960,-0.0444028320,1.8877919515,-7.8204294841,-18.5424804688
1.7091848850,-0.1795812175,-0.0342084960,-0.0444028320,1.8877919515,-7.8204294841,-17.2912597657
1.7119529247,-0.1795812175,-0.0342084960,-0.0444028320,1.9488271077,-7.9882761638,-17.2912597657
1.7145268917,-0.1624913737,-0.0581342773,-0.0649106445,1.9488271077,-7.9882761638,-17.2912597657
1.7171018124,-0.1624913737,-0.0581342773,-0.0649106445,1.3689931233,-8.0340525310,-15.8111572266
1.7197659016,-0.1624913737,-0.0581342773,-0.0649106445,1.3689931233,-8.0340525310,-15.8111572266
1.7223379612,-0.1624913737,-0.0581342773,-0.0649106445,0.9570058187,-8.2324167888,-14.2547607422
1.7250227928,-0.1629796549,-0.0708295898,-0.0546567383,0.9570058187,-8.2324167888,-14.2547607422
1.7295320034,-0.1629796549,-0.0708295898,-0.0546567383,0.1482899983,-8.1713816325,-12.5762939453
1.7322409153,-0.1629796549,-0.0708295898,-0.0546567383,-0.4620615641,-7.5152537028,-11.1419677735
1.7349379063,-0.1712804362,-0.0659467773,-0.0263364257,-0.4620615641,-7.5152537028,-11.1419677735
1.7376887798,-0.1712804362,-0.0659467773,-0.0263364257,-0.2942148845,-7.3016306560,-10.0738525391
1.7407758236,-0.1712804362,-0.0659467773,-0.0263364257,-0.2942148845,-7.3016306560,-10.0738525391
1.7433388233,-0.1712804362,-0.0659467773,-0.0263364257,0.6060536702,-7.5610300700,-8.8073730469
1.7459027767,-0.1654210612,-0.0820600586,-0.0019223633,0.6060536702,-7.5610300700,-8.8073730469
1.7485280037,-0.1654210612,-0.0820600586,-0.0019223633,0.0414784749,-7.1337839763,-7.3577880860
1.7510938644,-0.1654210612,-0.0820600586,-0.0019223633,0.0414784749,-7.1337839763,-7.3577880860
1.7536568642,-0.1654210612,-0.0820600586,-0.0019223633,-3.8647715251,-6.7828318278,-5.8166503907
1.7562158108,-0.1742101237,-0.0869428710,0.0083315430,-1.3165537517,-6.7828318278,-5.8166503907
1.7587850094,-0.1742101237,-0.0869428710,0.0083315430,-1.3165537517,-6.7828318278,-4.7180175782
1.7613518238,-0.1742101237,-0.0869428710,0.0083315430,-2.3541514079,-5.8825632731,-4.7180175782
1.7639148235,-0.1742101237,-0.0869428710,0.0083315430,-2.3541514079,-5.8825632731,-3.6193847657
1.7664759159,-0.1756749675,-0.0708295898,0.0029604493,-2.8576914470,-5.4400583903,-3.6193847657
1.7690849304,-0.1756749675,-0.0708295898,0.0029604493,-2.8576914470,-5.4400583903,-3.6193847657
1.7716519833,-0.1756749675,-0.0708295898,0.0029604493,-3.2849375407,-5.2111765544,-1.7730712891
1.7742118835,-0.1756749675,-0.0708295898,0.0263979493,-3.2849375407,-5.2111765544,-1.7730712891
1.7767658234,-0.1659093425,-0.0547163086,0.0263979493,-3.4375254313,-4.6313425700,-0.7202148438
1.7793397903,-0.1659093425,-0.0547163086,0.0263979493,-3.4375254313,-4.6313425700,-0.7202148438
1.7819089890,-0.1659093425,-0.0547163086,0.0263979493,-3.0865732829,-3.6852976481,-0.0488281250
1.7844798565,-0.1659093425,-0.1797163086,0.0161440430,-3.0865732829,-3.6852976481,-0.0488281250
1.7870459557,-0.1717687175,-0.0825483398,0.0161440430,-3.0560557048,-3.1207224528,0.7598876953
1.7897689342,-0.1717687175,-0.0825483398,0.0161440430,-3.0560557048,-3.1207224528,0.7598876953
1.7923359871,-0.1717687175,-0.0825483398,0.0161440430,-2.8271738688,-2.8155466716,1.4617919921
1.7950267792,-0.2967687175,-0.0688764648,0.0298159180,-2.8271738688,-2.8155466716,1.4617919921
1.7977738380,-0.1908116862,-0.0688764648,0.0298159180,-2.7966562907,-2.4340769450,2.3773193359
1.8004689217,-0.1908116862,-0.0688764648,0.0298159180,-2.7966562907,-2.4340769450,2.3773193359
1.8031649590,-0.1908116862,-0.0688764648,0.0298159180,-2.7508799235,-2.1594187419,3.4454345703
1.8058619499,-0.1629796549,-0.0283491210,0.0244448243,-2.7508799235,-2.1594187419,3.4454345703
1.8085730076,-0.1629796549,-0.0283491210,0.0244448243,-2.4914805095,-2.3883005778,4.0100097656
1.8112728596,-0.1629796549,-0.0283491210,0.0244448243,-2.4914805095,-2.3883005778,4.0100097656
1.8139719963,-0.1629796549,-0.0283491210,0.0244448243,-1.4996592204,-1.9000193278,4.4982910156
1.8166689873,-0.1561437175,-0.0263959960,0.0078432617,-1.4996592204,-1.9000193278,4.4982910156
1.8193778992,-0.1561437175,-0.0263959960,0.0078432617,-1.0266367595,-1.5490671794,5.2917480468
1.8220829964,-0.1561437175,-0.0263959960,0.0078432617,-1.0266367595,-1.5490671794,5.2917480468
1.8247859478,-0.1561437175,-0.0263959960,-0.0155942383,-0.9198252360,-1.7321726481,5.9783935547
1.8274998665,-0.1649327799,-0.0303022460,-0.0155942383,-0.9198252360,-1.7321726481,5.9783935547
1.8300719261,-0.1649327799,-0.0303022460,-0.0155942383,-1.2707773845,-1.7321726481,6.5429687500
1.8326468468,-0.1649327799,-0.0303022460,-0.0155942383,-1.2707773845,-1.7321726481,6.5429687500
1.8352239132,-0.1649327799,-0.0410444336,-0.0048520507,-1.2707773845,-1.1828562419,7.6110839843
1.8378338814,-0.1634679362,-0.0410444336,-0.0048520507,-1.4081064860,-1.1828562419,7.6110839843
1.8405377865,-0.1634679362,-0.0410444336,-0.0048520507,-1.4081064860,-1.3049265544,8.9233398437
1.8432497978,-0.1634679362,-0.0410444336,-0.0048520507,-1.8811289470,-1.3049265544,8.9233398437
1.8459568024,-0.1668859049,-0.0517866210,-0.0146176757,-1.8811289470,-1.3201853434,10.6323242187
1.8487107754,-0.1668859049,-0.0517866210,-0.0146176757,-3.1476084391,-1.3201853434,10.6323242187
1.8514149189,-0.1668859049,-0.0517866210,-0.0146176757,-3.1476084391,-1.1981150310,12.0208740234
1.8542017937,-0.1668859049,-0.0517866210,-0.0146176757,-3.1933848063,-1.1981150310,12.0208740234
1.8569169044,-0.1703038737,-0.0615522460,-0.0058286133,-3.1933848063,-1.0607859294,13.3941650390
1.8597528934,-0.1703038737,-0.0615522460,-0.0058286133,-3.3764902751,-1.0607859294,13.3941650390
1.8624529839,-0.1703038737,-0.0615522460,-0.0058286133,-3.3764902751,-1.1981150310,14.5690917968
1.8651628494,-0.1703038737,-0.0615522460,-0.0072934570,-3.5138193767,-1.1981150310,14.5690917968
1.8679199219,-0.1688390299,-0.0425092773,-0.0072934570,-3.5138193767,-0.7250925700,16.5679931640
1.8706209660,-0.1688390299,-0.0425092773,-0.0072934570,-3.5901133220,-0.7250925700,16.5679931640
1.8733298779,-0.1688390299,-0.0425092773,-0.0072934570,-3.5901133220,-0.7250925700,18.2769775390
1.8760299683,-0.1605382487,-0.0239545898,0.0029604493,-3.3307139079,-0.7250925700,18.2769775390
1.8786938190,-0.1605382487,-0.0239545898,0.0029604493,-3.3307139079,-0.7861277263,18.9178466797
1.8812639713,-0.1605382487,-0.0239545898,0.0029604493,-2.7813975017,-0.7861277263,18.9178466797
1.8838369846,-0.1605382487,-0.0239545898,0.0029604493,-2.7813975017,-0.7861277263,19.9096679687
1.8864150047,-0.1517491862,-0.0195600586,-0.0028989257,-2.0794932048,-1.1981150310,19.9096679687
1.8890388012,-0.1517491862,-0.0195600586,-0.0028989257,-2.0794932048,-1.1981150310,20.7183837890
1.8916099072,-0.1517491862,-0.0195600586,-0.0028989257,-1.2555185954,-1.5032908122,20.7183837890
1.8941888809,-0.1517491862,-0.0195600586,-0.0028989257,-1.2555185954,-1.5032908122,20.7183837890
1.8968060017,-0.1507726237,-0.0190717773,0.0058901367,-0.2179209391,-1.5948435466,22.8851318359
1.8995018005,-0.1507726237,-0.0190717773,0.0058901367,-0.2179209391,-1.5948435466,24.6246337890
1.9026498795,-0.1507726237,-0.0190717773,0.0058901367,0.4076894124,-1.5490671794,28.5308837890
1.9079329967,-0.1517491862,-0.0405561523,0.0024721680,0.8654530843,-1.8237253825,26.2420654297
1.9116618633,-0.1517491862,-0.0405561523,0.0024721680,2.6049550374,-1.9305369060,34.7106933593
1.9289968014,-0.1668859049,-0.0664350586,0.0176088867,3.4899648030,-2.1136423747,38.0218505859
1.9322137833,-0.1668859049,-0.0664350586,0.0176088867,3.4441884359,-2.2662302653,41.7602539062
1.9367718697,-0.1727452799,-0.0752241210,0.0263979493,3.4441884359,-2.2662302653,45.7580566406
1.9412758350,-0.1727452799,-0.0752241210,0.0263979493,3.2000478109,-2.6629587810,45.7580566406
1.9447028637,-0.1727452799,-0.0752241210,0.0263979493,2.3455556233,-3.0291697184,49.9542236328
1.9474508762,-0.1742101237,-0.0957319336,0.0166323243,2.3455556233,-3.0291697184,49.9542236328
1.9500188828,-0.1742101237,-0.0957319336,0.0166323243,1.6741689046,-4.0515085856,54.3945312500
1.9525909424,-0.1742101237,-0.0957319336,0.0166323243,1.6741689046,-4.0515085856,54.3945312500
1.9551579952,-0.1742101237,-0.0957319336,0.0166323243,0.5145009359,-4.3719431560,59.2620849609
1.9577698708,-0.2098546549,-0.0996381836,0.0058901367,0.5145009359,-4.3719431560,59.2620849609
1.9603419304,-0.2098546549,-0.0996381836,0.0058901367,0.5145009359,-4.3719431560,63.7023925781
1.9629158974,-0.2098546549,-0.0996381836,0.0058901367,-0.5841318767,-4.3719431560,63.7023925781
1.9654839039,-0.2098546549,-0.0996381836,0.0058901367,-0.5841318767,-4.3719431560,68.4173583984
1.9681148529,-0.2396398112,-0.1064741210,-0.0278012695,-1.4386240641,-4.3261667888,68.4173583984
1.9706859589,-0.2396398112,-0.1064741210,-0.0278012695,-1.4386240641,-4.3261667888,72.9797363281
1.9732468128,-0.2396398112,-0.1064741210,-0.0278012695,-2.4304453532,-5.2111765544,72.9797363281
1.9758129120,-0.2396398112,-0.1064741210,-0.0278012695,-2.4304453532,-5.2111765544,72.9797363281
1.9783937931,-0.2498937175,-0.0815717773,-0.0507504883,-2.2473398845,-6.5386912028,77.8015136718
1.9809658527,-0.2498937175,-0.0815717773,-0.0507504883,-2.2473398845,-6.5386912028,77.8015136718
1.9835398197,-0.2498937175,-0.0815717773,-0.0507504883,-1.9421641032,-7.6983591716,81.4178466797
1.9861099720,-0.2498937175,-0.0815717773,-0.0507504883,-1.9421641032,-7.6983591716,81.4178466797
1.9888298512,-0.2708898112,-0.0552045898,-0.0512387695,-1.9726816813,-8.7817331950,85.5834960937
1.9914088249,-0.2708898112,-0.0552045898,-0.0512387695,-1.9726816813,-8.7817331950,85.5834960937
1.9939789772,-0.2708898112,-0.0552045898,-0.0512387695,-4.2920176188,-9.5904490153,90.3137207031
1.9965519905,-0.2708898112,-0.1802045898,-0.0619809570,-4.2920176188,-9.5904490153,90.3137207031
1.9993309975,-0.2992101237,-0.0986616210,-0.0619809570,-8.1677500407,-10.2008005778,94.6777343750
2.0020349026,-0.2992101237,-0.0986616210,-0.0619809570,-8.1677500407,-10.2008005778,94.6777343750
2.0047349930,-0.2992101237,-0.0986616210,-0.0619809570,-11.7383066813,-8.6444040934,97.9431152343
2.0074489117,-0.2874913737,-0.0801069336,-0.0419614257,-11.7383066813,-8.6444040934,97.9431152343
2.0102729797,-0.2874913737,-0.0801069336,-0.0419614257,-14.8663584391,-6.3250681560,101.0711669921
2.0129878521,-0.2874913737,-0.0801069336,-0.0419614257,-14.8663584391,-6.3250681560,101.0711669921
2.0156879425,-0.2874913737,-0.0801069336,-0.0419614257,-18.0554453532,-4.6313425700,104.8400878906
2.0184078217,-0.2108312175,-0.0049116210,0.0068666993,-18.0554453532,-4.6313425700,104.8400878906
2.0211148262,-0.2108312175,-0.0049116210,0.0068666993,-20.6189219157,-4.5703074138,106.6406250000
2.0238189697,-0.2108312175,-0.0049116210,0.0068666993,-20.6189219157,-4.5703074138,106.6406250000
2.0265209675,-0.2108312175,-0.0049116210,0.0068666993,-19.1083017985,-5.0585886638,105.6182861328
2.0291569233,-0.1947179362,0.0639360352,0.0591127930,-19.1083017985,-5.0585886638,105.6182861328
2.0317318439,-0.1947179362,0.0639360352,0.0591127930,-15.7818857829,-4.8144480388,104.2449951171
2.0342998505,-0.1947179362,0.0639360352,0.0591127930,-15.7818857829,-4.8144480388,104.2449951171
2.0368728638,-0.1947179362,0.0639360352,0.0644838867,-13.8287607829,-5.3790232341,103.1005859375
2.0396139622,-0.2166905925,0.1327836914,0.0644838867,-13.8287607829,-5.3790232341,103.1005859375
2.0422818661,-0.2166905925,0.1327836914,0.0644838867,-11.7535654704,-5.6079050700,103.0395507812
2.0449469090,-0.2166905925,0.1327836914,0.0644838867,-11.7535654704,-5.6079050700,103.0395507812
2.0476899147,-0.1844640299,0.0961625977,0.0727846680,-9.6020762126,-7.2253367106,103.4515380859
2.0503900051,-0.1844640299,0.0961625977,0.0727846680,-9.6020762126,-7.2253367106,103.4515380859
2.0530929565,-0.1844640299,0.0961625977,0.0727846680,-5.3143564860,-8.5070749919,102.8564453125
2.0558309555,-0.1844640299,0.0961625977,0.0727846680,-5.3143564860,-8.5070749919,102.8564453125
2.0585489273,-0.0990148112,0.1362016602,0.0771791993,-2.2931162517,-9.1784617106,101.9256591797
2.0612487793,-0.0990148112,0.1362016602,0.0771791993,-2.2931162517,-9.1784617106,101.9256591797
2.0639498234,-0.0990148112,0.1362016602,0.0771791993,0.2093251546,-10.3533884684,100.5523681640
2.0666577816,-0.0990148112,0.1362016602,0.0771791993,0.2093251546,-10.3533884684,100.5523681640
2.0693719387,0.0284265951,0.2387407227,0.0757143555,0.2093251546,-11.5740915934,98.3703613281
2.0720779896,0.0284265951,0.2387407227,0.0757143555,2.8643544515,-11.5740915934,98.3703613281
2.0748968124,0.0284265951,0.2387407227,0.0757143555,4.9395497640,-12.2912546794,95.6542968750
2.0776507854,0.0284265951,0.2973344727,0.0469057617,4.9395497640,-12.2912546794,95.6542968750
2.0802338123,0.1080164388,0.2973344727,0.0469057617,8.8457997640,-13.0389353434,92.3278808593
2.0828068256,0.1080164388,0.2973344727,0.0469057617,7.3962148030,-13.0389353434,92.3278808593
2.0853807926,0.1080164388,0.2973344727,0.0469057617,7.3962148030,-13.0389353434,88.4674072265
2.0879688263,-0.0169835612,0.2778032227,0.0044252930,10.0207265218,-13.4509226481,88.4674072265
2.0905508995,0.0508875325,0.2778032227,0.0044252930,10.0207265218,-13.4509226481,85.7513427734
2.0931339264,0.0508875325,0.2778032227,0.0044252930,12.8283437093,-14.1528269450,85.7513427734
2.0957078934,0.0508875325,0.2778032227,0.0044252930,12.8283437093,-14.1528269450,84.1796875000
2.0984218121,-0.1019444987,0.1567094727,-0.0644223633,13.4997304280,-14.5953318278,84.1796875000
2.1010088921,-0.1019444987,0.1567094727,-0.0644223633,13.4997304280,-14.5953318278,84.1796875000
2.1035888195,-0.1019444987,0.1567094727,-0.0644223633,11.8365224202,-14.5190378825,84.0576171875
2.1061658859,-0.1019444987,0.1567094727,-0.0644223633,11.8365224202,-14.5190378825,84.0576171875
2.1089179516,-0.0872960612,0.0321977540,-0.1064145507,7.9760487874,-12.8863474528,85.4003906250
2.1114997864,-0.0872960612,0.0321977540,-0.1064145507,7.9760487874,-12.8863474528,85.4003906250
2.1140818596,-0.0872960612,0.0321977540,-0.1064145507,0.2551015218,-10.9789988200,87.3992919921
2.1166539192,-0.0872960612,0.0321977540,-0.1064145507,0.2551015218,-10.9789988200,87.3992919921
2.1192808151,0.1080164388,0.1127641602,-0.0380551757,-6.5960947673,-10.3533884684,88.6962890625
2.1218538284,0.1080164388,0.1127641602,-0.0380551757,-6.5960947673,-10.3533884684,88.6962890625
2.1244218349,0.1080164388,0.1127641602,-0.0380551757,-13.6456553141,-9.9566599528,86.8194580078
2.1269958019,0.1080164388,0.1127641602,-0.0380551757,-13.6456553141,-9.9566599528,86.8194580078
2.1296489239,0.2628015951,0.2968461914,0.0434877930,-20.1306406657,-8.0950876872,83.9813232421
2.1322228909,0.2628015951,0.2968461914,0.0434877930,-20.1306406657,-8.0950876872,83.9813232421
2.1348028183,0.2628015951,0.2968461914,0.0434877930,-24.4031016032,-6.2029978434,80.1055908203
2.1374888420,0.2628015951,0.2968461914,0.0434877930,-24.4031016032,-6.2029978434,80.1055908203
2.1400640011,0.4019617513,0.3105180664,0.1108706055,-24.4031016032,-5.8978220622,74.6276855468
2.1426358223,0.4019617513,0.3105180664,0.1108706055,-26.7071787517,-5.8978220622,74.6276855468
2.1452097893,0.4019617513,0.3105180664,0.1108706055,-26.7071787517,-1.9915720622,67.5476074218
2.1477828026,0.4019617513,0.3105180664,0.2026674805,-24.6014658610,-4.5397898356,67.5476074218
2.1503617764,0.3599695638,0.3920610352,0.2026674805,-24.6014658610,-4.5397898356,60.0555419921
2.1529319286,0.3599695638,0.3920610352,0.2026674805,-20.9546152751,-3.0749460856,60.0555419921
2.1555058956,0.3599695638,0.3920610352,0.2026674805,-20.9546152751,-3.0749460856,52.2430419921
2.1581168175,0.3599695638,0.3920610352,0.2168276367,-16.0107676188,-2.2814890544,52.9449462890
2.1606919765,0.2530359701,0.4423540040,0.2168276367,-16.0107676188,-2.2814890544,52.9449462890
2.1632699966,0.2530359701,0.4423540040,0.2168276367,-10.1666514079,-4.0515085856,45.4833984375
2.1658349037,0.2530359701,0.4423540040,0.2168276367,-10.1666514079,-4.0515085856,45.4833984375
2.1684079170,0.2530359701,0.3173540040,0.1128237305,-5.5584971110,-5.9283396403,39.2425537109
2.1709859371,0.0289148763,0.3891313477,0.1128237305,-5.5584971110,-5.9283396403,39.2425537109
2.1735568047,0.0289148763,0.3891313477,0.1128237305,-2.9187266032,-4.4634958903,34.3597412109
2.1761319637,0.0289148763,0.3891313477,0.1128237305,-2.9187266032,-4.4634958903,34.3597412109
2.1787929535,-0.2210851237,0.3818071290,-0.0434262695,-0.6756846110,-1.4880320231,30.8349609375
2.1814959049,-0.2923741862,0.3818071290,-0.0434262695,-0.6756846110,-1.4880320231,30.8349609375
2.1842019558,-0.2923741862,0.3818071290,-0.0434262695,-0.4773203532,1.1517384847,29.5989990234
2.1869008541,-0.2923741862,0.3818071290,-0.0434262695,-0.4773203532,1.1517384847,29.5989990234
2.1896197796,-0.4725499675,0.3505571290,-0.1664731445,-1.9574228923,4.5086720784,29.3853759765
2.1923279762,-0.4725499675,0.3505571290,-0.1664731445,-1.9574228923,4.5086720784,29.3853759765
2.1950318813,-0.4725499675,0.3505571290,-0.1664731445,-4.5056406657,8.4454396566,30.6365966797
2.1977508068,-0.4725499675,0.3505571290,-0.1664731445,-4.5056406657,8.4454396566,30.6365966797
2.2005639076,-0.5047765299,0.3188188477,-0.1777036133,-6.2756601970,11.4971974690,31.6436767578
2.2032718658,-0.5047765299,0.3188188477,-0.1777036133,-6.2756601970,11.4971974690,31.6436767578
2.2059788704,-0.5047765299,0.3188188477,-0.1777036133,-9.0832773845,13.5571339925,32.5439453125
2.2087328434,-0.5047765299,0.1938188477,-0.1269223633,-9.0832773845,13.5571339925,32.5439453125
2.2114329338,-0.3280187175,0.2333696290,-0.1269223633,-14.5611826579,14.6405080159,33.0627441406
2.2141468525,-0.3280187175,0.2333696290,-0.1269223633,-14.5611826579,14.6405080159,33.0627441406
2.2168509960,-0.3280187175,0.2333696290,-0.1269223633,-20.6799570720,15.4034474690,31.7504882812
2.2194828987,0.0757898763,0.2934282227,-0.0644223633,-20.6799570720,15.4034474690,31.7504882812
2.2220609188,0.0757898763,0.2934282227,-0.0644223633,-24.6777598063,15.7391408284,28.0426025390
2.2246417999,0.0757898763,0.2934282227,-0.0644223633,-24.6777598063,15.7391408284,28.0426025390
2.2272238731,0.0757898763,0.2934282227,-0.0644223633,-26.5088144938,15.0219777425,21.9390869140
2.2299609184,0.4024500325,0.3666704102,-0.0361020507,-26.5088144938,15.0219777425,21.9390869140
2.2326669693,0.4024500325,0.3666704102,-0.0361020507,-26.5088144938,14.2590382894,14.7521972656
2.2353818417,0.4024500325,0.3666704102,-0.0361020507,-26.2036387126,14.2590382894,14.7521972656
2.2381589413,0.4024500325,0.3666704102,-0.0361020507,-26.3104502360,13.5266164144,6.2377929687
2.2408719063,0.6661219075,0.3847368164,0.0415346680,-26.3104502360,13.5266164144,6.2377929687
2.2435798645,0.6661219075,0.3847368164,0.0415346680,-26.3104502360,12.2601369222,-2.9174804688
2.2462859154,0.6661219075,0.3847368164,0.0415346680,-24.6319834391,12.2601369222,-2.9174804688
2.2490079403,0.6661219075,0.5097368164,0.1626284180,-16.8194834391,10.8868459066,-13.5986328125
2.2517168522,0.6778406575,0.4858110352,0.1626284180,-19.5508066813,10.8868459066,-13.5986328125
2.2544269562,0.6778406575,0.4858110352,0.1626284180,-15.6445566813,7.5146535237,-26.3854980469
2.2571358681,0.6778406575,0.4858110352,0.1626284180,-12.7453867595,7.5146535237,-26.3854980469
2.2598538399,0.3716883138,0.4306352540,0.2280581055,-4.9328867595,2.6470998128,-38.4704589844
2.2625629902,0.3716883138,0.4306352540,0.2280581055,-7.4353281657,2.6470998128,-38.4704589844
2.2653748989,0.3716883138,0.4306352540,0.2280581055,-3.6511484782,-0.9997507731,-48.1750488282
2.2680988312,0.3716883138,0.4306352540,0.2280581055,-3.6511484782,-0.9997507731,-48.1750488282
2.2706789970,-0.0365148112,0.3803422852,0.2212221680,-3.6511484782,-3.1817576091,-56.5063476563
2.2732520103,-0.0365148112,0.3803422852,0.2212221680,-2.3541514079,-3.1817576091,-56.5063476563
2.2758219242,-0.0365148112,0.3803422852,0.2212221680,-2.3541514079,-7.0880076091,-63.7237548829
2.2784578800,-0.0365148112,0.3803422852,0.2212221680,0.3161366780,-6.7828318278,-63.7237548829
2.2811629772,-0.3255773112,0.3818071290,0.1806948243,0.3161366780,-10.6890818278,-72.4060058594
2.2838709354,-0.3255773112,0.3818071290,0.1806948243,1.9640858968,-11.1163279216,-72.4060058594
2.2865748405,-0.3255773112,0.3818071290,0.1806948243,1.9640858968,-15.0225779216,-80.5847167969
2.2893249989,-0.3255773112,0.3818071290,0.0727846680,1.6283925374,-15.5413767497,-80.5847167969
2.2920370102,-0.4393468425,0.4076860352,0.0727846680,1.6283925374,-15.5413767497,-88.0462646485
2.2947418690,-0.4393468425,0.4076860352,0.0727846680,0.4382069905,-19.6154734294,-88.0462646485
2.2974557877,-0.4393468425,0.4076860352,0.0727846680,0.4382069905,-19.6154734294,-96.8811035157
2.3001689911,-0.4393468425,0.4384477540,-0.0732114257,-1.2860361735,-20.5462595622,-96.8811035157
2.3028759956,-0.4676671549,0.4384477540,-0.0732114257,-1.2860361735,-20.5462595622,-104.7393798829
2.3055868149,-0.4676671549,0.4384477540,-0.0732114257,-3.9563242595,-21.2023874919,-104.7393798829
2.3083398342,-0.4676671549,0.4384477540,-0.0732114257,-3.9563242595,-21.2023874919,-113.0401611329
2.3110449314,-0.4539952799,0.5180375977,-0.0995786133,-6.1993662517,-23.8268992106,-113.0401611329
2.3137598038,-0.4539952799,0.5180375977,-0.0995786133,-6.1993662517,-23.8268992106,-123.5229492188
2.3164699078,-0.4539952799,0.5180375977,-0.0995786133,-7.6642100017,-25.0323435466,-123.5229492188
2.3191118240,-0.4539952799,0.5180375977,-0.0995786133,-7.6642100017,-25.0323435466,-135.7452392579
2.3216929436,-0.5067296549,0.5629594727,-0.1044614257,-6.1383310954,-24.4219919841,-135.7452392579
2.3242678642,-0.5067296549,0.5629594727,-0.1044614257,-6.1383310954,-24.4219919841,-135.7452392579
2.3268458843,-0.5067296549,0.5629594727,-0.1044614257,-3.0560557048,-22.7435251872,-149.6765136719
2.3296740055,-0.5067296549,0.5629594727,-0.1352231445,-3.0560557048,-22.7435251872,-165.3015136719
2.3323829174,-0.6727452799,0.6225297852,-0.1352231445,4.1613515218,-19.6307322184,-164.3402099610
2.3350949287,-0.6727452799,0.6225297852,-0.1352231445,4.1613515218,-19.6307322184,-176.0589599610
2.3378119469,-0.6727452799,0.6225297852,-0.1352231445,15.1171620687,-15.8160349528,-176.8066406250
2.3405239582,-1.0477452799,0.7226274414,-0.1620786133,15.1171620687,-15.8160349528,-188.5253906250
2.3432388306,-1.0575109049,0.7226274414,-0.1620786133,30.1318105062,-10.3076121013,-185.1837158203
2.3459479809,-1.0575109049,0.7226274414,-0.1620786133,30.1318105062,-10.3076121013,-185.1837158203
2.3486678600,-1.0575109049,0.7226274414,-0.1620786133,49.2968495687,-4.8144480388,-191.0430908203
2.3513748646,-1.3187413737,0.6366899414,-0.1357114257,49.2968495687,-4.8144480388,-191.0430908203
2.3540818691,-1.3187413737,0.6366899414,-0.1357114257,72.1392567952,0.5566457112,-198.4588623047
2.3567957878,-1.3187413737,0.6366899414,-0.1357114257,72.1392567952,0.5566457112,-198.4588623047
2.3595149517,-1.3187413737,0.6366899414,-0.1357114257,91.2737782796,3.4405568440,-208.3465576172
2.3622229099,-1.3954015299,0.2026079102,-0.0693051757,91.2737782796,3.4405568440,-208.3465576172
2.3649339676,-1.3954015299,0.2026079102,-0.0693051757,87.6727040609,4.2645314534,-218.6004638672
2.3676819801,-1.3954015299,0.2026079102,-0.0693051757,87.6727040609,4.2645314534,-218.6004638672
2.3702638149,-1.3954015299,0.2026079102,0.0239565430,84.3615468343,1.3043263753,-233.5693359375
2.3728389740,-1.3827062175,-0.3716108398,0.0239565430,84.3615468343,1.3043263753,-233.5693359375
2.3754138947,-1.3827062175,-0.3716108398,0.0239565430,93.5473378499,-2.7850290934,-242.3889160157
2.3780789375,-1.3827062175,-0.3716108398,0.0239565430,93.5473378499,-2.7850290934,-242.3889160157
2.3807878494,-1.3827062175,-0.5542280273,0.1875307617,86.7266591390,-1.1523386638,-241.4428710938
2.3834948540,-1.1561437175,-0.5542280273,0.1875307617,86.7266591390,-1.1523386638,-241.4428710938
2.3862099648,-1.1561437175,-0.5542280273,0.1875307617,74.1228993733,1.3195851644,-241.3665771485
2.3889279366,-1.1561437175,-0.5542280273,0.1875307617,74.1228993733,1.3195851644,-241.3665771485
2.3916368484,-0.7098546549,-0.6533491210,0.2285463867,65.2270253499,1.2738087972,-249.0722656250
2.3944609165,-0.7098546549,-0.6533491210,0.2285463867,65.2270253499,1.2738087972,-249.0722656250
2.3971698284,-0.7098546549,-0.6533491210,0.2285463867,57.0330556233,9.8797658284,-250.4913330079
2.3999278545,-0.7098546549,-0.6533491210,0.2285463867,57.0330556233,9.8797658284,-250.4913330079
2.4026319981,-0.5370030925,-0.4458295898,0.0737612305,50.0597890218,20.4998830159,-244.9676513672
2.4053428173,-0.5370030925,-0.4458295898,0.0737612305,50.0597890218,20.4998830159,-244.9676513672
2.4080629349,-0.5370030925,-0.4458295898,0.0737612305,46.4129384359,30.3570607503,-233.4930419922
2.4107749462,-0.5370030925,0.1791704102,-0.0722348633,46.4129384359,30.3570607503,-233.4930419922
2.4134948254,-0.7503819987,0.2675493164,-0.0722348633,28.9874013265,38.0780080159,-207.3089599610
2.4162068367,-0.7503819987,0.2675493164,-0.0722348633,28.9874013265,38.0780080159,-207.3089599610
2.4188559055,-0.7503819987,0.2675493164,-0.0722348633,4.3902333577,44.5324757894,-155.0323486329
2.4214379787,-0.9720616862,1.7621782227,0.3838198243,4.3902333577,44.5324757894,-155.0323486329
2.4240119457,-0.9720616862,1.7621782227,0.3838198243,5.5193837483,53.5961964925,-114.1998291016
2.4266519547,-0.9720616862,1.7621782227,0.3838198243,5.5193837483,53.5961964925,-114.1998291016
2.4294970036,-0.9720616862,1.7621782227,0.3838198243,23.5094960530,62.9345753987,-101.5045166016
2.4321639538,0.1548914388,2.5292680664,0.7597963867,23.5094960530,62.9345753987,-101.5045166016
2.4349699020,0.1548914388,2.5292680664,0.7597963867,41.9726308187,49.8730519612,-102.7557373047
2.4381558895,0.1548914388,2.5292680664,0.7597963867,41.9726308187,49.8730519612,-102.7557373047
2.4408679008,0.1548914388,2.5292680664,0.7759096680,40.0805409749,32.3712209066,-110.7208251953
2.4435799122,0.5967859701,1.0121782227,0.7759096680,40.0805409749,32.3712209066,-110.7208251953
2.4462878704,0.5967859701,1.0121782227,0.7759096680,44.7955067952,7.7435353597,-91.4489746094
2.4490039349,0.5967859701,1.0121782227,0.7759096680,44.7955067952,7.7435353597,-91.4489746094
2.4517109394,0.2217859701,0.2070024414,0.1362612305,48.9001210530,-13.4051462810,-59.0087890625
2.4544169903,0.2935633138,0.2070024414,0.1362612305,48.9001210530,-13.4051462810,-59.0087890625
2.4571208954,0.2935633138,0.2070024414,0.1362612305,56.6821034749,-29.5947214763,-27.7893066407
2.4599578381,0.2935633138,0.2070024414,0.1362612305,56.6821034749,-29.5947214763,-27.7893066407
2.4626698494,0.2491297201,0.1025102540,-0.2016293945,70.9185536702,-39.3450876872,-6.1981201172
2.4653799534,0.2491297201,0.1025102540,-0.2016293945,70.9185536702,-39.3450876872,-6.1981201172
2.4683268070,0.2491297201,0.1025102540,-0.2016293945,85.3075917562,-43.7701365153,9.5947265625
2.4709007740,0.2491297201,0.1025102540,-0.2016293945,85.3075917562,-43.7701365153,9.5947265625
2.4734799862,0.5220789388,0.0971391602,-0.2026059570,93.3031972249,-45.0366160075,19.4671630859
2.4760568142,0.5220789388,0.0971391602,-0.2026059570,93.3031972249,-45.0366160075,19.4671630859
2.4786739349,0.5220789388,0.0971391602,-0.2026059570,88.3288319905,-42.4273630778,29.2480468750
2.4812498093,0.5220789388,0.0971391602,-0.0605161133,88.3288319905,-42.4273630778,29.2480468750
2.4838228226,0.4424890951,0.0571000977,-0.0605161133,73.8940175374,-37.9260203044,41.4398193359
2.4863989353,0.4424890951,0.0571000977,-0.0605161133,73.8940175374,-37.9260203044,41.4398193359
2.4890689850,0.4424890951,0.0571000977,-0.0605161133,60.5273183187,-33.4857126872,48.4283447265
2.4917829037,0.4424890951,-0.0200483398,0.0498354493,60.5273183187,-33.4857126872,48.4283447265
2.4944880009,0.4161219075,-0.0200483398,0.0498354493,50.0292714437,-26.6650339763,52.4719238281
2.4971959591,0.4161219075,-0.0200483398,0.0498354493,50.0292714437,-26.6650339763,52.4719238281
2.4999518394,0.4161219075,-0.0200483398,0.0498354493,39.8211415609,-19.7222849528,55.2642822265
2.5026559830,0.4210047201,-0.2314741210,-0.0282895507,39.8211415609,-19.7222849528,55.2642822265
2.5053617954,0.4210047201,-0.2314741210,-0.0282895507,27.7056630452,-14.2901560466,58.1176757812
2.5080959797,0.4210047201,-0.2314741210,-0.0282895507,27.7056630452,-14.2901560466,58.1176757812
2.5106709003,0.4210047201,-0.2314741210,-0.0282895507,14.8272450765,-8.8580271403,60.6353759765
2.5132439137,0.3604578451,-0.3535444336,-0.1757504883,14.8272450765,-8.8580271403,60.6353759765
2.5158188343,0.3604578451,-0.3535444336,-0.1757504883,-0.7977549235,-2.2051951091,64.4958496093
2.5184788704,0.3604578451,-0.3535444336,-0.1757504883,0.8196767171,-2.2051951091,64.4958496093
2.5210518837,0.3604578451,-0.3535444336,-0.1757504883,0.8196767171,3.0133107503,68.4783935547
2.5236239433,0.3516687825,-0.3789350586,-0.2231137695,-13.2184092204,3.0133107503,68.4783935547
2.5263099670,0.3516687825,-0.3789350586,-0.2231137695,-13.2184092204,7.4841359456,71.2707519531
2.5289978981,0.3516687825,-0.3789350586,-0.2231137695,-25.9747568767,7.4841359456,71.2707519531
2.5315759182,0.3516687825,-0.3789350586,-0.2231137695,-25.9747568767,7.4841359456,73.2543945312
2.5341489315,0.3814539388,-0.3706342773,-0.2133481445,-35.2063242595,10.5206349690,73.2543945312
2.5367248058,0.3814539388,-0.3706342773,-0.2133481445,-35.2063242595,10.5206349690,73.2543945312
2.5394129753,0.3814539388,-0.3706342773,-0.2133481445,-40.1043955485,12.4127248128,74.4598388671
2.5421259403,0.3814539388,-0.3706342773,-0.1694028320,-40.1043955485,12.4127248128,74.4598388671
2.5448319912,0.3990320638,-0.3613569336,-0.1694028320,-41.7523447673,13.3892873128,75.2380371093
2.5475449562,0.3990320638,-0.3613569336,-0.1694028320,-41.7523447673,13.3892873128,75.2380371093
2.5502529144,0.3990320638,-0.3613569336,-0.1694028320,-41.2793223063,13.8165334066,74.0631103515
2.5529589653,0.3858484701,-0.4262983398,-0.1601254883,-41.2793223063,13.8165334066,70.1568603515
2.5556688309,0.3858484701,-0.4262983398,-0.1601254883,-40.8825937907,14.3963673909,70.9197998047
2.5583529472,0.3858484701,-0.4262983398,-0.1601254883,-40.8825937907,14.3963673909,70.9197998047
2.5609288216,0.3858484701,-0.4262983398,-0.1601254883,-39.9212900798,14.9762013753,67.2424316406
2.5635058880,0.3951258138,-0.5766889648,-0.1947934570,-39.9212900798,14.9762013753,67.2424316406
2.5660798550,0.3951258138,-0.5766889648,-0.1947934570,-40.2875010173,15.3118947347,62.2222900390
2.5688238144,0.3951258138,-0.5766889648,-0.1947934570,-40.2875010173,15.3118947347,62.2222900390
2.5714008808,0.3951258138,-0.5766889648,-0.1947934570,-43.4002939860,15.9375050862,54.0130615234
2.5739769936,0.4586023763,-0.7314741210,-0.2177426757,-43.4002939860,15.9375050862,54.0130615234
2.5765559673,0.4586023763,-0.7314741210,-0.2177426757,-47.4591318767,14.8541310628,43.2098388671
2.5793578625,0.4586023763,-0.7314741210,-0.2177426757,-47.4591318767,14.8541310628,43.2098388671
2.5819377899,0.4586023763,-0.7314741210,-0.2177426757,-51.6095225017,13.8623097737,30.4077148437
2.5846569538,0.6441492513,-0.7324506836,-0.2133481445,-51.6095225017,13.8623097737,30.4077148437
2.5872337818,0.6441492513,-0.7324506836,-0.2133481445,-55.5310312907,12.7789357503,17.2546386718
2.5901069641,0.6441492513,-0.7324506836,-0.2133481445,-55.5310312907,12.7789357503,17.2546386718
2.5928177834,0.6441492513,-0.6177045898,-0.1855161133,-56.7669932048,12.0922902425,4.3914794921
2.5955209732,0.7383875325,-0.6177045898,-0.1855161133,-56.7669932048,12.0922902425,4.3914794921
2.5982367992,0.7383875325,-0.6177045898,-0.1855161133,-55.5005137126,11.8328908284,-7.6782226563
2.6009409428,0.7383875325,-0.6177045898,-0.1855161133,-55.5005137126,11.8328908284,-7.6782226563
2.6036438942,0.7515711263,-0.4634077148,-0.1337583007,-52.7386728923,12.3211720784,-18.0999755860
2.6063578129,0.7515711263,-0.4634077148,-0.1337583007,-52.7386728923,12.3211720784,-18.0999755860
2.6090688705,0.7515711263,-0.4634077148,-0.1337583007,-49.8700205485,13.3129933675,-27.3315429688
2.6117727757,0.7515711263,-0.4634077148,-0.1337583007,-49.8700205485,13.3129933675,-27.3315429688
2.6144878864,0.6778406575,-0.3662397460,-0.0365903320,-46.0400644938,13.5571339925,-35.3271484375
2.6171908379,0.6778406575,-0.3662397460,-0.0365903320,-46.0400644938,13.5571339925,-35.3271484375
2.6198239326,0.6778406575,-0.3662397460,-0.0365903320,-40.6537119548,13.4960988362,-42.7124023438
2.6224029064,0.6778406575,-0.3662397460,0.0884096680,-40.6537119548,13.4960988362,-42.7124023438
2.6249818802,0.5484461263,-0.3159467773,0.0371401367,-34.0619150798,14.8693898519,-47.6257324219
2.6275558472,0.5484461263,-0.3159467773,0.0371401367,-34.0619150798,14.8693898519,-47.6257324219
2.6301388741,0.5484461263,-0.3159467773,0.0371401367,-30.1556650798,15.4187062581,-51.1810302735
2.6327168941,0.5484461263,-0.3159467773,0.0390932617,-28.8586680095,15.4187062581,-51.1810302735
2.6353018284,0.4756922201,-0.2568647460,0.0390932617,-28.8586680095,15.3576711019,-53.5156250000
2.6380579472,0.4756922201,-0.2568647460,0.0390932617,-26.4630381267,15.3576711019,-53.5156250000
2.6407668591,0.4756922201,-0.2568647460,0.0390932617,-26.4630381267,15.7696584066,-54.6752929688
2.6434779167,0.3506922201,-0.2046186523,-0.0214536133,-26.0510508220,15.7696584066,-54.6752929688
2.6461868286,0.4117273763,-0.2046186523,-0.0214536133,-26.0510508220,16.3800099690,-53.5766601563
2.6489429474,0.4117273763,-0.2046186523,-0.0214536133,-28.7213389079,16.3800099690,-53.5766601563
2.6516559124,0.4117273763,-0.2046186523,-0.0214536133,-28.7213389079,17.4176076253,-51.1657714844
2.6544718742,0.3863367513,-0.1367475586,-0.0605161133,-32.3376719157,17.4176076253,-51.1657714844
2.6571819782,0.3863367513,-0.1367475586,-0.0605161133,-32.3376719157,19.5538380940,-47.7020263672
2.6599328518,0.3863367513,-0.1367475586,-0.0605161133,-34.2450205485,19.5538380940,-47.7020263672
2.6626498699,0.3863367513,-0.1367475586,-0.0605161133,-34.2450205485,20.3472951253,-43.5516357422
2.6653559208,0.3902430013,-0.0073530273,-0.1122739257,-33.7872568767,20.3472951253,-43.5516357422
2.6681118011,0.3902430013,-0.0073530273,-0.1122739257,-33.7872568767,20.9423878987,-39.1418457032
2.6708278656,0.3902430013,-0.0073530273,-0.1122739257,-33.5583750407,20.9423878987,-39.1418457032
2.6735398769,0.3902430013,0.0820024414,-0.0546567383,-33.5583750407,21.1254933675,-35.3576660157
2.6762468815,0.4073328451,0.0820024414,-0.0546567383,-32.4444834391,21.1254933675,-35.3576660157
2.6790258884,0.4073328451,0.0820024414,-0.0546567383,-28.5382334391,20.7898000081,-31.8176269532
2.6816039085,0.4073328451,0.0820024414,-0.0546567383,-28.7060801188,20.7898000081,-31.8176269532
2.6842639446,0.4239344075,0.1381547852,-0.0175473633,-28.7060801188,20.7898000081,-27.7130126953
2.6873369217,0.4239344075,0.1381547852,-0.0175473633,-25.3949228923,20.1947072347,-27.7130126953
2.6899178028,0.4239344075,0.1381547852,-0.0175473633,-25.3949228923,19.9200490316,-23.1658935547
2.6924967766,0.4239344075,0.1381547852,-0.0175473633,-24.7998301188,19.9200490316,-23.1658935547
2.6950759888,0.4415125325,0.1567094727,-0.0199887695,-24.7998301188,19.9200490316,-17.1234130860
2.6977338791,0.4415125325,0.1567094727,-0.0199887695,-26.8139902751,18.8824513753,-17.1234130860
2.7004458904,0.4415125325,0.1567094727,-0.0199887695,-26.8139902751,14.9762013753,-9.7229003907
2.7031559944,0.4415125325,0.1567094727,0.1050112305,-29.0722910563,17.5701955159,-9.7229003907
2.7058658600,0.4493250325,0.1327836914,-0.0102231445,-32.5360361735,17.6922658284,-1.9714355469
2.7094268799,0.4493250325,0.1327836914,-0.0102231445,-32.5360361735,17.6922658284,-1.9714355469
2.7123899460,0.4493250325,0.1327836914,-0.0102231445,-37.1289316813,17.1124318440,6.6497802734
2.7156119347,0.4669031575,0.0990922852,0.0171206055,-37.1289316813,17.1124318440,6.6497802734
2.7184958458,0.4669031575,0.0990922852,0.0171206055,-40.9588877360,17.2345021566,15.7745361328
2.7233579159,0.4669031575,0.0990922852,0.0195620117,-42.6678721110,17.2650197347,50.8087158203
2.7429277897,0.3980555013,0.1581743164,-0.0409848633,-47.8100840251,18.3331349690,50.8087158203
2.7455058098,0.3897547201,0.2128618164,-0.0658872070,-45.8417002360,17.9974416097,57.6904296875
2.7482519150,0.3897547201,0.2128618164,-0.0658872070,-45.8417002360,17.9974416097,57.6904296875
2.7508418560,0.3897547201,0.2128618164,-0.0658872070,-43.5681406657,16.5173390706,63.9312744140
2.7534198761,0.3897547201,0.2128618164,-0.0658872070,-43.5681406657,16.5173390706,63.9312744140
2.7559959888,0.3921961263,0.1474321290,-0.0058286133,-41.0809580485,15.4187062581,70.1110839843
2.7585878372,0.3921961263,0.1474321290,-0.0058286133,-41.0809580485,15.4187062581,70.1110839843
2.7611589432,0.3921961263,0.1474321290,-0.0058286133,-37.8003184001,13.7402394612,75.2685546875
2.7637360096,0.3921961263,0.1474321290,-0.0058286133,-37.8003184001,13.7402394612,75.2685546875
2.7663087845,0.3760828451,0.1303422852,0.0737612305,-33.4057871501,11.6497853597,82.7453613281
2.7689359188,0.3760828451,0.1303422852,0.0737612305,-33.4057871501,11.6497853597,82.7453613281
2.7715108395,0.3760828451,0.1303422852,0.0737612305,-31.2085215251,12.8552296956,110.7299804687
2.7768938541,0.4224695638,3.0224321290,0.1177065430,-31.2085215251,21.0034230550,138.1652832031
2.7795379162,0.4224695638,3.0224321290,0.1177065430,-44.4684092204,21.0034230550,138.1652832031
2.7821078300,0.4224695638,3.0224321290,0.1177065430,-44.4684092204,36.6284230550,156.4605712890
2.7846889496,0.4224695638,4.3251665040,0.6123354493,-89.8480478923,34.6142628987,156.4605712890
2.7872657776,-0.6546788737,4.3251665040,0.6123354493,-89.8480478923,34.6142628987,205.4718017578
2.7898478508,-0.6546788737,4.3251665040,0.6123354493,-100.8191172282,26.5728810628,205.4718017578
2.7924308777,-0.6546788737,4.3251665040,0.6123354493,-100.8191172282,26.5728810628,205.4718017578
2.7950007915,-1.5296788737,-0.2026655273,-0.2524106445,-48.6187998454,17.9211476644,252.1942138671
2.7976229191,-1.4852452799,-0.2026655273,-0.2524106445,-48.6187998454,17.9211476644,252.1942138671
2.8002028465,-1.4852452799,-0.2026655273,-0.2524106445,-13.5998789470,16.7462209066,246.5332031250
2.8027808666,-1.4852452799,-0.2026655273,-0.2524106445,-13.5998789470,16.7462209066,246.5332031250
2.8054978848,-1.3441319987,-2.0947553710,-0.4296567383,-15.9955088298,9.5440724690,193.3258056640
2.8081538677,-1.3441319987,-2.0947553710,-0.4296567383,-15.9955088298,9.5440724690,193.3258056640
2.8107287884,-1.3441319987,-2.0947553710,-0.4296567383,-30.9033457438,6.2634328206,137.7227783203
2.8133118153,-1.3441319987,-2.0947553710,-0.4296567383,-30.9033457438,6.2634328206,137.7227783203
2.8158898354,-0.5902257487,-0.7109663086,-0.3320004883,-59.1931406657,2.5402882894,109.9365234375
2.8186359406,-0.5902257487,-0.7109663086,-0.3320004883,-59.1931406657,2.5402882894,109.9365234375
2.8212189674,-0.5902257487,-0.7109663086,-0.3320004883,-64.9151865641,1.5332082112,100.4760742187
2.8237957954,-0.5902257487,-0.7109663086,-0.3320004883,-64.9151865641,1.5332082112,100.4760742187
2.8263769150,-0.8206944987,-0.1479780273,-0.1288754883,-50.2667490641,7.3620656331,113.5986328125
2.8291068077,-0.8206944987,-0.1479780273,-0.1288754883,-50.2667490641,7.3620656331,113.5986328125
2.8316829205,-0.8206944987,-0.1479780273,-0.1288754883,-60.6579844157,13.9538625081,113.3087158203
2.8342700005,-0.8206944987,-0.1479780273,-0.1288754883,-60.6579844157,13.9538625081,113.3087158203
2.8368477821,-0.9359288737,-0.3740522460,0.2436831055,-80.1892344157,13.4198048909,101.3763427734
2.8396048546,-0.9359288737,-0.3740522460,0.2436831055,-79.5636240641,13.4198048909,101.3763427734
2.8423168659,-0.9359288737,-0.3740522460,0.2436831055,-91.2823740641,3.8525441487,76.3824462890
2.8450169563,-0.9359288737,0.1259477540,0.6714174805,-92.8235117595,3.8525441487,76.3824462890
2.8477339745,-1.2621007487,0.0707719727,0.6714174805,-104.5422617595,-13.4661814372,57.8125000000
2.8504438400,-1.2621007487,0.0707719727,0.6714174805,-104.5880381267,-13.4661814372,57.8125000000
2.8531498909,-1.2621007487,0.0707719727,0.6714174805,-92.8692881267,-31.5173288981,49.2828369140
2.8558578491,-1.1590734049,0.7279985352,0.9819643555,-91.8316904704,-31.5173288981,49.2828369140
2.8585829735,-1.1590734049,0.7279985352,0.9819643555,-52.7691904704,-36.5374704997,38.4948730468
2.8612909317,-1.1590734049,0.7279985352,0.9819643555,-53.1811777751,-36.5374704997,38.4948730468
2.8640029430,-1.1590734049,0.7279985352,0.9819643555,-21.9311777751,-41.8475290934,29.0191650390
2.8667039871,-1.3314366862,0.2939165040,0.5141909180,-23.6249033610,-41.8475290934,29.0191650390
2.8695359230,-1.3314366862,0.2939165040,0.5141909180,-0.1874033610,-48.3019968669,21.4202880859
2.8722398281,-1.3314366862,0.2939165040,0.5141909180,1.6283925374,-48.3019968669,21.4202880859
2.8749439716,-1.3314366862,0.2939165040,-0.1108090820,21.1596425374,-40.7641550700,16.2780761718
2.8776888847,-1.7621007487,0.1908891602,-0.0453793945,20.9307607015,-40.7641550700,16.2780761718
2.8802709579,-1.7621007487,0.1908891602,-0.0453793945,20.9307607015,-37.9260203044,21.0083007812
2.8828508854,-1.7621007487,0.1908891602,-0.0453793945,23.6010487874,-37.9260203044,21.0083007812
2.8855118752,-1.7621007487,0.1908891602,-0.6547543945,23.6010487874,-30.1135203044,29.1717529297
2.8881359100,-1.5272374675,0.2719438477,-0.6547543945,19.9694569905,-31.6088816325,29.1717529297
2.8907117844,-1.5272374675,0.2719438477,-0.6547543945,19.9694569905,-31.6088816325,31.9946289062
2.8932878971,-1.5272374675,0.2719438477,-0.6547543945,11.6991933187,-26.1462351481,31.9946289062
2.8958628178,-1.5272374675,0.3446977540,-0.6332700195,11.6991933187,-26.1462351481,28.0883789062
2.8985888958,-0.4564366862,0.3446977540,-0.6332700195,7.0452626546,-23.5217234294,26.9287109375
2.9012978077,-0.4564366862,0.3446977540,-0.6332700195,7.0452626546,-23.5217234294,15.2099609375
2.9039978981,-0.4564366862,0.3446977540,-0.6332700195,-0.6451670329,-21.4160105388,17.9870605468
2.9066979885,0.0298914388,0.4594438477,-0.2519223633,-0.6451670329,-21.4160105388,10.1745605468
2.9094099998,0.0298914388,0.4594438477,-0.2519223633,-8.0609385173,-18.8372751872,7.1685791015
2.9121139050,0.0298914388,0.4594438477,-0.2519223633,-8.0609385173,-18.8372751872,7.1685791015
2.9148168564,0.0298914388,0.4594438477,-0.2519223633,-11.9824473063,-17.5707956950,-4.8248291016
2.9175338745,0.2842859701,0.4823930664,-0.0302426757,-11.9824473063,-17.5707956950,-4.8248291016
2.9201118946,0.2842859701,0.4823930664,-0.0302426757,-9.9225107829,-18.0133005778,-17.2760009766
2.9226849079,0.2842859701,0.4823930664,-0.0302426757,-9.9225107829,-18.0133005778,-17.2760009766
2.9252579212,0.2842859701,0.4823930664,-0.0302426757,-5.3753916423,-18.7609812419,-29.4830322266
2.9278588295,0.2872156575,0.3915727540,0.1513979493,-5.3753916423,-18.7609812419,-29.4830322266
2.9304389954,0.2872156575,0.3915727540,0.1513979493,-3.0407969157,-17.8454538981,-40.7135009766
2.9331269264,0.2872156575,0.3915727540,0.1513979493,-3.0407969157,-17.8454538981,-40.7135009766
2.9357078075,0.2872156575,0.3915727540,0.1513979493,-1.7285410563,-17.0214792888,-51.9134521485
2.9384689331,0.2510828451,0.3822954102,0.1841127930,-1.7285410563,-17.0214792888,-51.9134521485
2.9411749840,0.2510828451,0.3822954102,0.1841127930,2.7422841390,-17.3113962810,-62.5335693360
2.9438748360,0.2510828451,0.3822954102,0.1841127930,2.7422841390,-17.3113962810,-62.5335693360
2.9465799332,0.1260828451,0.3241899414,0.1577456055,6.9689687093,-16.8536326091,-71.4294433594
2.9493288994,0.1363367513,0.3241899414,0.1577456055,6.9689687093,-16.8536326091,-71.4294433594
2.9520368576,0.1363367513,0.3241899414,0.1577456055,6.6790517171,-14.9005076091,-77.4108886719
2.9547410011,0.1363367513,0.3241899414,0.1577456055,6.6790517171,-14.9005076091,-77.4108886719
2.9574608803,0.0191492513,0.2738969727,0.0923159180,4.0545399983,-12.8405710856,-82.0037841797
2.9601669312,0.0191492513,0.2738969727,0.0923159180,4.0545399983,-12.8405710856,-82.0037841797
2.9628698826,0.0191492513,0.2738969727,0.0923159180,2.4371083577,-11.0552927653,-85.4522705079
2.9655799866,0.0191492513,0.2738969727,0.0923159180,2.4371083577,-11.0552927653,-85.4522705079
2.9683349133,-0.0472569987,0.2675493164,0.0322573243,1.6131337483,-9.9871775310,-88.3056640625
2.9710378647,-0.0472569987,0.2675493164,0.0322573243,1.6131337483,-9.9871775310,-88.3056640625
2.9737408161,-0.0472569987,0.2675493164,0.0322573243,1.5368398030,-8.7054392497,-90.9606933594
2.9764389992,-0.0472569987,0.2675493164,0.0029604493,1.5368398030,-8.7054392497,-90.9606933594
2.9790759087,-0.1112218425,0.2279985352,0.0029604493,1.8725331624,-7.6068064372,-92.6544189453
2.9816448689,-0.1112218425,0.2279985352,0.0029604493,1.8725331624,-7.6068064372,-92.6544189453
2.9842159748,-0.1112218425,0.2279985352,0.0029604493,3.9019521077,-7.4694773356,-93.4326171875
2.9867858887,-0.1112218425,0.2006547852,-0.0199887695,3.9019521077,-7.4694773356,-93.4326171875
2.9894628525,-0.1478429362,0.2006547852,-0.0199887695,5.5499013265,-7.5305124919,-94.1345214844
2.9921629429,-0.1478429362,0.2006547852,-0.0199887695,5.5499013265,-7.5305124919,-94.1345214844
2.9948589802,-0.1478429362,0.2006547852,-0.0199887695,7.4114735921,-7.4389597575,-94.2108154297
2.9977188110,-0.1893468425,0.1654985352,-0.0341489257,7.4114735921,-7.4389597575,-94.2108154297
3.0004189014,-0.1893468425,0.1654985352,-0.0341489257,9.2883046468,-8.0187937419,-93.4631347657
3.0031158924,-0.1893468425,0.1654985352,-0.0341489257,9.2883046468,-8.0187937419,-93.4631347657
3.0058248043,-0.1893468425,0.1654985352,-0.0341489257,11.9585927327,-7.5305124919,-92.2424316407
3.0085439682,-0.1878819987,0.1596391602,-0.0444028320,11.9585927327,-7.5305124919,-92.2424316407
3.0112488270,-0.1878819987,0.1596391602,-0.0444028320,15.6664784749,-7.8356882731,-90.6860351563
3.0139498711,-0.1878819987,0.1596391602,-0.0444028320,15.6664784749,-7.8356882731,-90.6860351563
3.0166468620,-0.1878819987,0.1596391602,-0.0517270507,19.2065175374,-7.3626658122,-88.6566162110
3.0193657875,-0.1746984049,0.1410844727,-0.0517270507,19.2065175374,-7.3626658122,-88.6566162110
3.0220727921,-0.1746984049,0.1410844727,-0.0517270507,22.1819814046,-6.5386912028,-85.9405517579
3.0247719288,-0.1746984049,0.1410844727,-0.0517270507,22.1819814046,-6.5386912028,-85.9405517579
3.0274839401,-0.1522374675,0.1010454102,-0.0321958007,26.0882314046,-5.8673044841,-83.1787109375
3.0300610065,-0.1522374675,0.1010454102,-0.0321958007,24.0588124593,-5.8673044841,-83.1787109375
3.0326387882,-0.1522374675,0.1010454102,-0.0321958007,24.0588124593,-4.8602244060,-81.0882568360
3.0352168083,-0.1522374675,0.1010454102,-0.0321958007,25.4778798421,-4.8602244060,-81.0882568360
3.0379238129,-0.1234288737,0.0629594727,-0.0287778320,27.0342763265,-3.2885691325,-78.1127929688
3.0418708324,-0.1234288737,0.0629594727,-0.0287778320,27.0342763265,-3.2885691325,-74.2065429688
3.0455608368,-0.1234288737,0.0629594727,-0.0287778320,27.4157460530,-2.6324412028,-75.0762939453
3.0488498211,-0.0887609049,0.0180375977,0.0117495117,27.4157460530,-1.5185496013,-71.8109130860
3.0515618324,-0.0887609049,0.0180375977,0.0117495117,27.4462636312,-1.5185496013,-71.8109130860
3.0542678833,-0.0887609049,0.0180375977,0.0117495117,27.4462636312,-1.5185496013,-69.0032958985
3.0569658279,-0.0887609049,0.0180375977,0.0537416993,26.7138417562,-0.8471628825,-69.0032958985
3.0597310066,-0.0682530925,-0.0254194336,0.0537416993,26.7138417562,-0.7250925700,-65.9362792969
3.0624339581,-0.0682530925,-0.0254194336,0.0537416993,24.6386464437,-0.7250925700,-65.9362792969
3.0652458668,-0.0682530925,-0.0254194336,0.0537416993,24.6386464437,-0.3893992106,-63.0218505860
3.0679609776,-0.0594640299,-0.0503217773,0.0845034180,21.3427480062,-0.3893992106,-63.0218505860
3.0706589222,-0.0594640299,-0.0503217773,0.0845034180,21.3427480062,-0.0842234294,-59.9853515625
3.0733609200,-0.0594640299,-0.0503217773,0.0845034180,17.0397694905,-0.0842234294,-59.9853515625
3.0760588646,-0.0594640299,-0.0503217773,0.0845034180,17.0397694905,0.6024220784,-56.5979003907
3.0787758827,-0.0399327799,-0.0503217773,0.1011049805,13.3471425374,0.6024220784,-56.5979003907
3.0814769268,-0.0399327799,-0.0503217773,0.1011049805,13.3471425374,0.9381154378,-53.3935546875
3.0841739178,-0.0399327799,-0.0503217773,0.1011049805,10.4021962483,0.9381154378,-53.3935546875
3.0868749619,-0.0399327799,-0.0503217773,0.2261049805,10.4021962483,0.9381154378,-50.2197265625
3.0895948410,-0.0179601237,-0.0400678710,0.1372377930,7.8234608968,0.8923390706,-50.2197265625
3.0922918320,-0.0179601237,-0.0400678710,0.1372377930,7.8234608968,0.8923390706,-46.6644287110
3.0949928761,-0.0179601237,-0.0400678710,0.1372377930,6.3433583577,1.4874318440,-46.6644287110
3.0977258682,-0.0179601237,-0.0600874023,0.1391909180,6.3433583577,1.4874318440,-43.5363769532
3.1004209518,-0.0277257487,-0.0600874023,0.1391909180,4.7411855062,1.5332082112,-43.5363769532
3.1031157970,-0.0277257487,-0.0600874023,0.1391909180,4.7411855062,1.5332082112,-41.1254882813
3.1058108807,-0.0277257487,-0.0600874023,0.1391909180,3.7341054280,1.1059621175,-41.1254882813
3.1085188389,-0.0296788737,-0.0639936523,0.1518862305,3.7341054280,1.1059621175,-39.3859863282
3.1112129688,-0.0296788737,-0.0639936523,0.1518862305,3.5662587483,1.1975148519,-39.3859863282
3.1139049530,-0.0296788737,-0.0639936523,0.1518862305,3.5662587483,1.1975148519,-37.4938964844
3.1166009903,-0.0296788737,-0.0639936523,0.1518862305,3.6272939046,1.4416554769,-37.4938964844
3.1193039417,-0.0379796549,0.0278032227,0.1460268555,3.6272939046,1.4416554769,-35.5560302735
3.1219999790,-0.0379796549,0.0278032227,0.1460268555,3.4289296468,1.5332082112,-35.5560302735
3.1246998310,-0.0379796549,0.0278032227,0.1460268555,3.4289296468,1.5332082112,-33.7860107422
3.1273548603,-0.0379796549,0.0278032227,0.1460268555,4.9242909749,1.8383839925,-33.7860107422
3.1301019192,-0.0223546549,0.0776079102,0.1221010743,4.9242909749,1.8383839925,-32.5653076172
3.1327538490,-0.0223546549,0.0776079102,0.1221010743,5.7787831624,2.5555470784,-32.5653076172
3.1353218555,-0.0223546549,0.0776079102,0.1221010743,5.7787831624,3.2879689534,-31.1309814453
3.1389179230,-0.0179601237,0.0610063477,0.0859682617,6.5569814046,3.2879689534,-31.1309814453
3.1414837837,-0.0179601237,0.0610063477,0.0859682617,6.5569814046,3.8983205159,-29.8339843750
3.1440489292,-0.0179601237,0.0610063477,0.0859682617,7.5488026937,3.8983205159,-29.8339843750
3.1466078758,-0.0179601237,0.0610063477,0.0859682617,7.5488026937,3.8983205159,-28.4149169922
3.1492228508,-0.0247960612,0.0307329102,0.0654604493,7.5793202718,4.6154836019,-28.4149169922
3.1517949104,-0.0247960612,0.0307329102,0.0654604493,7.5793202718,4.6154836019,-26.8432617188
3.1543569565,-0.0247960612,0.0307329102,0.0654604493,6.2060292562,5.6683400472,-26.8432617188
3.1569209099,-0.0247960612,0.0307329102,0.0654604493,6.2060292562,5.6683400472,-26.8432617188
3.1594917774,-0.0472569987,0.0092485352,0.0762026367,4.0392812093,6.0498097737,-24.9816894532
3.1620547771,-0.0472569987,0.0092485352,0.0762026367,4.0392812093,6.0498097737,-24.9816894532
3.1646199226,-0.0472569987,0.0092485352,0.0762026367,0.4229482015,5.9735158284,-23.4863281250
3.1671829224,-0.0472569987,0.0092485352,0.0762026367,0.4229482015,5.9735158284,-23.4863281250
3.1697978973,-0.1239171549,-0.0039350586,0.0679018555,-1.2860361735,7.8503468831,-22.2198486329
3.1723699570,-0.1239171549,-0.0039350586,0.0679018555,-1.2860361735,7.8503468831,-22.2198486329
3.1749339104,-0.1239171549,-0.0039350586,0.0679018555,-1.8506113688,10.6427052816,-21.2585449219
3.1775698662,-0.1239171549,-0.0039350586,0.0679018555,-1.8506113688,10.6427052816,-21.2585449219
3.1801538467,-0.2699132487,-0.0185834960,-0.0531918945,-3.9868418376,12.6263478597,-21.2585449219
3.1827208996,-0.2699132487,-0.0185834960,-0.0531918945,-3.9868418376,12.6263478597,-21.2585449219
3.1852929592,-0.2699132487,-0.0185834960,-0.0531918945,-7.5726572673,13.8470509847,-19.2443847657
3.1880388260,-0.2699132487,-0.0185834960,-0.1493833007,-7.5726572673,13.8470509847,-19.2443847657
3.1906049252,-0.3661046549,-0.0493452148,-0.1493833007,-11.4789072673,14.6099904378,-15.6585693360
3.1932868958,-0.3661046549,-0.0493452148,-0.1493833007,-12.1197764079,14.6099904378,-15.6585693360
3.1958580017,-0.3661046549,-0.0493452148,-0.1493833007,-12.1197764079,14.8388722737,-12.4542236329
3.1985919476,-0.3661046549,-0.0884077148,-0.1200864257,-17.1856943767,14.8388722737,-12.4542236329
3.2011649609,-0.4325109049,-0.0884077148,-0.1200864257,-17.1856943767,14.8388722737,-10.4553222657
3.2037308216,-0.4325109049,-0.0884077148,-0.1200864257,-18.8946787517,13.6334279378,-10.4553222657
3.2063069344,-0.4325109049,-0.0884077148,-0.1200864257,-18.8946787517,13.6334279378,-8.7768554688
3.2089078426,-0.4325109049,-0.0205366210,-0.0829770507,-19.3982187907,11.8023732503,-8.7768554688
3.2114739418,-0.3817296549,-0.0205366210,-0.0829770507,-19.3982187907,11.8023732503,-8.7768554688
3.2140438557,-0.3817296549,-0.0205366210,-0.0829770507,-20.0390879313,8.9794972737,-6.6101074219
3.2166049480,-0.3817296549,-0.0205366210,-0.0829770507,-20.0390879313,8.9794972737,-6.6101074219
3.2192227840,-0.3114171549,0.0024125977,-0.0551450195,-18.7573496501,5.8209279378,-6.0455322266
3.2217848301,-0.3114171549,0.0024125977,-0.0551450195,-18.7573496501,5.8209279378,-6.0455322266
3.2243459225,-0.3114171549,0.0024125977,-0.0551450195,-16.1480967204,2.7081349690,-6.0302734375
3.2269108295,-0.3114171549,0.0024125977,-0.0551450195,-16.1480967204,2.7081349690,-6.0302734375
3.2295858860,-0.2269444987,0.0063188477,-0.0566098633,-13.5998789470,-0.3283640544,-6.3049316407
3.2321507931,-0.2269444987,0.0063188477,-0.0566098633,-13.5998789470,-0.3283640544,-6.3049316407
3.2347218990,-0.2269444987,0.0063188477,-0.0566098633,-11.2042490641,-3.1359812419,-8.0749511719
3.2372839451,-0.2269444987,0.0063188477,-0.0566098633,-11.2042490641,-3.1359812419,-8.0749511719
3.2401568890,-0.1898351237,0.0424516602,-0.0639340820,-8.9306894938,-5.0891062419,-9.1430664063
3.2430298328,-0.1898351237,0.0424516602,-0.0639340820,-8.9306894938,-5.0891062419,-9.1430664063
3.2455987930,-0.1898351237,0.0424516602,-0.0639340820,-7.0996348063,-6.5234324138,-10.5773925782
3.2482559681,-0.1898351237,0.0424516602,-0.0639340820,-7.0996348063,-6.5234324138,-10.5773925782
3.2509508133,-0.1488194987,0.0873735352,-0.0610043945,-5.1007334391,-7.5457712810,-12.7288818360
3.2536339760,-0.1488194987,0.0873735352,-0.0610043945,-5.1007334391,-7.5457712810,-12.7288818360
3.2563109398,-0.1488194987,0.0873735352,-0.0610043945,-3.6206309001,-7.2863718669,-14.6209716797
3.2591989040,-0.1488194987,0.0976274414,-0.0165708007,-3.6206309001,-7.2863718669,-14.6209716797
3.2618858814,-0.1156163737,0.0976274414,-0.0165708007,-2.6135508220,-7.0727488200,-16.5435791016
3.2645668983,-0.1156163737,0.0976274414,-0.0165708007,-2.6135508220,-7.0727488200,-16.5435791016
3.2672460079,-0.1156163737,0.0976274414,-0.0165708007,-2.0947519938,-6.8286081950,-18.2373046875
3.2700259686,-0.0916905925,0.0810258790,0.0146791993,-2.0947519938,-6.8286081950,-18.2373046875
3.2727069855,-0.0916905925,0.0810258790,0.0146791993,-2.7051035563,-6.1419626872,-20.1293945313
3.2753939629,-0.0916905925,0.0810258790,0.0146791993,-2.7051035563,-6.1419626872,-20.1293945313
3.2781159878,-0.0916905925,0.0810258790,0.0146791993,-2.9645029704,-5.5468699138,-21.4263916016
3.2807779312,-0.0692296549,0.0927446290,0.0537416993,-2.9645029704,-5.5468699138,-21.4263916016
3.2833499908,-0.0692296549,0.0927446290,0.0537416993,-2.8576914470,-4.5092722575,-23.2421875000
3.2859158516,-0.0692296549,0.0927446290,0.0537416993,-2.8576914470,-4.5092722575,-23.2421875000
3.2887499332,-0.0692296549,0.0927446290,0.0537416993,-2.7966562907,-3.8073679606,-25.4852294922
3.2913358212,-0.0638585612,0.1059282227,0.0781557617,-2.7966562907,-3.8073679606,-25.4852294922
3.2939028740,-0.0638585612,0.1059282227,0.0781557617,-2.7966562907,-3.1054636638,-27.7587890625
3.2964677811,-0.0638585612,0.1059282227,0.0781557617,-2.3541514079,-3.1054636638,-27.7587890625
3.2992739677,-0.0638585612,0.1059282227,0.0893862305,-2.3541514079,-2.1746775310,-29.6051025391
3.3019747734,-0.0623937175,0.0844438477,0.0893862305,-1.3928476970,-2.1746775310,-29.6051025391
3.3046770096,-0.0623937175,0.0844438477,0.0893862305,-1.3928476970,-1.4575144450,-31.0699462891
3.3073740005,-0.0623937175,0.0844438477,0.0893862305,-1.0876719157,-1.4575144450,-31.0699462891
3.3101170063,-0.0794835612,0.0590532227,0.0722963867,2.8185780843,-0.6793162028,-31.9702148438
3.3128178120,-0.0794835612,0.0590532227,0.0722963867,-0.3399912517,-0.6793162028,-31.9702148438
3.3155138493,-0.0794835612,0.0590532227,0.0722963867,-0.3399912517,0.0988820394,-33.0993652344
3.3182299137,-0.0794835612,0.0590532227,0.0722963867,0.4382069905,0.0988820394,-33.0993652344
3.3209338188,-0.1112218425,0.0263383790,0.0771791993,0.4382069905,0.6787160237,-33.7707519532
3.3237388134,-0.1112218425,0.0263383790,0.0771791993,0.9875233968,0.6787160237,-33.7707519532
3.3264408112,-0.1112218425,0.0263383790,0.0771791993,0.9875233968,1.3195851644,-34.8846435547
3.3290679455,-0.1112218425,0.0263383790,0.0771791993,1.2316640218,1.3195851644,-34.8846435547
3.3316309452,-0.1356359049,0.0053422852,0.0469057617,1.2316640218,1.3195851644,-35.2966308594
3.3342018127,-0.1356359049,0.0053422852,0.0469057617,1.4910634359,1.5026906331,-35.2966308594
3.3367669582,-0.1356359049,0.0053422852,0.0469057617,1.4910634359,1.5026906331,-35.0372314453
3.3394417763,-0.1356359049,0.0053422852,0.0073549805,1.9488271077,1.1212209066,-35.0372314453
3.3421428204,-0.1546788737,0.0019243164,0.0073549805,1.9488271077,1.1212209066,-34.2437744141
3.3448388577,-0.1546788737,0.0019243164,0.0073549805,2.1166737874,0.6176808675,-34.2437744141
3.3475439548,-0.1546788737,0.0019243164,0.0073549805,2.1166737874,0.6176808675,-33.6791992188
3.3502459526,-0.1546788737,-0.0112592773,-0.0307309570,2.3455556233,0.3582814534,-33.6791992188
3.3529479504,-0.1717687175,-0.0112592773,-0.0307309570,2.3455556233,0.3582814534,-33.0535888672
3.3557319641,-0.1717687175,-0.0112592773,-0.0307309570,3.1847890218,0.0378468831,-33.0535888672
3.3584358692,-0.1717687175,-0.0112592773,-0.0307309570,3.1847890218,0.0378468831,-31.9854736329
3.3611447811,-0.1746984049,-0.0200483398,-0.0375668945,4.0545399983,-0.4809519450,-31.9854736329
3.3638448715,-0.1746984049,-0.0200483398,-0.0375668945,4.0545399983,-0.4809519450,-31.4514160157
3.3665399551,-0.1746984049,-0.0200483398,-0.0375668945,3.9172108968,-0.9539744060,-31.4514160157
3.3692519665,-0.1746984049,-0.0200483398,-0.0375668945,3.9172108968,-0.9539744060,-30.4595947266
3.3719549179,-0.1746984049,-0.0239545898,-0.0395200195,3.0322011312,-1.5948435466,-30.4595947266
3.3746538162,-0.1746984049,-0.0239545898,-0.0395200195,3.0322011312,-1.5948435466,-29.3457031250
3.3773639202,-0.1746984049,-0.0239545898,-0.0395200195,2.0403798421,-2.6324412028,-29.3457031250
3.3799908161,-0.1746984049,-0.0239545898,-0.0321958007,2.0403798421,-2.6324412028,-25.4394531250
3.3825588226,-0.1854405925,-0.0508100586,-0.0321958007,1.2774403890,-2.9376169841,-27.9571533203
