# time_stamp before, Acceleration x, Acceleration y, Acceleration z, Gyro x, Gyro y, Gyro z
0.0000000000,-0.2270507812,0.6796875000,-0.1347656250,-0.3662109375,-1.0223388672,-0.6256103516
0.0026898384,-0.2270507812,0.6796875000,-0.1347656250,0.4119873047,-1.3122558594,-0.7019042969
0.0053758621,-0.2270507812,0.6796875000,-0.1347656250,0.4119873047,-1.3122558594,-0.7019042969
0.0080778599,-0.2270507812,0.6796875000,-0.1347656250,0.2136230469,-1.2512207031,-0.6866455078
0.0107710361,-0.2290039062,0.6777343750,-0.1303710938,0.2136230469,-1.2512207031,-0.6866455078
0.0134618282,-0.2290039062,0.6777343750,-0.1303710938,0.3051757812,-0.9002685547,-0.6561279297
0.0161569118,-0.2290039062,0.6777343750,-0.1303710938,0.3051757812,-0.9002685547,-0.6561279297
0.0188109875,-0.2290039062,0.6777343750,-0.1303710938,0.3051757812,-1.2207031250,-0.8850097656
0.0213708878,-0.2231445312,0.6796875000,-0.1333007812,0.5493164062,-1.2207031250,-0.8850097656
0.0239338875,-0.2231445312,0.6796875000,-0.1333007812,0.5493164062,-1.2207031250,-0.8087158203
0.0264940262,-0.2231445312,0.6796875000,-0.1333007812,0.3967285156,-1.5716552734,-0.8087158203
0.0291788578,-0.2231445312,0.6796875000,-0.1333007812,0.3967285156,-1.5716552734,-0.7324218750
0.0317430496,-0.2182617188,0.6762695312,-0.1337890625,0.5493164062,-1.8157958984,-0.7324218750
0.0342988968,-0.2182617188,0.6762695312,-0.1337890625,0.5493164062,-1.8157958984,-0.7324218750
0.0368700027,-0.2182617188,0.6762695312,-0.1337890625,0.4272460938,-1.6479492188,-0.8544921875
0.0395328999,-0.2182617188,0.6762695312,-0.1333007812,0.4272460938,-1.6479492188,-0.8544921875
0.0420958996,-0.2236328125,0.6806640625,-0.1333007812,0.4730224609,-1.8005371094,-0.7781982422
0.0449390411,-0.2236328125,0.6806640625,-0.1333007812,0.4730224609,-1.8005371094,-0.7781982422
0.0475080013,-0.2236328125,0.6806640625,-0.1333007812,-0.0152587891,-1.7852783203,-0.7019042969
0.0505490303,-0.2172851562,0.6811523438,-0.1367187500,-0.0152587891,-1.7852783203,-0.7019042969
0.0534119606,-0.2172851562,0.6811523438,-0.1367187500,-0.0457763672,-1.7700195312,-0.9307861328
0.0561099052,-0.2172851562,0.6811523438,-0.1367187500,-0.0457763672,-1.7700195312,-1.1596679688
0.0588638783,-0.2172851562,0.6811523438,-0.1367187500,0.7934570312,-2.0599365234,-1.1596679688
0.0615599155,-0.2172851562,0.6733398438,-0.1396484375,0.7934570312,-2.0599365234,-1.1596679688
0.0642590523,-0.2172851562,0.6733398438,-0.1396484375,1.1596679688,-1.7852783203,-1.1291503906
0.0669560432,-0.2172851562,0.6733398438,-0.1396484375,1.1596679688,-1.7852783203,-1.1291503906
0.0696630478,-0.2172851562,0.6733398438,-0.1352539062,0.5950927734,-1.3732910156,-1.0833740234
0.0723669529,-0.2202148438,0.6762695312,-0.1352539062,0.5950927734,-1.3732910156,-1.0833740234
0.0750589371,-0.2202148438,0.6762695312,-0.1352539062,0.7324218750,-1.3427734375,-0.9918212891
0.0777938366,-0.2202148438,0.6762695312,-0.1352539062,0.7324218750,-1.3427734375,-0.9918212891
0.0803630352,-0.2202148438,0.6748046875,-0.1401367188,0.7476806641,-1.5258789062,-0.9155273438
0.0829269886,-0.2270507812,0.6748046875,-0.1401367188,0.7476806641,-1.5258789062,-0.9155273438
0.0854959488,-0.2270507812,0.6748046875,-0.1401367188,0.7171630859,-1.3275146484,-0.9002685547
0.0881009102,-0.2270507812,0.6748046875,-0.1401367188,0.7171630859,-1.3275146484,-0.9002685547
0.0906670094,-0.2270507812,0.6791992188,-0.1455078125,0.4577636719,-1.1596679688,-1.0375976562
0.0932328701,-0.2197265625,0.6791992188,-0.1455078125,0.4577636719,-1.1596679688,-1.0375976562
0.0957958698,-0.2197265625,0.6791992188,-0.1455078125,0.6561279297,-0.8697509766,-1.0986328125
0.0984098911,-0.2197265625,0.6791992188,-0.1455078125,0.6561279297,-0.8697509766,-1.0986328125
0.1009838581,-0.2265625000,0.6757812500,-0.1391601562,0.2288818359,-0.9765625000,-1.0223388672
0.1035518646,-0.2265625000,0.6757812500,-0.1391601562,0.2288818359,-0.9765625000,-1.0223388672
0.1061229706,-0.2265625000,0.6757812500,-0.1391601562,0.1831054688,-0.9765625000,-1.4190673828
0.1089680195,-0.2265625000,0.6757812500,-0.1391601562,0.1831054688,-0.9765625000,-1.4190673828
0.1115419865,-0.2182617188,0.6743164062,-0.1416015625,0.3814697266,-1.1138916016,-1.0223388672
0.1141078472,-0.2182617188,0.6743164062,-0.1416015625,0.3814697266,-1.1138916016,-1.0223388672
0.1167800426,-0.2182617188,0.6743164062,-0.1416015625,0.1373291016,-1.2664794922,-1.0986328125
0.1195960045,-0.2182617188,0.6743164062,-0.1416015625,0.1373291016,-1.2664794922,-1.0986328125
0.1222519875,-0.2255859375,0.6821289062,-0.1323242188,0.4425048828,-0.9002685547,-1.1901855469
0.1256978512,-0.2255859375,0.6821289062,-0.1323242188,0.4425048828,-0.9002685547,-1.1901855469
0.1283249855,-0.2255859375,0.6821289062,-0.1323242188,0.2441406250,-0.7934570312,-0.9765625000
0.1308879852,-0.2255859375,0.6748046875,-0.1411132812,0.2441406250,-0.7934570312,-0.9765625000
0.1334500313,-0.2221679688,0.6748046875,-0.1411132812,-0.0152587891,-0.7476806641,-0.7476806641
0.1360130310,-0.2221679688,0.6748046875,-0.1411132812,-0.0152587891,-0.7476806641,-0.7476806641
0.1386308670,-0.2221679688,0.6748046875,-0.1411132812,3.8909912109,-1.0528564453,-1.2359619141
0.1411900520,-0.2221679688,0.6757812500,-0.1333007812,0.5035400391,-1.0528564453,-1.2359619141
0.1437468529,-0.2333984375,0.6757812500,-0.1333007812,0.5035400391,-1.0528564453,-1.2512207031
0.1463060379,-0.2333984375,0.6757812500,-0.1333007812,0.2899169922,-0.9613037109,-1.2512207031
0.1490130424,-0.2333984375,0.6757812500,-0.1333007812,0.2899169922,-0.9613037109,-1.1749267578
0.1515698433,-0.2260742188,0.6767578125,-0.1430664062,0.2899169922,-0.8697509766,-1.1749267578
0.1541278362,-0.2260742188,0.6767578125,-0.1430664062,0.2899169922,-0.8697509766,-1.1749267578
0.1566908360,-0.2260742188,0.6767578125,-0.1430664062,0.5950927734,-1.0375976562,-0.9613037109
0.1592559814,-0.2260742188,0.6767578125,-0.1430664062,0.5950927734,-1.0375976562,-0.9613037109
0.1618168354,-0.2319335938,0.6826171875,-0.1318359375,0.5493164062,-1.1444091797,-1.2664794922
0.1643738747,-0.2319335938,0.6826171875,-0.1318359375,0.5493164062,-1.1444091797,-1.2664794922
0.1669359207,-0.2319335938,0.6826171875,-0.1318359375,0.2441406250,-1.2512207031,-1.1749267578
0.1695499420,-0.2319335938,0.6826171875,-0.1318359375,0.2441406250,-1.2512207031,-1.1749267578
0.1721138954,-0.2338867188,0.6777343750,-0.1250000000,0.4272460938,-1.0375976562,-1.1444091797
0.1746768951,-0.2338867188,0.6777343750,-0.1250000000,0.4272460938,-1.0375976562,-1.1444091797
0.1772458553,-0.2338867188,0.6777343750,-0.1250000000,0.5035400391,-0.7629394531,-1.1901855469
0.1800279617,-0.2338867188,0.6777343750,-0.1250000000,0.5035400391,-0.7629394531,-1.1901855469
0.1825959682,-0.2299804688,0.6796875000,-0.1323242188,0.0152587891,-0.6561279297,-0.9918212891
0.1851608753,-0.2299804688,0.6796875000,-0.1323242188,0.0152587891,-0.6561279297,-0.9918212891
0.1877248287,-0.2299804688,0.6796875000,-0.1323242188,0.0000000000,-0.6866455078,-0.8850097656
0.1904878616,-0.2299804688,0.6796875000,-0.1323242188,0.0000000000,-0.6866455078,-0.8850097656
0.1931838989,-0.2319335938,0.6777343750,-0.1347656250,0.0152587891,-0.8087158203,-0.9307861328
0.1958768368,-0.2319335938,0.6777343750,-0.1347656250,0.0152587891,-0.8087158203,-0.9307861328
0.1985809803,-0.2319335938,0.6777343750,-0.1347656250,0.1525878906,-0.5493164062,-1.1596679688
0.2012779713,-0.2319335938,0.6777343750,-0.1352539062,0.1525878906,-0.5493164062,-1.1596679688
0.2039699554,-0.2373046875,0.6723632812,-0.1352539062,0.0305175781,-0.2899169922,-0.8697509766
0.2066669464,-0.2373046875,0.6723632812,-0.1352539062,0.0305175781,-0.2899169922,-0.8697509766
0.2093679905,-0.2373046875,0.6723632812,-0.1352539062,0.0305175781,-0.5645751953,-0.6408691406
0.2120659351,-0.2304687500,0.6796875000,-0.1279296875,0.0305175781,-0.5645751953,-0.6408691406
0.2147610188,-0.2304687500,0.6796875000,-0.1279296875,-3.8757324219,-0.7934570312,-1.1444091797
0.2174589634,-0.2304687500,0.6796875000,-0.1279296875,-0.0305175781,-0.7934570312,-1.1444091797
0.2200598717,-0.2304687500,0.6796875000,-0.1279296875,-0.0305175781,-0.6713867188,-0.9155273438
0.2226250172,-0.2290039062,0.6762695312,-0.1376953125,0.4730224609,-0.6713867188,-0.9155273438
0.2251868248,-0.2290039062,0.6762695312,-0.1376953125,0.4730224609,-0.6713867188,-0.6256103516
0.2277810574,-0.2290039062,0.6762695312,-0.1376953125,0.0915527344,-0.3356933594,-0.6256103516
0.2303428650,-0.2290039062,0.6762695312,-0.1376953125,0.0915527344,-0.3356933594,-0.6256103516
0.2329089642,-0.2294921875,0.6733398438,-0.1352539062,-0.0305175781,-0.2441406250,-0.3967285156
0.2356929779,-0.2294921875,0.6733398438,-0.1352539062,-0.0305175781,-0.2441406250,-0.3967285156
0.2384698391,-0.2294921875,0.6733398438,-0.1352539062,-0.1525878906,-0.3814697266,-0.6713867188
0.2411808968,-0.2294921875,0.6733398438,-0.1352539062,-0.1525878906,-0.3814697266,-0.6713867188
0.2439830303,-0.2324218750,0.6816406250,-0.1362304688,-0.1373291016,-0.4577636719,-0.6103515625
0.2466809750,-0.2324218750,0.6816406250,-0.1362304688,-0.1373291016,-0.4577636719,-0.6103515625
0.2493879795,-0.2324218750,0.6816406250,-0.1362304688,0.0152587891,-0.3051757812,-0.6103515625
0.2520899773,-0.2324218750,0.6723632812,-0.1293945312,0.0152587891,-0.3051757812,-0.4272460938
0.2547888756,-0.2285156250,0.6723632812,-0.1293945312,-0.1068115234,-0.0610351562,-0.4272460938
0.2574808598,-0.2285156250,0.6723632812,-0.1293945312,-0.1068115234,-0.0610351562,-0.4272460938
0.2601819038,-0.2285156250,0.6723632812,-0.1293945312,-0.3662109375,0.1525878906,-0.3662109375
0.2628819942,-0.2329101562,0.6723632812,-0.1289062500,-0.3662109375,0.1525878906,-0.3662109375
0.2655830383,-0.2329101562,0.6723632812,-0.1289062500,-0.4119873047,0.0610351562,-0.4272460938
0.2682738304,-0.2329101562,0.6723632812,-0.1289062500,-0.4119873047,0.0610351562,-0.4272460938
0.2708458900,-0.2329101562,0.6723632812,-0.1289062500,-0.7019042969,-0.2593994141,-0.4425048828
0.2734129429,-0.2246093750,0.6875000000,-0.1411132812,-0.7019042969,-0.2593994141,-0.4425048828
0.2759828568,-0.2246093750,0.6875000000,-0.1411132812,-0.4425048828,-0.0762939453,-0.3204345703
0.2785558701,-0.2246093750,0.6875000000,-0.1411132812,-0.4425048828,-0.0762939453,-0.3204345703
0.2811179161,-0.2246093750,0.6875000000,-0.1411132812,-0.4119873047,0.2288818359,-0.3814697266
0.2836849689,-0.2304687500,0.6777343750,-0.1381835938,-0.4119873047,0.2288818359,-0.3814697266
0.2862479687,-0.2304687500,0.6777343750,-0.1381835938,0.2746582031,-0.3509521484,-0.8544921875
0.2889728546,-0.2304687500,0.6777343750,-0.1381835938,0.2746582031,-0.3509521484,-0.8544921875
0.2915349007,-0.2304687500,0.6777343750,-0.1381835938,-0.1525878906,0.0000000000,-0.3967285156
0.2941000462,-0.2270507812,0.6757812500,-0.1240234375,-0.1525878906,0.0000000000,-0.3967285156
0.2966718674,-0.2270507812,0.6757812500,-0.1240234375,-0.3967285156,0.3051757812,-0.5035400391
0.2994568348,-0.2270507812,0.6757812500,-0.1240234375,-0.3967285156,0.3051757812,-0.5035400391
0.3021569252,-0.2270507812,0.6757812500,-0.1362304688,-0.4730224609,0.1373291016,-0.5035400391
0.3048479557,-0.2211914062,0.6840820312,-0.1362304688,-0.4730224609,0.1373291016,-0.5035400391
0.3076539040,-0.2211914062,0.6840820312,-0.1362304688,-0.2899169922,0.4119873047,-0.3814697266
0.3103599548,-0.2211914062,0.6840820312,-0.1362304688,-0.2899169922,0.4119873047,-0.3814697266
0.3130578995,-0.2163085938,0.6782226562,-0.1367187500,-0.3967285156,-0.0305175781,-0.3662109375
0.3158178329,-0.2163085938,0.6782226562,-0.1367187500,-0.3967285156,-0.0305175781,-0.3662109375
0.3185939789,-0.2163085938,0.6782226562,-0.1367187500,-0.3662109375,0.6713867188,-0.4119873047
0.3212568760,-0.2163085938,0.6782226562,-0.1367187500,-0.3662109375,0.6713867188,-0.4119873047
0.3244738579,-0.2260742188,0.6816406250,-0.1347656250,-0.2288818359,0.3509521484,-0.3204345703
0.3270349503,-0.2260742188,0.6816406250,-0.1347656250,-0.2288818359,0.3509521484,-0.3204345703
0.3296530247,-0.2260742188,0.6816406250,-0.1347656250,-0.2593994141,0.2441406250,-0.2899169922
0.3322210312,-0.2260742188,0.6816406250,-0.1347656250,-0.2593994141,0.2441406250,-0.2899169922
0.3347790241,-0.2270507812,0.6684570312,-0.1342773438,-0.4577636719,0.2441406250,-0.3356933594
0.3373470306,-0.2270507812,0.6684570312,-0.1342773438,-0.4577636719,0.2441406250,-0.3356933594
0.3399670124,-0.2270507812,0.6684570312,-0.1342773438,-0.4577636719,0.1068115234,-0.4577636719
0.3425190449,-0.2270507812,0.6684570312,-0.1347656250,-0.8239746094,0.1068115234,-0.4577636719
0.3450858593,-0.2275390625,0.6733398438,-0.1347656250,-0.8239746094,0.1068115234,-0.3662109375
0.3476469517,-0.2275390625,0.6733398438,-0.1347656250,-0.7019042969,0.0762939453,-0.3662109375
0.3502240181,-0.2275390625,0.6733398438,-0.1347656250,-0.7019042969,0.0762939453,-0.2288818359
0.3527929783,-0.2275390625,0.6733398438,-0.1298828125,-0.8087158203,0.3509521484,-0.2288818359
0.3553578854,-0.2304687500,0.6816406250,-0.1298828125,-0.8087158203,0.3509521484,-0.2288818359
0.3579230309,-0.2304687500,0.6816406250,-0.1298828125,-1.2359619141,0.2441406250,-0.3814697266
0.3604838848,-0.2304687500,0.6816406250,-0.1298828125,-1.2359619141,0.2441406250,-0.3814697266
0.3630440235,-0.2304687500,0.6811523438,-0.1372070312,-1.0375976562,0.2136230469,-0.8544921875
0.3656108379,-0.2241210938,0.6811523438,-0.1372070312,-1.0375976562,0.2136230469,-0.8544921875
0.3682379723,-0.2241210938,0.6811523438,-0.1372070312,-1.0528564453,0.4425048828,-0.3967285156
0.3708999157,-0.2241210938,0.6811523438,-0.1372070312,-1.0528564453,0.4425048828,-0.3967285156
0.3734698296,-0.2241210938,0.6752929688,-0.1450195312,-1.0223388672,0.3662109375,-0.3204345703
0.3760290146,-0.2246093750,0.6752929688,-0.1450195312,-1.0223388672,0.3662109375,-0.3204345703
0.3787598610,-0.2246093750,0.6752929688,-0.1450195312,-0.6561279297,0.2441406250,-0.5950927734
0.3813240528,-0.2246093750,0.6752929688,-0.1450195312,-0.6561279297,0.2441406250,-0.5950927734
0.3838829994,-0.2197265625,0.6821289062,-0.1450195312,-0.1983642578,0.0305175781,-0.5493164062
0.3864510059,-0.2197265625,0.6821289062,-0.1450195312,-0.1983642578,0.0305175781,-0.5493164062
0.3890860081,-0.2197265625,0.6821289062,-0.1450195312,-0.5340576172,0.3814697266,-0.3967285156
0.3916440010,-0.2197265625,0.6821289062,-0.1450195312,-0.5340576172,0.3814697266,-0.3967285156
0.3942129612,-0.2231445312,0.6791992188,-0.1328125000,-0.5340576172,0.6256103516,-0.5493164062
0.3967709541,-0.2231445312,0.6791992188,-0.1328125000,-0.4577636719,0.6256103516,-0.5493164062
0.3996279240,-0.2231445312,0.6791992188,-0.1328125000,-0.4577636719,0.6256103516,-0.4425048828
0.4021959305,-0.2231445312,0.6791992188,-0.1328125000,-0.3814697266,0.3356933594,-0.4425048828
0.4047620296,-0.2226562500,0.6826171875,-0.1303710938,-0.3814697266,0.3356933594,-0.5798339844
0.4073328972,-0.2226562500,0.6826171875,-0.1303710938,-0.5493164062,0.0457763672,-0.5798339844
0.4101719856,-0.2226562500,0.6826171875,-0.1303710938,-0.5493164062,0.0457763672,-0.5187988281
0.4128339291,-0.2226562500,0.6826171875,-0.1347656250,-0.2746582031,-0.0305175781,-0.5187988281
0.4157629013,-0.2246093750,0.6787109375,-0.1347656250,-0.2746582031,-0.0305175781,-0.4119873047
0.4184439182,-0.2246093750,0.6787109375,-0.1347656250,-0.2288818359,-0.0305175781,-0.4119873047
0.4210119247,-0.2246093750,0.6787109375,-0.1347656250,-0.2288818359,-0.0305175781,-0.5950927734
0.4235758781,-0.2246093750,0.6728515625,-0.1337890625,-0.3662109375,-0.0152587891,-0.5950927734
0.4261479378,-0.2280273438,0.6728515625,-0.1337890625,-0.3662109375,-0.0152587891,-0.5950927734
0.4287798405,-0.2280273438,0.6728515625,-0.1337890625,-0.2441406250,0.1678466797,-0.3509521484
0.4314789772,-0.2280273438,0.6728515625,-0.1337890625,-0.2441406250,0.1678466797,-0.3509521484
0.4341819286,-0.2265625000,0.6821289062,-0.1342773438,0.1678466797,-0.0762939453,-0.5950927734
0.4369938374,-0.2265625000,0.6821289062,-0.1342773438,0.1678466797,-0.0762939453,-0.5950927734
0.4397058487,-0.2265625000,0.6821289062,-0.1342773438,0.4272460938,-0.5340576172,-1.1596679688
0.4428498745,-0.2265625000,0.6821289062,-0.1289062500,0.2593994141,-0.5187988281,-0.9613037109
0.4461538792,-0.2202148438,0.6791992188,-0.1289062500,0.2593994141,-0.5187988281,-0.9613037109
0.4488239288,-0.2202148438,0.6791992188,-0.1289062500,0.2593994141,-0.5035400391,-1.2512207031
0.4513888359,-0.2202148438,0.6791992188,-0.1289062500,0.3204345703,-0.5035400391,-1.2512207031
0.4539489746,-0.2202148438,0.6772460938,-0.1347656250,0.3204345703,-0.5035400391,-0.8239746094
0.4565169811,-0.2260742188,0.6772460938,-0.1347656250,0.1983642578,-0.2899169922,-0.8239746094
0.4591569901,-0.2260742188,0.6772460938,-0.1347656250,0.1983642578,-0.2899169922,-0.8697509766
0.4618539810,-0.2260742188,0.6772460938,-0.1347656250,0.0762939453,-0.4577636719,-0.8697509766
0.4645550251,-0.2309570312,0.6777343750,-0.1289062500,0.0762939453,-0.4577636719,-1.0528564453
0.4672489166,-0.2309570312,0.6777343750,-0.1289062500,0.4577636719,-0.8850097656,-1.0528564453
0.4698588848,-0.2309570312,0.6777343750,-0.1289062500,0.4577636719,-0.8850097656,-1.0528564453
0.4724259377,-0.2309570312,0.6777343750,-0.1289062500,0.5493164062,-0.5340576172,-0.8239746094
0.4749920368,-0.2246093750,0.6762695312,-0.1396484375,0.5493164062,-0.5340576172,-0.8239746094
0.4775600433,-0.2246093750,0.6762695312,-0.1396484375,0.2593994141,-0.4272460938,-0.4730224609
0.4801690578,-0.2246093750,0.6762695312,-0.1396484375,0.2593994141,-0.4272460938,-0.4730224609
0.4827349186,-0.2246093750,0.6762695312,-0.1396484375,0.1831054688,-0.6256103516,-0.6103515625
0.4853010178,-0.2309570312,0.6762695312,-0.1464843750,0.1831054688,-0.6256103516,-0.6103515625
0.4879310131,-0.2309570312,0.6762695312,-0.1464843750,0.4119873047,-0.6713867188,-0.8850097656
0.4905128479,-0.2309570312,0.6762695312,-0.1464843750,0.4119873047,-0.6713867188,-0.8850097656
0.4930789471,-0.2309570312,0.6762695312,-0.1464843750,0.2746582031,-0.7171630859,-0.8544921875
0.4956438541,-0.2309570312,0.6777343750,-0.1362304688,0.2746582031,-0.7171630859,-0.8544921875
0.4984538555,-0.2309570312,0.6777343750,-0.1362304688,0.5187988281,-0.5493164062,-1.2512207031
0.5012760162,-0.2309570312,0.6777343750,-0.1362304688,0.5187988281,-0.5493164062,-1.2512207031
0.5039749146,-0.2309570312,0.6777343750,-0.1352539062,-0.0152587891,-0.5950927734,-0.7171630859
0.5066728592,-0.2324218750,0.6738281250,-0.1352539062,-0.0152587891,-0.5950927734,-0.7171630859
0.5093789101,-0.2324218750,0.6738281250,-0.1352539062,-0.3814697266,-0.5187988281,-0.5340576172
0.5120749474,-0.2324218750,0.6738281250,-0.1352539062,-0.3814697266,-0.5187988281,-0.5340576172
0.5147700310,-0.2324218750,0.6791992188,-0.1279296875,-0.0457763672,-0.4730224609,-0.8239746094
0.5174648762,-0.2343750000,0.6791992188,-0.1279296875,-0.0457763672,-0.4730224609,-0.8239746094
0.5200619698,-0.2343750000,0.6791992188,-0.1279296875,0.0915527344,-0.8392333984,-0.9002685547
0.5226199627,-0.2343750000,0.6791992188,-0.1279296875,0.0915527344,-0.8392333984,-0.9002685547
0.5251829624,-0.2275390625,0.6811523438,-0.1259765625,0.1831054688,-0.5493164062,-0.9155273438
0.5277869701,-0.2275390625,0.6811523438,-0.1259765625,0.1831054688,-0.5493164062,-0.9155273438
0.5303540230,-0.2275390625,0.6811523438,-0.1259765625,0.1831054688,-0.4577636719,-0.7324218750
0.5329179764,-0.2275390625,0.6811523438,-0.1259765625,-0.0305175781,-0.4577636719,-0.7324218750
0.5354819298,-0.2387695312,0.6777343750,-0.1289062500,-0.0305175781,-0.4577636719,-0.7934570312
0.5381100178,-0.2387695312,0.6777343750,-0.1289062500,-0.1831054688,-0.3051757812,-0.7934570312
0.5408070087,-0.2387695312,0.6777343750,-0.1289062500,-0.1831054688,-0.3051757812,-0.6866455078
0.5435059071,-0.2387695312,0.6777343750,-0.1289062500,-0.5035400391,-0.0152587891,-0.6866455078
0.5462038517,-0.2250976562,0.6796875000,-0.1303710938,-0.5035400391,-0.0152587891,-0.5798339844
0.5489208698,-0.2250976562,0.6796875000,-0.1303710938,-0.7019042969,-0.2136230469,-0.5798339844
0.5516140461,-0.2250976562,0.6796875000,-0.1303710938,-0.7019042969,-0.2136230469,-0.4425048828
0.5544128418,-0.2250976562,0.6796875000,-0.1284179688,-0.4119873047,-0.4730224609,-0.4425048828
0.5571179390,-0.2260742188,0.6826171875,-0.1284179688,-0.4119873047,-0.4730224609,-0.8850097656
0.5597598553,-0.2260742188,0.6826171875,-0.1284179688,0.5035400391,-0.7324218750,-0.8850097656
0.5623319149,-0.2260742188,0.6826171875,-0.1284179688,0.5035400391,-0.7324218750,-0.8850097656
0.5650069714,-0.2260742188,0.6816406250,-0.1376953125,0.2136230469,-0.5950927734,-0.6408691406
0.5675709248,-0.2280273438,0.6816406250,-0.1376953125,0.2136230469,-0.5950927734,-0.6408691406
0.5703089237,-0.2280273438,0.6816406250,-0.1376953125,0.0762939453,-0.7781982422,-0.9002685547
0.5730059147,-0.2280273438,0.6816406250,-0.1376953125,0.0762939453,-0.7781982422,-0.9002685547
0.5757029057,-0.2260742188,0.6821289062,-0.1328125000,0.9155273438,-0.6256103516,-1.0528564453
0.5784020424,-0.2260742188,0.6821289062,-0.1328125000,0.9155273438,-0.6256103516,-1.0528564453
0.5810949802,-0.2260742188,0.6821289062,-0.1328125000,0.8087158203,-0.7324218750,-0.9460449219
0.5837979317,-0.2260742188,0.6821289062,-0.1328125000,0.8087158203,-0.7324218750,-0.9460449219
0.5864999294,-0.2250976562,0.6767578125,-0.1298828125,0.1220703125,-0.8239746094,-1.2054443359
0.5891380310,-0.2250976562,0.6767578125,-0.1298828125,0.1220703125,-0.8239746094,-1.2054443359
0.5917060375,-0.2250976562,0.6767578125,-0.1298828125,0.1373291016,-0.9918212891,-0.7629394531
0.5942709446,-0.2250976562,0.6767578125,-0.1298828125,0.1373291016,-0.9918212891,-0.7629394531
0.5968420506,-0.2226562500,0.6821289062,-0.1328125000,0.3204345703,-1.1596679688,-0.6866455078
0.5995299816,-0.2226562500,0.6821289062,-0.1328125000,0.3204345703,-1.1596679688,-0.6866455078
0.6020939350,-0.2226562500,0.6821289062,-0.1328125000,0.3509521484,-0.9918212891,-0.6561279297
0.6046609879,-0.2226562500,0.6821289062,-0.1328125000,0.3509521484,-0.9918212891,-0.6561279297
0.6072258949,-0.2216796875,0.6811523438,-0.1328125000,0.4882812500,-0.9307861328,-0.9613037109
0.6099100113,-0.2216796875,0.6811523438,-0.1328125000,0.4882812500,-0.9307861328,-0.9613037109
0.6124768257,-0.2216796875,0.6811523438,-0.1328125000,0.5187988281,-0.9155273438,-0.9307861328
0.6150410175,-0.2216796875,0.6811523438,-0.1298828125,0.5187988281,-0.9155273438,-0.9307861328
0.6176118851,-0.2216796875,0.6787109375,-0.1298828125,0.0915527344,-0.3662109375,-0.5950927734
0.6203160286,-0.2216796875,0.6787109375,-0.1298828125,0.0915527344,-0.3662109375,-0.5950927734
0.6230108738,-0.2216796875,0.6787109375,-0.1298828125,0.0915527344,-0.7324218750,-0.7324218750
0.6257119179,-0.2216796875,0.6821289062,-0.1445312500,0.0457763672,-0.7324218750,-0.7324218750
0.6285550594,-0.2255859375,0.6821289062,-0.1445312500,0.6408691406,-1.1444091797,-1.0528564453
0.6312489510,-0.2255859375,0.6821289062,-0.1445312500,0.6408691406,-1.1444091797,-1.0528564453
0.6339468956,-0.2255859375,0.6821289062,-0.1445312500,0.8239746094,-0.7019042969,-0.9002685547
0.6366388798,-0.2241210938,0.6801757812,-0.1372070312,0.8239746094,-0.7019042969,-0.9002685547
0.6393549442,-0.2241210938,0.6801757812,-0.1372070312,0.8239746094,-0.6256103516,-0.9307861328
0.6420509815,-0.2241210938,0.6801757812,-0.1372070312,0.5340576172,-0.6256103516,-0.9307861328
0.6447458267,-0.2241210938,0.6801757812,-0.1372070312,0.5340576172,-0.8697509766,-1.0986328125
0.6474499702,-0.2265625000,0.6757812500,-0.1303710938,0.4882812500,-0.8697509766,-1.0986328125
0.6501560211,-0.2265625000,0.6757812500,-0.1303710938,0.6103515625,-0.7476806641,-1.0070800781
0.6528978348,-0.2265625000,0.6757812500,-0.1303710938,0.6103515625,-0.7476806641,-1.0070800781
0.6554648876,-0.2265625000,0.6757812500,-0.1323242188,0.6103515625,-0.5493164062,-0.9765625000
0.6582038403,-0.2246093750,0.6806640625,-0.1323242188,0.2593994141,-0.5493164062,-0.9765625000
0.6607689857,-0.2246093750,0.6806640625,-0.1323242188,0.2593994141,-0.5493164062,-0.8697509766
0.6634190083,-0.2246093750,0.6806640625,-0.1323242188,0.5340576172,-0.7019042969,-0.8697509766
0.6659848690,-0.2246093750,0.6796875000,-0.1430664062,0.5340576172,-0.8392333984,-1.0070800781
0.6689839363,-0.2265625000,0.6796875000,-0.1430664062,0.5950927734,-0.8392333984,-1.0070800781
0.6716849804,-0.2265625000,0.6796875000,-0.1430664062,0.5950927734,-0.8392333984,-1.1138916016
0.6743888855,-0.2265625000,0.6796875000,-0.1430664062,0.3356933594,-0.6103515625,-1.1138916016
0.6770849228,-0.2250976562,0.6767578125,-0.1391601562,0.3356933594,-0.6103515625,-0.7781982422
0.6797809601,-0.2250976562,0.6767578125,-0.1391601562,0.3814697266,-0.6713867188,-0.7781982422
0.6824748516,-0.2250976562,0.6767578125,-0.1391601562,0.3814697266,-0.6713867188,-1.7089843750
0.6851739883,-0.2250976562,0.6767578125,-0.1391601562,0.6408691406,-1.0986328125,-1.7089843750
0.6878838539,-0.2290039062,0.6796875000,-0.1293945312,0.6408691406,-1.0986328125,-1.4801025391
0.6905798912,-0.2290039062,0.6796875000,-0.1293945312,0.7934570312,-0.8392333984,-1.4801025391
0.6933798790,-0.2290039062,0.6796875000,-0.1293945312,0.7934570312,-0.8392333984,-1.0070800781
0.6960780621,-0.2290039062,0.6796875000,-0.1323242188,0.5645751953,-0.7324218750,-1.0070800781
0.6987428665,-0.2290039062,0.6782226562,-0.1323242188,0.5645751953,-0.7324218750,-1.0375976562
0.7013108730,-0.2290039062,0.6782226562,-0.1323242188,0.2441406250,-0.8087158203,-1.0375976562
0.7038760185,-0.2290039062,0.6782226562,-0.1323242188,0.2441406250,-0.8087158203,-1.0375976562
0.7064378262,-0.2290039062,0.6801757812,-0.1396484375,0.3967285156,-0.7324218750,-1.2512207031
0.7090468407,-0.2231445312,0.6801757812,-0.1396484375,0.3967285156,-0.7324218750,-1.2512207031
0.7116110325,-0.2231445312,0.6801757812,-0.1396484375,0.4119873047,-0.8239746094,-1.2359619141
0.7141740322,-0.2231445312,0.6801757812,-0.1396484375,0.4119873047,-0.8239746094,-1.2359619141
0.7167370319,-0.2231445312,0.6762695312,-0.1425781250,0.1831054688,-0.7476806641,-1.5563964844
0.7194030285,-0.2250976562,0.6762695312,-0.1425781250,0.1831054688,-0.7476806641,-1.5563964844
0.7219710350,-0.2250976562,0.6762695312,-0.1425781250,0.3356933594,-0.6866455078,-1.6021728516
0.7245328426,-0.2250976562,0.6762695312,-0.1425781250,0.3356933594,-0.6866455078,-1.6021728516
0.7270970345,-0.2368164062,0.6738281250,-0.1279296875,0.3662109375,-0.5645751953,-1.1138916016
0.7298698425,-0.2368164062,0.6738281250,-0.1279296875,0.3662109375,-0.5645751953,-1.1138916016
0.7325689793,-0.2368164062,0.6738281250,-0.1279296875,0.2136230469,-0.5187988281,-1.1444091797
0.7352628708,-0.2368164062,0.6738281250,-0.1279296875,0.2136230469,-0.5187988281,-1.1444091797
0.7380118370,-0.2333984375,0.6821289062,-0.1337890625,-0.0762939453,-0.1983642578,-0.9918212891
0.7407088280,-0.2333984375,0.6821289062,-0.1337890625,-0.0762939453,-0.1983642578,-0.9918212891
0.7434039116,-0.2333984375,0.6821289062,-0.1337890625,0.2441406250,-0.2593994141,-1.0223388672
0.7460999489,-0.2333984375,0.6821289062,-0.1337890625,0.2441406250,-0.2593994141,-1.0223388672
0.7487978935,-0.2309570312,0.6748046875,-0.1298828125,0.4425048828,-0.3814697266,-1.1596679688
0.7514939308,-0.2309570312,0.6748046875,-0.1298828125,0.4425048828,-0.3814697266,-1.1596679688
0.7541899681,-0.2309570312,0.6748046875,-0.1298828125,0.0915527344,-0.3509521484,-1.3732910156
0.7569918633,-0.2309570312,0.6782226562,-0.1416015625,0.0915527344,-0.3509521484,-1.3732910156
0.7596149445,-0.2192382812,0.6782226562,-0.1416015625,0.5035400391,-0.3356933594,-1.4038085938
0.7621819973,-0.2192382812,0.6782226562,-0.1416015625,0.5035400391,-0.3356933594,-1.4038085938
0.7647500038,-0.2192382812,0.6782226562,-0.1416015625,0.5798339844,-0.3662109375,-1.3122558594
0.7673099041,-0.2192382812,0.6782226562,-0.1347656250,0.5798339844,-0.3662109375,-1.3122558594
0.7699718475,-0.2329101562,0.6782226562,-0.1347656250,0.5798339844,-0.2136230469,-1.6326904297
0.7725398540,-0.2329101562,0.6782226562,-0.1347656250,0.2899169922,-0.2136230469,-1.6326904297
0.7751049995,-0.2329101562,0.6782226562,-0.1347656250,0.2899169922,-0.2136230469,-1.3580322266
0.7776708603,-0.2260742188,0.6845703125,-0.1352539062,0.5950927734,-0.3356933594,-1.3580322266
0.7804129124,-0.2260742188,0.6845703125,-0.1352539062,0.5950927734,-0.3356933594,-1.7242431641
0.7830839157,-0.2260742188,0.6845703125,-0.1352539062,0.6256103516,-0.3967285156,-1.7242431641
0.7858698368,-0.2260742188,0.6845703125,-0.1352539062,0.6256103516,-0.3967285156,-1.1291503906
0.7888989449,-0.2314453125,0.6821289062,-0.1372070312,0.1525878906,-0.0305175781,-1.1291503906
0.7916049957,-0.2314453125,0.6821289062,-0.1372070312,-3.7536621094,-0.0457763672,-1.0070800781
0.7943029404,-0.2314453125,0.6821289062,-0.1372070312,-0.1220703125,-0.0457763672,-1.0070800781
0.7969968319,-0.2314453125,0.6821289062,-0.1259765625,-0.1220703125,0.1068115234,-1.7089843750
0.7997100353,-0.2373046875,0.6782226562,-0.1259765625,0.2288818359,0.1068115234,-1.7089843750
0.8024108410,-0.2373046875,0.6782226562,-0.1259765625,0.2288818359,-0.1525878906,-1.4648437500
0.8051018715,-0.2373046875,0.6782226562,-0.1259765625,0.6866455078,-0.1525878906,-1.4648437500
0.8078110218,-0.2304687500,0.6772460938,-0.1337890625,0.6866455078,-0.2136230469,-1.2512207031
0.8105030060,-0.2304687500,0.6772460938,-0.1337890625,0.3509521484,-0.2136230469,-1.2512207031
0.8132019043,-0.2304687500,0.6772460938,-0.1337890625,0.3509521484,3.6926269531,-1.4648437500
0.8158948421,-0.2304687500,0.6772460938,-0.1337890625,0.0915527344,0.0152587891,-1.4648437500
0.8185670376,-0.2250976562,0.6816406250,-0.1279296875,0.0915527344,-3.8909912109,-1.4190673828
0.8212389946,-0.2250976562,0.6816406250,-0.1279296875,0.5187988281,-0.1068115234,-1.4190673828
0.8238070011,-0.2250976562,0.6816406250,-0.1279296875,0.5187988281,-0.1068115234,-1.2969970703
0.8263709545,-0.2250976562,0.6816406250,-0.1279296875,0.1068115234,-0.1831054688,-1.2969970703
0.8289458752,-0.2324218750,0.6806640625,-0.1381835938,0.1068115234,-0.1831054688,-1.2969970703
0.8315110207,-0.2324218750,0.6806640625,-0.1381835938,0.3051757812,-0.3051757812,-1.2207031250
0.8340778351,-0.2324218750,0.6806640625,-0.1381835938,0.3051757812,-0.3051757812,-1.2207031250
0.8366429806,-0.2324218750,0.6806640625,-0.1381835938,0.5187988281,-0.0915527344,-0.9765625000
0.8393499851,-0.2285156250,0.6772460938,-0.1367187500,0.5187988281,-0.0915527344,-0.9765625000
0.8419189453,-0.2285156250,0.6772460938,-0.1367187500,0.8392333984,-0.1220703125,-1.0375976562
0.8444869518,-0.2285156250,0.6772460938,-0.1367187500,0.8392333984,-0.1220703125,-1.0375976562
0.8470549583,-0.2285156250,0.6772460938,-0.1367187500,0.5950927734,-0.3051757812,-1.0681152344
0.8498229980,-0.2280273438,0.6782226562,-0.1474609375,0.5950927734,-0.3051757812,-1.0681152344
0.8525190353,-0.2280273438,0.6782226562,-0.1474609375,0.3356933594,0.0457763672,-1.0223388672
0.8552069664,-0.2280273438,0.6782226562,-0.1474609375,0.3356933594,0.0457763672,-1.0223388672
0.8579118252,-0.2280273438,0.6772460938,-0.1269531250,0.3356933594,-0.1678466797,-0.7629394531
0.8604719639,-0.2309570312,0.6772460938,-0.1269531250,0.3356933594,-0.1678466797,-0.7629394531
0.8630330563,-0.2309570312,0.6772460938,-0.1269531250,0.5645751953,-0.2136230469,-1.1138916016
0.8655989170,-0.2309570312,0.6772460938,-0.1269531250,0.5645751953,-0.2136230469,-1.1138916016
0.8681850433,-0.2309570312,0.6787109375,-0.1357421875,0.9002685547,-0.1220703125,-1.5106201172
0.8708839417,-0.2265625000,0.6787109375,-0.1357421875,0.9002685547,-0.1220703125,-1.5106201172
0.8735840321,-0.2265625000,0.6787109375,-0.1357421875,0.8544921875,-0.1068115234,-1.3580322266
0.8762760162,-0.2265625000,0.6787109375,-0.1357421875,0.8544921875,-0.1068115234,-1.3580322266
0.8789770603,-0.2319335938,0.6777343750,-0.1318359375,0.6256103516,-0.0762939453,-1.1749267578
0.8816678524,-0.2319335938,0.6777343750,-0.1318359375,0.6256103516,-0.0762939453,-1.1749267578
0.8844728470,-0.2319335938,0.6777343750,-0.1318359375,0.9002685547,-0.0610351562,-1.1444091797
0.8871698380,-0.2319335938,0.6777343750,-0.1318359375,0.9002685547,-0.0610351562,-1.1444091797
0.8898799419,-0.2265625000,0.6801757812,-0.1342773438,0.7171630859,0.1831054688,-1.4343261719
0.8925769329,-0.2265625000,0.6801757812,-0.1342773438,0.7171630859,0.1831054688,-1.4343261719
0.8952729702,-0.2265625000,0.6801757812,-0.1342773438,0.9002685547,-0.0305175781,-1.4648437500
0.8980219364,-0.2265625000,0.6801757812,-0.1406250000,0.9002685547,-0.0305175781,-1.4648437500
0.9007229805,-0.2329101562,0.6738281250,-0.1406250000,0.3662109375,-0.0457763672,-1.4038085938
0.9034178257,-0.2329101562,0.6738281250,-0.1406250000,0.3662109375,-0.0457763672,-1.4038085938
0.9063270092,-0.2329101562,0.6738281250,-0.1406250000,0.4882812500,-0.1068115234,-1.2817382812
0.9094119072,-0.2382812500,0.6840820312,-0.1411132812,0.4882812500,-0.1068115234,-1.2817382812
0.9119830132,-0.2382812500,0.6840820312,-0.1411132812,0.2899169922,-0.0305175781,-1.1291503906
0.9145498276,-0.2382812500,0.6840820312,-0.1411132812,0.2899169922,-0.0305175781,-1.1291503906
0.9171109200,-0.2382812500,0.6840820312,-0.1411132812,0.7171630859,0.2441406250,-1.6174316406
0.9197838306,-0.2304687500,0.6840820312,-0.1406250000,0.7171630859,0.2441406250,-1.6174316406
0.9224760532,-0.2304687500,0.6840820312,-0.1406250000,1.0375976562,0.5798339844,-1.2512207031
0.9251718521,-0.2304687500,0.6840820312,-0.1406250000,1.0375976562,0.5798339844,-1.2512207031
0.9278779030,-0.2304687500,0.6840820312,-0.1406250000,1.0375976562,0.1983642578,-0.8850097656
0.9305739403,-0.2309570312,0.6787109375,-0.1386718750,1.0375976562,0.1983642578,-0.8850097656
0.9332699776,-0.2309570312,0.6787109375,-0.1386718750,1.0375976562,0.5340576172,-1.4190673828
0.9359669685,-0.2309570312,0.6787109375,-0.1386718750,1.0528564453,0.5340576172,-1.4190673828
0.9386420250,-0.2309570312,0.6777343750,-0.1376953125,1.0528564453,0.3356933594,-1.5411376953
0.9412109852,-0.2299804688,0.6777343750,-0.1376953125,0.8544921875,0.3356933594,-1.5411376953
0.9437780380,-0.2299804688,0.6777343750,-0.1376953125,0.8544921875,0.3356933594,-1.4801025391
0.9463379383,-0.2299804688,0.6777343750,-0.1376953125,0.0000000000,0.2288818359,-1.4801025391
0.9490249157,-0.2299804688,0.6743164062,-0.1386718750,0.0000000000,0.2288818359,-1.2969970703
0.9515929222,-0.2333984375,0.6743164062,-0.1386718750,0.3356933594,0.5493164062,-1.2969970703
0.9541599751,-0.2333984375,0.6743164062,-0.1386718750,0.3356933594,0.5493164062,-1.2969970703
0.9567248821,-0.2333984375,0.6743164062,-0.1386718750,0.6713867188,0.5340576172,-1.3732910156
0.9594099522,-0.2294921875,0.6791992188,-0.1416015625,0.6713867188,0.5340576172,-1.3732910156
0.9619798660,-0.2294921875,0.6791992188,-0.1416015625,0.6561279297,0.4577636719,-1.4343261719
0.9645469189,-0.2294921875,0.6791992188,-0.1416015625,0.6561279297,0.4577636719,-1.4343261719
0.9671099186,-0.2294921875,0.6791992188,-0.1416015625,0.8087158203,0.4730224609,-1.2664794922
0.9698679447,-0.2329101562,0.6743164062,-0.1376953125,0.8087158203,0.4730224609,-1.2664794922
0.9725630283,-0.2329101562,0.6743164062,-0.1376953125,0.5340576172,0.4730224609,-1.2207031250
0.9752588272,-0.2329101562,0.6743164062,-0.1376953125,0.5340576172,0.4730224609,-1.2207031250
0.9780089855,-0.2329101562,0.6743164062,-0.1376953125,0.3814697266,0.5493164062,-1.1138916016
0.9807028770,-0.2329101562,0.6831054688,-0.1372070312,0.3814697266,0.5493164062,-1.1138916016
0.9833979607,-0.2329101562,0.6831054688,-0.1372070312,0.2288818359,0.5340576172,-1.1444091797
0.9860918522,-0.2329101562,0.6831054688,-0.1372070312,0.2288818359,0.5340576172,-1.1444091797
0.9887928963,-0.2329101562,0.6831054688,-0.1406250000,0.1983642578,0.6866455078,-1.3732910156
0.9914908409,-0.2270507812,0.6767578125,-0.1406250000,0.1983642578,0.6866455078,-1.3732910156
0.9941868782,-0.2270507812,0.6767578125,-0.1406250000,0.2593994141,0.3662109375,-1.5411376953
0.9968819618,-0.2270507812,0.6767578125,-0.1406250000,0.2593994141,0.3662109375,-1.5411376953
0.9995100498,-0.2270507812,0.6806640625,-0.1381835938,0.6561279297,0.3967285156,-1.4343261719
1.0020718575,-0.2255859375,0.6806640625,-0.1381835938,0.6561279297,0.3967285156,-1.4343261719
1.0046420097,-0.2255859375,0.6806640625,-0.1381835938,0.5645751953,0.2899169922,-1.2054443359
1.0072059631,-0.2255859375,0.6806640625,-0.1381835938,0.5645751953,0.2899169922,-1.2054443359
1.0099189281,-0.2304687500,0.6728515625,-0.1362304688,0.5035400391,0.2288818359,-1.4953613281
1.0127048492,-0.2304687500,0.6728515625,-0.1362304688,0.5035400391,0.2288818359,-1.4953613281
1.0153889656,-0.2304687500,0.6728515625,-0.1362304688,0.3967285156,0.2441406250,-1.2969970703
1.0180890560,-0.2304687500,0.6728515625,-0.1362304688,0.3967285156,0.2441406250,-1.2969970703
1.0207729340,-0.2275390625,0.6787109375,-0.1425781250,0.7019042969,0.3356933594,-1.4190673828
1.0234508514,-0.2275390625,0.6787109375,-0.1425781250,0.7019042969,0.3356933594,-1.4190673828
1.0262188911,-0.2275390625,0.6787109375,-0.1425781250,0.2593994141,0.5035400391,-1.0833740234
1.0292458534,-0.2275390625,0.6787109375,-0.1313476562,0.2593994141,0.5035400391,-1.0833740234
1.0319349766,-0.2285156250,0.6713867188,-0.1313476562,0.5340576172,0.4425048828,-1.3580322266
1.0346138477,-0.2285156250,0.6713867188,-0.1313476562,0.5340576172,0.4425048828,-1.3580322266
1.0372948647,-0.2285156250,0.6713867188,-0.1313476562,0.9613037109,0.3967285156,-1.7242431641
1.0399620533,-0.2285156250,0.6831054688,-0.1342773438,0.9613037109,0.3967285156,-1.7242431641
1.0426218510,-0.2250976562,0.6831054688,-0.1342773438,0.9765625000,0.3814697266,-1.0375976562
1.0452809334,-0.2250976562,0.6831054688,-0.1342773438,0.9765625000,0.3814697266,-1.0375976562
1.0480070114,-0.2250976562,0.6831054688,-0.1342773438,0.5950927734,0.1678466797,-0.9918212891
1.0507009029,-0.2329101562,0.6733398438,-0.1293945312,0.5950927734,0.1678466797,-0.9918212891
1.0533950329,-0.2329101562,0.6733398438,-0.1293945312,0.5340576172,0.0610351562,-1.2359619141
1.0560948849,-0.2329101562,0.6733398438,-0.1293945312,0.5340576172,0.0610351562,-1.2359619141
1.0587480068,-0.2329101562,0.6733398438,-0.1293945312,0.4882812500,0.0762939453,-1.2817382812
1.0613138676,-0.2275390625,0.6787109375,-0.1445312500,0.4882812500,0.0762939453,-1.2817382812
1.0638780594,-0.2275390625,0.6787109375,-0.1445312500,0.4882812500,0.1068115234,-0.9460449219
1.0664429665,-0.2275390625,0.6787109375,-0.1445312500,0.2746582031,0.1068115234,-0.9460449219
1.0690569878,-0.2275390625,0.6787109375,-0.1445312500,0.2746582031,0.1068115234,-1.0833740234
1.0716228485,-0.2329101562,0.6752929688,-0.1352539062,0.2136230469,0.0457763672,-1.0833740234
1.0741848946,-0.2329101562,0.6752929688,-0.1352539062,0.2136230469,0.0457763672,-1.4495849609
1.0768449306,-0.2329101562,0.6752929688,-0.1352539062,0.5798339844,0.2746582031,-1.4495849609
1.0795450211,-0.2329101562,0.6752929688,-0.1450195312,0.5798339844,0.2746582031,-1.1901855469
1.0821080208,-0.2314453125,0.6762695312,-0.1450195312,0.4730224609,0.1220703125,-1.1901855469
1.0846769810,-0.2314453125,0.6762695312,-0.1450195312,0.4730224609,0.1220703125,-1.1901855469
1.0872418880,-0.2314453125,0.6762695312,-0.1450195312,0.3051757812,-0.0610351562,-0.9002685547
1.0900139809,-0.2314453125,0.6821289062,-0.1289062500,0.3051757812,-0.0610351562,-0.9002685547
1.0927088261,-0.2407226562,0.6821289062,-0.1289062500,0.5035400391,0.0305175781,-0.9765625000
1.0954060555,-0.2407226562,0.6821289062,-0.1289062500,0.5035400391,0.0305175781,-0.9765625000
1.0981130600,-0.2407226562,0.6821289062,-0.1289062500,0.7171630859,0.1678466797,-1.2359619141
1.1008138657,-0.2363281250,0.6752929688,-0.1391601562,0.7171630859,0.1678466797,-1.2359619141
1.1035089493,-0.2363281250,0.6752929688,-0.1391601562,0.8850097656,0.3356933594,-1.2207031250
1.1061999798,-0.2363281250,0.6752929688,-0.1391601562,0.8850097656,0.3356933594,-1.2207031250
1.1088569164,-0.2363281250,0.6752929688,-0.1391601562,1.0833740234,0.3509521484,-1.2664794922
1.1114230156,-0.2377929688,0.6757812500,-0.1396484375,1.0833740234,0.3509521484,-1.2664794922
1.1139898300,-0.2377929688,0.6757812500,-0.1396484375,0.6866455078,0.5187988281,-1.1444091797
1.1165499687,-0.2377929688,0.6757812500,-0.1396484375,0.6866455078,0.5187988281,-1.1444091797
1.1191909313,-0.2377929688,0.6757812500,-0.1396484375,0.5950927734,0.5340576172,-0.8239746094
1.1218898296,-0.2377929688,0.6816406250,-0.1406250000,0.5950927734,0.5340576172,-0.8239746094
1.1245808601,-0.2377929688,0.6816406250,-0.1406250000,0.8087158203,0.3814697266,-0.7781982422
1.1272768974,-0.2377929688,0.6816406250,-0.1406250000,0.8087158203,0.3814697266,-0.7781982422
1.1299870014,-0.2377929688,0.6816406250,-0.1372070312,0.3814697266,0.5645751953,-0.8544921875
1.1326849461,-0.2377929688,0.6752929688,-0.1372070312,0.3814697266,0.5645751953,-0.8544921875
1.1353838444,-0.2377929688,0.6752929688,-0.1372070312,0.2746582031,0.3814697266,-1.0070800781
1.1380820274,-0.2377929688,0.6752929688,-0.1372070312,0.2746582031,0.3814697266,-1.0070800781
1.1407768726,-0.2377929688,0.6767578125,-0.1323242188,0.6866455078,0.2136230469,-0.9460449219
1.1435759068,-0.2392578125,0.6767578125,-0.1323242188,0.6866455078,0.2136230469,-0.9460449219
1.1464049816,-0.2392578125,0.6767578125,-0.1323242188,0.2288818359,0.4577636719,-0.7324218750
1.1492700577,-0.2392578125,0.6767578125,-0.1323242188,0.2288818359,0.4577636719,-0.7324218750
1.1519699097,-0.2368164062,0.6723632812,-0.1357421875,0.3662109375,0.2899169922,-1.1138916016
1.1546669006,-0.2368164062,0.6723632812,-0.1357421875,0.3662109375,0.2899169922,-1.1138916016
1.1573569775,-0.2368164062,0.6723632812,-0.1357421875,0.0152587891,0.3356933594,-0.7476806641
1.1599569321,-0.2368164062,0.6723632812,-0.1357421875,0.0152587891,0.3356933594,-0.7476806641
1.1625289917,-0.2382812500,0.6801757812,-0.1386718750,-0.5950927734,0.5035400391,-0.7629394531
1.1650938988,-0.2382812500,0.6801757812,-0.1386718750,-0.5950927734,0.5035400391,-0.7629394531
1.1676549911,-0.2382812500,0.6801757812,-0.1386718750,-0.3814697266,0.9307861328,-0.8239746094
1.1703560352,-0.2382812500,0.6801757812,-0.1435546875,-0.3814697266,0.9307861328,-0.8239746094
1.1730518341,-0.2275390625,0.6762695312,-0.1435546875,-0.0152587891,0.9155273438,-1.1901855469
1.1757478714,-0.2275390625,0.6762695312,-0.1435546875,-0.0152587891,0.9155273438,-1.1901855469
1.1784319878,-0.2275390625,0.6762695312,-0.1435546875,-0.1220703125,0.6256103516,-0.9002685547
1.1810009480,-0.2275390625,0.6777343750,-0.1342773438,-0.1220703125,0.6256103516,-0.9002685547
1.1835689545,-0.2407226562,0.6777343750,-0.1342773438,3.7841796875,0.4730224609,-0.5187988281
1.1861319542,-0.2407226562,0.6777343750,-0.1342773438,0.0457763672,0.4730224609,-0.5187988281
1.1887040138,-0.2407226562,0.6777343750,-0.1342773438,0.0457763672,0.4730224609,-0.6408691406
1.1912739277,-0.2407226562,0.6713867188,-0.1420898438,-0.1220703125,0.5187988281,-0.6408691406
1.1938400269,-0.2373046875,0.6713867188,-0.1420898438,-0.1220703125,0.5187988281,-0.6713867188
1.1964068413,-0.2373046875,0.6713867188,-0.1420898438,0.1068115234,0.6866455078,-0.6713867188
1.1991448402,-0.2373046875,0.6713867188,-0.1420898438,0.1068115234,0.6866455078,-0.6713867188
1.2017118931,-0.2363281250,0.6816406250,-0.1347656250,-0.0457763672,0.8392333984,-0.8087158203
1.2042880058,-0.2363281250,0.6816406250,-0.1347656250,-0.0457763672,0.8392333984,-0.8087158203
1.2069609165,-0.2363281250,0.6816406250,-0.1347656250,0.0152587891,0.9307861328,-1.1444091797
1.2096869946,-0.2363281250,0.6816406250,-0.1347656250,0.0152587891,0.9307861328,-1.1444091797
1.2122540474,-0.2290039062,0.6743164062,-0.1376953125,0.0610351562,1.1901855469,-1.0681152344
1.2148139477,-0.2290039062,0.6743164062,-0.1376953125,0.0610351562,1.1901855469,-1.0681152344
1.2173788548,-0.2290039062,0.6743164062,-0.1376953125,-0.6713867188,1.3580322266,-0.5798339844
1.2200939655,-0.2290039062,0.6743164062,-0.1376953125,-0.6713867188,1.3580322266,-0.5798339844
1.2227919102,-0.2304687500,0.6757812500,-0.1323242188,-0.2136230469,0.9918212891,-0.8697509766
1.2254920006,-0.2304687500,0.6757812500,-0.1323242188,-0.2136230469,0.9918212891,-0.8697509766
1.2281889915,-0.2304687500,0.6757812500,-0.1323242188,0.0000000000,0.9307861328,-0.9307861328
1.2308859825,-0.2304687500,0.6757812500,-0.1411132812,0.0000000000,0.9307861328,-0.9307861328
1.2335798740,-0.2265625000,0.6767578125,-0.1411132812,0.1068115234,0.9155273438,-0.7934570312
1.2362780571,-0.2265625000,0.6767578125,-0.1411132812,0.1068115234,0.9155273438,-0.7934570312
1.2389788628,-0.2265625000,0.6767578125,-0.1411132812,0.1678466797,0.6866455078,-0.8087158203
1.2416749001,-0.2265625000,0.6723632812,-0.1396484375,0.1678466797,0.6866455078,-0.8087158203
1.2443690300,-0.2294921875,0.6723632812,-0.1396484375,0.1068115234,0.9155273438,-0.8392333984
1.2470710278,-0.2294921875,0.6723632812,-0.1396484375,0.1068115234,0.9155273438,-0.8392333984
1.2496910095,-0.2294921875,0.6723632812,-0.1396484375,0.1678466797,0.6408691406,-0.5950927734
1.2522609234,-0.2299804688,0.6757812500,-0.1445312500,0.1678466797,0.6408691406,-0.5950927734
1.2548229694,-0.2299804688,0.6757812500,-0.1445312500,0.3814697266,0.2136230469,-0.8239746094
1.2573859692,-0.2299804688,0.6757812500,-0.1445312500,0.3814697266,0.2136230469,-0.8239746094
1.2599918842,-0.2299804688,0.6757812500,-0.1445312500,0.1068115234,0.5035400391,-0.9002685547
1.2625548840,-0.2265625000,0.6772460938,-0.1420898438,0.1068115234,0.5035400391,-0.9002685547
1.2653050423,-0.2265625000,0.6772460938,-0.1420898438,-3.7994384766,0.6408691406,-0.9155273438
1.2682518959,-0.2265625000,0.6772460938,-0.1420898438,-0.1220703125,0.6408691406,-0.9155273438
1.2709360123,-0.2265625000,0.6772460938,-0.1420898438,0.1068115234,0.7781982422,-1.1138916016
1.2735009193,-0.2368164062,0.6728515625,-0.1323242188,0.1068115234,0.7781982422,-1.1138916016
1.2760629654,-0.2368164062,0.6728515625,-0.1323242188,0.1068115234,0.5645751953,-1.0681152344
1.2786970139,-0.2368164062,0.6728515625,-0.1323242188,0.3814697266,0.5645751953,-1.0681152344
1.2812559605,-0.2368164062,0.6728515625,-0.1323242188,0.3814697266,0.5645751953,-0.8697509766
1.2838180065,-0.2299804688,0.6767578125,-0.1386718750,0.2441406250,0.7324218750,-0.8697509766
1.2863788605,-0.2299804688,0.6767578125,-0.1386718750,0.2441406250,0.7324218750,-1.2207031250
1.2889449596,-0.2299804688,0.6767578125,-0.1386718750,0.7171630859,0.4425048828,-1.2207031250
1.2915079594,-0.2299804688,0.6767578125,-0.1386718750,0.7171630859,0.4425048828,-1.2207031250
1.2940740585,-0.2338867188,0.6821289062,-0.1386718750,0.5645751953,0.2136230469,-1.0070800781
1.2966370583,-0.2338867188,0.6821289062,-0.1386718750,0.5645751953,0.2136230469,-1.0070800781
1.2992448807,-0.2338867188,0.6821289062,-0.1386718750,0.3967285156,0.2899169922,-0.8239746094
1.3018100262,-0.2338867188,0.6821289062,-0.1367187500,0.3967285156,0.2899169922,-0.8239746094
1.3043699265,-0.2329101562,0.6733398438,-0.1367187500,-0.0762939453,0.4425048828,-0.6713867188
1.3069360256,-0.2329101562,0.6733398438,-0.1367187500,-0.0762939453,0.4425048828,-0.6713867188
1.3095090389,-0.2329101562,0.6733398438,-0.1367187500,0.1678466797,0.4577636719,-1.0681152344
1.3120658398,-0.2329101562,0.6733398438,-0.1494140625,0.1678466797,0.4577636719,-1.0681152344
1.3146269321,-0.2343750000,0.6772460938,-0.1494140625,0.4730224609,0.4425048828,-0.8850097656
1.3171918392,-0.2343750000,0.6772460938,-0.1494140625,0.4730224609,0.4425048828,-0.8850097656
1.3199198246,-0.2343750000,0.6772460938,-0.1494140625,0.8544921875,0.3814697266,-1.1291503906
1.3224899769,-0.2343750000,0.6752929688,-0.1396484375,0.8544921875,0.3814697266,-1.1291503906
1.3250570297,-0.2314453125,0.6752929688,-0.1396484375,0.8544921875,0.4119873047,-1.2054443359
1.3276250362,-0.2314453125,0.6752929688,-0.1396484375,0.9765625000,0.4119873047,-1.2054443359
1.3304028511,-0.2314453125,0.6752929688,-0.1396484375,0.9765625000,0.3356933594,-1.1749267578
1.3332078457,-0.2329101562,0.6713867188,-0.1376953125,0.7934570312,0.3356933594,-1.1749267578
1.3359048367,-0.2329101562,0.6713867188,-0.1376953125,0.7934570312,0.3204345703,-1.2207031250
1.3386549950,-0.2329101562,0.6713867188,-0.1376953125,0.5493164062,0.3204345703,-1.2207031250
1.3412308693,-0.2329101562,0.6713867188,-0.1376953125,0.5493164062,0.3204345703,-0.9307861328
1.3438010216,-0.2343750000,0.6723632812,-0.1323242188,0.4119873047,0.3814697266,-0.9307861328
1.3463649750,-0.2343750000,0.6723632812,-0.1323242188,0.4119873047,0.3814697266,-0.6713867188
1.3490698338,-0.2343750000,0.6723632812,-0.1323242188,0.7781982422,0.4272460938,-0.6713867188
1.3516378403,-0.2343750000,0.6723632812,-0.1323242188,0.7781982422,0.4272460938,-0.7171630859
1.3545629978,-0.2392578125,0.6772460938,-0.1357421875,0.5340576172,0.4730224609,-0.7171630859
1.3571310043,-0.2392578125,0.6772460938,-0.1357421875,0.5340576172,0.4730224609,-0.8850097656
1.3597009182,-0.2392578125,0.6772460938,-0.1357421875,0.4272460938,0.4577636719,-0.8850097656
1.3622648716,-0.2392578125,0.6772460938,-0.1386718750,0.4272460938,0.4577636719,-0.8850097656
1.3648259640,-0.2373046875,0.6718750000,-0.1386718750,0.5798339844,0.3814697266,-0.9155273438
1.3673870564,-0.2373046875,0.6718750000,-0.1386718750,0.5798339844,0.3814697266,-0.9155273438
1.3699970245,-0.2373046875,0.6718750000,-0.1386718750,0.2441406250,0.1831054688,-0.8697509766
1.3725559711,-0.2373046875,0.6718750000,-0.1406250000,0.2441406250,0.1831054688,-0.8697509766
1.3751249313,-0.2280273438,0.6728515625,-0.1406250000,0.4119873047,0.3967285156,-1.2054443359
1.3776879311,-0.2280273438,0.6728515625,-0.1406250000,0.4119873047,0.3967285156,-1.2054443359
1.3802609444,-0.2280273438,0.6728515625,-0.1406250000,0.7019042969,0.1525878906,-1.1291503906
1.3828320503,-0.2280273438,0.6767578125,-0.1381835938,0.7019042969,0.1525878906,-1.1291503906
1.3853929043,-0.2348632812,0.6767578125,-0.1381835938,0.3051757812,0.5187988281,-0.9002685547
1.3880028725,-0.2348632812,0.6767578125,-0.1381835938,0.3051757812,0.5187988281,-0.9002685547
1.3905708790,-0.2348632812,0.6767578125,-0.1381835938,-0.0457763672,0.6103515625,-0.9155273438
1.3931310177,-0.2348632812,0.6757812500,-0.1401367188,-0.0457763672,0.6103515625,-0.9155273438
1.3958289623,-0.2368164062,0.6757812500,-0.1401367188,-0.0457763672,0.7781982422,-1.0375976562
1.3985910416,-0.2368164062,0.6757812500,-0.1401367188,-0.4272460938,0.7781982422,-1.0375976562
1.4011540413,-0.2368164062,0.6757812500,-0.1401367188,-0.4272460938,0.5187988281,-0.8087158203
1.4037230015,-0.2421875000,0.6767578125,-0.1303710938,0.1525878906,0.5187988281,-0.8087158203
1.4062819481,-0.2421875000,0.6767578125,-0.1303710938,0.1525878906,0.5187988281,-0.8850097656
1.4089670181,-0.2421875000,0.6767578125,-0.1303710938,0.2441406250,0.0915527344,-0.8850097656
1.4115369320,-0.2421875000,0.6767578125,-0.1303710938,0.2441406250,0.0915527344,-1.0681152344
1.4140989780,-0.2319335938,0.6743164062,-0.1298828125,0.2746582031,0.2746582031,-1.0681152344
1.4166569710,-0.2319335938,0.6743164062,-0.1298828125,0.2746582031,0.2746582031,-1.0681152344
1.4192459583,-0.2319335938,0.6743164062,-0.1298828125,0.4425048828,0.1983642578,-0.7629394531
1.4218089581,-0.2319335938,0.6743164062,-0.1298828125,0.4425048828,0.1983642578,-0.7629394531
1.4243719578,-0.2270507812,0.6713867188,-0.1425781250,0.0610351562,0.6256103516,-0.8544921875
1.4269390106,-0.2270507812,0.6713867188,-0.1425781250,0.0610351562,0.6256103516,-0.8544921875
1.4295058250,-0.2270507812,0.6713867188,-0.1425781250,0.3967285156,0.3967285156,-0.9002685547
1.4320700169,-0.2270507812,0.6713867188,-0.1425781250,0.3967285156,0.3967285156,-0.9002685547
1.4346339703,-0.2353515625,0.6733398438,-0.1391601562,0.4425048828,0.0457763672,-0.9613037109
1.4371998310,-0.2353515625,0.6733398438,-0.1391601562,0.4425048828,0.0457763672,-0.9613037109
1.4399349689,-0.2353515625,0.6733398438,-0.1391601562,0.0305175781,0.2746582031,-0.8239746094
1.4426350594,-0.2353515625,0.6733398438,-0.1391601562,0.0305175781,0.2746582031,-0.8239746094
1.4453389645,-0.2309570312,0.6762695312,-0.1533203125,0.2441406250,0.3967285156,-0.8087158203
1.4480719566,-0.2309570312,0.6762695312,-0.1533203125,0.2441406250,0.3967285156,-0.8087158203
1.4506380558,-0.2309570312,0.6762695312,-0.1533203125,0.4425048828,0.3509521484,-0.9460449219
1.4532098770,-0.2309570312,0.6762695312,-0.1401367188,0.4425048828,0.3509521484,-0.9460449219
1.4557778835,-0.2299804688,0.6826171875,-0.1401367188,0.4425048828,0.1983642578,-1.0223388672
1.4585258961,-0.2299804688,0.6826171875,-0.1401367188,0.8087158203,0.1983642578,-1.0223388672
1.4612338543,-0.2299804688,0.6826171875,-0.1401367188,0.8087158203,0.0915527344,-1.2969970703
1.4640140533,-0.2299804688,0.6801757812,-0.1469726562,0.7171630859,0.0915527344,-1.2969970703
1.4668500423,-0.2216796875,0.6801757812,-0.1469726562,0.1983642578,0.0000000000,-1.0528564453
1.4697420597,-0.2216796875,0.6801757812,-0.1469726562,0.1983642578,0.0000000000,-1.0528564453
1.4724459648,-0.2216796875,0.6801757812,-0.1469726562,0.1068115234,0.2899169922,-0.7476806641
1.4751429558,-0.2294921875,0.6791992188,-0.1416015625,0.1068115234,0.2899169922,-0.7476806641
1.4778490067,-0.2294921875,0.6791992188,-0.1416015625,0.5340576172,0.2288818359,-0.7171630859
1.4805479050,-0.2294921875,0.6791992188,-0.1416015625,0.5340576172,0.2288818359,-0.7171630859
1.4832420349,-0.2294921875,0.6791992188,-0.1416015625,0.1678466797,0.6103515625,-0.5493164062
1.4859418869,-0.2343750000,0.6777343750,-0.1381835938,0.1678466797,0.6103515625,-0.5493164062
1.4886889458,-0.2343750000,0.6777343750,-0.1381835938,0.0305175781,0.2593994141,-0.6713867188
1.4913868904,-0.2343750000,0.6777343750,-0.1381835938,0.0305175781,0.2593994141,-0.6713867188
1.4940860271,-0.2343750000,0.6816406250,-0.1484375000,0.2899169922,-0.1220703125,-0.7629394531
1.4967839718,-0.2338867188,0.6816406250,-0.1484375000,0.2899169922,-0.1220703125,-0.7629394531
1.4994158745,-0.2338867188,0.6816406250,-0.1484375000,0.2899169922,0.3967285156,-0.7171630859
1.5019860268,-0.2338867188,0.6816406250,-0.1484375000,0.4425048828,0.3967285156,-0.7171630859
1.5045549870,-0.2333984375,0.6757812500,-0.1450195312,0.4425048828,0.4119873047,-0.8544921875
1.5071189404,-0.2333984375,0.6757812500,-0.1450195312,0.8697509766,0.4119873047,-0.8544921875
1.5096979141,-0.2333984375,0.6757812500,-0.1450195312,0.8697509766,0.4119873047,-0.7171630859
1.5122609138,-0.2333984375,0.6757812500,-0.1450195312,0.9307861328,0.4272460938,-0.7171630859
1.5148289204,-0.2402343750,0.6738281250,-0.1420898438,0.9307861328,0.4272460938,-0.7171630859
1.5173919201,-0.2402343750,0.6738281250,-0.1420898438,0.3509521484,0.4119873047,-0.6561279297
1.5201058388,-0.2402343750,0.6738281250,-0.1420898438,0.3509521484,0.4119873047,-0.6561279297
1.5227830410,-0.2402343750,0.6738281250,-0.1420898438,0.4577636719,0.1525878906,-0.9002685547
1.5253529549,-0.2363281250,0.6767578125,-0.1401367188,0.4577636719,0.1525878906,-0.9002685547
1.5279710293,-0.2363281250,0.6767578125,-0.1401367188,0.3509521484,0.1373291016,-0.7171630859
1.5306868553,-0.2363281250,0.6767578125,-0.1401367188,0.3509521484,0.1373291016,-0.7171630859
1.5333838463,-0.2363281250,0.6767578125,-0.1401367188,0.4425048828,0.2441406250,-0.6561279297
1.5360779762,-0.2338867188,0.6704101562,-0.1455078125,0.4425048828,0.2441406250,-0.6561279297
1.5387799740,-0.2338867188,0.6704101562,-0.1455078125,0.5645751953,0.2136230469,-0.5798339844
1.5414710045,-0.2338867188,0.6704101562,-0.1455078125,0.5645751953,0.2136230469,-0.5798339844
1.5441670418,-0.2338867188,0.6704101562,-0.1411132812,0.1525878906,0.2441406250,-0.4882812500
1.5468618870,-0.2387695312,0.6728515625,-0.1411132812,0.1525878906,0.2441406250,-0.4882812500
1.5494959354,-0.2387695312,0.6728515625,-0.1411132812,0.1678466797,0.2593994141,-0.3662109375
1.5520658493,-0.2387695312,0.6728515625,-0.1411132812,0.1678466797,0.2593994141,-0.3662109375
1.5546238422,-0.2387695312,0.6728515625,-0.1459960938,0.0915527344,0.3509521484,-0.5187988281
1.5571889877,-0.2275390625,0.6728515625,-0.1459960938,0.0915527344,0.3509521484,-0.5187988281
1.5598988533,-0.2275390625,0.6728515625,-0.1459960938,-0.2441406250,0.3662109375,-0.8544921875
1.5625898838,-0.2275390625,0.6728515625,-0.1459960938,-0.2441406250,0.3662109375,-0.8544921875
1.5652899742,-0.2363281250,0.6748046875,-0.1455078125,0.3204345703,-0.0915527344,-0.8087158203
1.5680348873,-0.2363281250,0.6748046875,-0.1455078125,0.3204345703,-0.0915527344,-0.8087158203
1.5707299709,-0.2363281250,0.6748046875,-0.1455078125,0.2899169922,-0.0762939453,-0.7629394531
1.5734319687,-0.2363281250,0.6748046875,-0.1455078125,0.2899169922,-0.0762939453,-0.7629394531
1.5761258602,-0.2387695312,0.6738281250,-0.1474609375,0.0610351562,0.1831054688,-0.5340576172
1.5788710117,-0.2387695312,0.6738281250,-0.1474609375,0.0610351562,0.1831054688,-0.5340576172
1.5815680027,-0.2387695312,0.6738281250,-0.1474609375,0.1373291016,0.2136230469,-0.7934570312
1.5844850540,-0.2387695312,0.6738281250,-0.1362304688,0.1373291016,0.2136230469,-0.7934570312
1.5876619816,-0.2329101562,0.6767578125,-0.1362304688,0.2593994141,0.2746582031,-0.6866455078
1.5903768539,-0.2329101562,0.6767578125,-0.1362304688,0.2593994141,0.2746582031,-0.6866455078
1.5930838585,-0.2329101562,0.6767578125,-0.1362304688,0.0152587891,0.1525878906,-0.7019042969
1.5957839489,-0.2343750000,0.6738281250,-0.1435546875,0.0152587891,0.1525878906,-0.7019042969
1.5984640121,-0.2343750000,0.6738281250,-0.1435546875,0.6408691406,-0.3204345703,-0.8850097656
1.6010348797,-0.2343750000,0.6738281250,-0.1435546875,0.6408691406,-0.3204345703,-0.8850097656
1.6036050320,-0.2343750000,0.6738281250,-0.1435546875,0.5340576172,0.0457763672,-1.0528564453
1.6061730385,-0.2377929688,0.6757812500,-0.1362304688,0.5340576172,0.0457763672,-1.0528564453
1.6088039875,-0.2377929688,0.6757812500,-0.1362304688,0.2746582031,-0.3509521484,-0.9460449219
1.6115000248,-0.2377929688,0.6757812500,-0.1362304688,0.2746582031,-0.3509521484,-0.9460449219
1.6142020226,-0.2377929688,0.6757812500,-0.1362304688,0.0152587891,-0.3204345703,-0.8850097656
1.6168949604,-0.2363281250,0.6772460938,-0.1396484375,0.0152587891,-0.3204345703,-0.8850097656
1.6195058823,-0.2363281250,0.6772460938,-0.1396484375,-0.2136230469,-0.1678466797,-0.5645751953
1.6220810413,-0.2363281250,0.6772460938,-0.1396484375,-0.2136230469,-0.1678466797,-0.5645751953
1.6246469021,-0.2363281250,0.6772460938,-0.1499023438,0.1525878906,-0.4577636719,-0.7019042969
1.6272099018,-0.2363281250,0.6748046875,-0.1499023438,0.1525878906,-0.4577636719,-0.7019042969
1.6299259663,-0.2363281250,0.6748046875,-0.1499023438,0.1525878906,-0.9307861328,-0.8544921875
1.6324870586,-0.2363281250,0.6748046875,-0.1499023438,0.4577636719,-0.9307861328,-0.8544921875
1.6350538731,-0.2363281250,0.6748046875,-0.1440429688,0.4577636719,-0.9307861328,-0.7476806641
1.6376190186,-0.2353515625,0.6728515625,-0.1440429688,0.1678466797,-0.7476806641,-0.7476806641
1.6404190063,-0.2353515625,0.6728515625,-0.1440429688,0.1678466797,-0.7476806641,-0.7629394531
1.6431200504,-0.2353515625,0.6728515625,-0.1440429688,-0.0610351562,-0.4425048828,-0.7629394531
1.6458158493,-0.2260742188,0.6762695312,-0.1489257812,-0.0610351562,-0.4425048828,-0.9765625000
1.6484999657,-0.2260742188,0.6762695312,-0.1489257812,-0.1068115234,-0.5645751953,-0.9765625000
1.6511819363,-0.2260742188,0.6762695312,-0.1489257812,-0.1068115234,-0.5645751953,-0.6256103516
1.6537458897,-0.2260742188,0.6762695312,-0.1489257812,-0.0610351562,-0.5493164062,-0.6256103516
1.6563119888,-0.2368164062,0.6743164062,-0.1513671875,-0.0610351562,-0.5493164062,-0.6256103516
1.6589448452,-0.2368164062,0.6743164062,-0.1513671875,-0.1525878906,-0.5340576172,-0.8850097656
1.6616389751,-0.2368164062,0.6743164062,-0.1513671875,-0.1525878906,-0.5340576172,-0.8850097656
1.6643388271,-0.2368164062,0.6743164062,-0.1513671875,0.1068115234,-0.6256103516,-1.0223388672
1.6670339108,-0.2416992188,0.6772460938,-0.1411132812,0.1068115234,-0.6256103516,-1.0223388672
1.6697459221,-0.2416992188,0.6772460938,-0.1411132812,-0.0915527344,-0.6103515625,-0.9307861328
1.6724498272,-0.2416992188,0.6772460938,-0.1411132812,-0.0915527344,-0.6103515625,-0.9307861328
1.6751439571,-0.2416992188,0.6772460938,-0.1464843750,-0.4577636719,-0.1525878906,-0.7476806641
1.6778550148,-0.2412109375,0.6728515625,-0.1464843750,-0.4577636719,-0.1525878906,-0.7476806641
1.6805529594,-0.2412109375,0.6728515625,-0.1464843750,-0.3356933594,-0.1678466797,-0.5950927734
1.6832468510,-0.2412109375,0.6728515625,-0.1464843750,-0.3356933594,-0.1678466797,-0.5950927734
1.6859438419,-0.2412109375,0.6762695312,-0.1445312500,-0.4730224609,-0.3356933594,-0.5187988281
1.6886808872,-0.2338867188,0.6762695312,-0.1445312500,-0.4730224609,-0.3356933594,-0.5187988281
1.6913828850,-0.2338867188,0.6762695312,-0.1445312500,-0.2746582031,-0.3051757812,-0.8239746094
1.6943109035,-0.2338867188,0.6762695312,-0.1445312500,-0.2746582031,-0.3051757812,-0.8239746094
1.6970019341,-0.2319335938,0.6752929688,-0.1352539062,-0.0152587891,-0.4577636719,-0.8850097656
1.6997940540,-0.2319335938,0.6752929688,-0.1352539062,-0.0152587891,-0.4577636719,-0.8850097656
1.7023620605,-0.2319335938,0.6752929688,-0.1352539062,-0.0610351562,-0.7629394531,-0.4882812500
1.7049210072,-0.2319335938,0.6752929688,-0.1352539062,-0.0610351562,-0.7629394531,-0.4882812500
1.7074928284,-0.2333984375,0.6762695312,-0.1391601562,0.1678466797,-0.6103515625,-0.5645751953
1.7100639343,-0.2333984375,0.6762695312,-0.1391601562,0.1678466797,-0.6103515625,-0.5645751953
1.7126288414,-0.2333984375,0.6762695312,-0.1391601562,0.6256103516,-0.9918212891,-0.7781982422
1.7153019905,-0.2333984375,0.6762695312,-0.1391601562,0.6256103516,-0.9918212891,-0.7781982422
1.7178609371,-0.2368164062,0.6743164062,-0.1381835938,0.0457763672,-1.1444091797,-0.8392333984
1.7204320431,-0.2368164062,0.6743164062,-0.1381835938,0.0457763672,-1.1444091797,-0.8392333984
1.7229950428,-0.2368164062,0.6743164062,-0.1381835938,-0.1068115234,-0.6866455078,-0.9765625000
1.7255589962,-0.2368164062,0.6743164062,-0.1381835938,-0.1068115234,-0.6866455078,-0.9765625000
1.7282600403,-0.2397460938,0.6772460938,-0.1406250000,0.1220703125,-0.7781982422,-0.7019042969
1.7308299541,-0.2397460938,0.6772460938,-0.1406250000,0.1220703125,-0.7781982422,-0.7019042969
1.7333970070,-0.2397460938,0.6772460938,-0.1406250000,-3.7841796875,-0.3814697266,-0.3814697266
1.7359569073,-0.2397460938,0.6772460938,-0.1508789062,-0.2593994141,-0.3814697266,-0.3814697266
1.7385230064,-0.2324218750,0.6762695312,-0.1508789062,-0.2593994141,-0.3814697266,-0.3356933594
1.7410929203,-0.2324218750,0.6762695312,-0.1508789062,-0.3356933594,-0.6103515625,-0.3356933594
1.7436540127,-0.2324218750,0.6762695312,-0.1508789062,-0.3356933594,-0.6103515625,-0.2593994141
1.7462148666,-0.2324218750,0.6762695312,-0.1494140625,-0.3662109375,-0.4425048828,-0.2593994141
1.7493209839,-0.2333984375,0.6767578125,-0.1494140625,0.0762939453,-0.5035400391,-0.3662109375
1.7525489330,-0.2333984375,0.6767578125,-0.1494140625,0.0762939453,-0.5035400391,-0.3662109375
1.7551059723,-0.2333984375,0.6767578125,-0.1494140625,-3.8299560547,-0.3967285156,-0.6408691406
1.7576658726,-0.2392578125,0.6757812500,-0.1333007812,-0.4730224609,-0.3967285156,-0.6408691406
1.7603158951,-0.2392578125,0.6757812500,-0.1333007812,-0.4730224609,-0.3967285156,-0.4730224609
1.7628738880,-0.2392578125,0.6757812500,-0.1333007812,-0.7324218750,-0.5035400391,-0.4730224609
1.7654299736,-0.2392578125,0.6757812500,-0.1333007812,-0.7324218750,-0.5035400391,-0.4272460938
1.7680449486,-0.2373046875,0.6757812500,-0.1479492188,-0.6103515625,-0.3662109375,-0.4272460938
1.7706060410,-0.2373046875,0.6757812500,-0.1479492188,-0.6103515625,-0.3662109375,-0.4272460938
1.7731649876,-0.2373046875,0.6757812500,-0.1479492188,-0.2441406250,-0.2593994141,-0.3662109375
1.7757258415,-0.2373046875,0.6757812500,-0.1479492188,-0.2441406250,-0.2593994141,-0.3662109375
1.7782928944,-0.2324218750,0.6772460938,-0.1440429688,-0.3967285156,-0.4882812500,-0.2288818359
1.7809610367,-0.2324218750,0.6772460938,-0.1440429688,-0.3967285156,-0.4882812500,-0.2288818359
1.7835209370,-0.2324218750,0.6772460938,-0.1440429688,-0.4882812500,-0.6256103516,-0.3814697266
1.7860829830,-0.2324218750,0.6772460938,-0.1440429688,-0.4882812500,-0.6256103516,-0.3814697266
1.7886860371,-0.2294921875,0.6777343750,-0.1484375000,-0.4272460938,-0.5187988281,-0.5798339844
1.7912478447,-0.2294921875,0.6777343750,-0.1484375000,-0.4272460938,-0.5187988281,-0.5798339844
1.7938079834,-0.2294921875,0.6777343750,-0.1484375000,-0.6866455078,-0.6256103516,-0.4730224609
1.7963688374,-0.2294921875,0.6777343750,-0.1440429688,-0.6866455078,-0.6256103516,-0.4730224609
1.7990319729,-0.2324218750,0.6743164062,-0.1440429688,-0.8087158203,-0.5645751953,-0.2593994141
1.8015968800,-0.2324218750,0.6743164062,-0.1440429688,-0.8087158203,-0.5645751953,-0.2593994141
1.8041548729,-0.2324218750,0.6743164062,-0.1440429688,-0.8087158203,-0.4425048828,-0.0762939453
1.8067188263,-0.2324218750,0.6743164062,-0.1401367188,-0.8697509766,-0.4425048828,-0.0762939453
1.8093779087,-0.2348632812,0.6757812500,-0.1401367188,-0.8697509766,-0.3356933594,0.1831054688
1.8119440079,-0.2348632812,0.6757812500,-0.1401367188,-0.5798339844,-0.3356933594,0.1831054688
1.8145010471,-0.2348632812,0.6757812500,-0.1401367188,-0.5798339844,-0.3356933594,-0.1373291016
1.8170599937,-0.2348632812,0.6826171875,-0.1416015625,-0.5187988281,-0.3662109375,-0.1373291016
1.8196229935,-0.2324218750,0.6826171875,-0.1416015625,-0.5187988281,-0.3662109375,-0.1373291016
1.8221850395,-0.2324218750,0.6826171875,-0.1416015625,-0.5645751953,-0.5035400391,-0.3509521484
1.8247430325,-0.2324218750,0.6826171875,-0.1416015625,-0.5645751953,-0.5035400391,-0.3509521484
1.8272988796,-0.2324218750,0.6733398438,-0.1396484375,-0.1678466797,-0.9155273438,-0.5340576172
1.8299820423,-0.2368164062,0.6733398438,-0.1396484375,-0.1678466797,-0.9155273438,-0.5340576172
1.8325409889,-0.2368164062,0.6733398438,-0.1396484375,-0.5493164062,-1.1596679688,-0.4577636719
1.8350999355,-0.2368164062,0.6733398438,-0.1396484375,-0.5493164062,-1.1596679688,-0.4577636719
1.8376619816,-0.2338867188,0.6811523438,-0.1411132812,-0.6866455078,-0.8392333984,-0.5340576172
1.8402240276,-0.2338867188,0.6811523438,-0.1411132812,-0.6866455078,-0.8392333984,-0.5340576172
1.8428959846,-0.2338867188,0.6811523438,-0.1411132812,-0.5493164062,-0.7324218750,-0.4272460938
1.8454549313,-0.2338867188,0.6811523438,-0.1411132812,-0.5493164062,-0.7324218750,-0.4272460938
1.8480749130,-0.2358398438,0.6699218750,-0.1357421875,-0.7781982422,-0.7324218750,-0.4425048828
1.8506338596,-0.2358398438,0.6699218750,-0.1357421875,-0.7781982422,-0.7324218750,-0.4425048828
1.8531908989,-0.2358398438,0.6699218750,-0.1357421875,-0.7781982422,-0.9307861328,-0.6256103516
1.8557498455,-0.2358398438,0.6699218750,-0.1357421875,-0.5340576172,-0.9307861328,-0.6256103516
1.8584330082,-0.2270507812,0.6748046875,-0.1376953125,-0.5340576172,-0.6408691406,-0.2593994141
1.8610019684,-0.2270507812,0.6748046875,-0.1376953125,-0.7781982422,-0.6408691406,-0.2593994141
1.8635718822,-0.2270507812,0.6748046875,-0.1376953125,-0.7781982422,-0.7934570312,-0.0915527344
1.8663790226,-0.2270507812,0.6748046875,-0.1376953125,-0.5798339844,-0.7934570312,-0.0915527344
1.8693170547,-0.2353515625,0.6694335938,-0.1416015625,-0.5798339844,-1.0375976562,-0.3204345703
1.8720169067,-0.2353515625,0.6694335938,-0.1416015625,-0.6408691406,-1.0375976562,-0.3204345703
1.8747098446,-0.2353515625,0.6694335938,-0.1416015625,-0.6408691406,-0.7781982422,-0.5645751953
1.8774030209,-0.2353515625,0.6694335938,-0.1464843750,-0.7476806641,-0.7781982422,-0.5645751953
1.8801128864,-0.2329101562,0.6723632812,-0.1464843750,-0.7476806641,-1.1291503906,-0.8087158203
1.8828070164,-0.2329101562,0.6723632812,-0.1464843750,-0.4730224609,-1.1291503906,-0.8087158203
1.8855068684,-0.2329101562,0.6723632812,-0.1464843750,-0.4730224609,-0.9307861328,-0.3662109375
1.8882069588,-0.2363281250,0.6782226562,-0.1362304688,-0.2746582031,-0.9307861328,-0.3662109375
1.8908989429,-0.2363281250,0.6782226562,-0.1362304688,-0.2746582031,-0.9307861328,-0.3051757812
1.8935999870,-0.2363281250,0.6782226562,-0.1362304688,-0.4425048828,-1.1291503906,-0.3051757812
1.8962948322,-0.2363281250,0.6782226562,-0.1362304688,-0.4425048828,-1.1291503906,-0.4272460938
1.8989398479,-0.2338867188,0.6782226562,-0.1386718750,-0.4577636719,-0.9307861328,-0.4272460938
1.9015049934,-0.2338867188,0.6782226562,-0.1386718750,-0.4577636719,-0.9307861328,-0.5035400391
1.9040730000,-0.2338867188,0.6782226562,-0.1386718750,-0.9765625000,-1.3275146484,-0.5035400391
1.9067528248,-0.2338867188,0.6782226562,-0.1386718750,-0.9765625000,-1.3275146484,-0.5035400391
1.9093289375,-0.2285156250,0.6772460938,-0.1362304688,-0.5950927734,-1.1444091797,-0.5493164062
1.9118950367,-0.2285156250,0.6772460938,-0.1362304688,-0.5950927734,-1.1444091797,-0.5493164062
1.9144558907,-0.2285156250,0.6772460938,-0.1362304688,-0.5035400391,-1.2664794922,-0.7629394531
1.9170248508,-0.2285156250,0.6772460938,-0.1362304688,-0.5035400391,-1.2664794922,-0.7629394531
1.9197349548,-0.2314453125,0.6782226562,-0.1425781250,-0.7171630859,-0.9918212891,-0.6866455078
1.9223010540,-0.2314453125,0.6782226562,-0.1425781250,-0.7171630859,-0.9918212891,-0.6866455078
1.9248659611,-0.2314453125,0.6782226562,-0.1425781250,-0.3814697266,-1.3732910156,-0.7019042969
1.9274308681,-0.2314453125,0.6782226562,-0.1367187500,-0.3814697266,-1.3732910156,-0.7019042969
1.9302060604,-0.2319335938,0.6787109375,-0.1367187500,-0.5187988281,-1.5106201172,-0.5645751953
1.9329030514,-0.2319335938,0.6787109375,-0.1367187500,-0.5187988281,-1.5106201172,-0.5645751953
1.9356000423,-0.2319335938,0.6787109375,-0.1367187500,-0.9613037109,-1.2359619141,-0.6408691406
1.9383089542,-0.2319335938,0.6757812500,-0.1357421875,-0.9613037109,-1.2359619141,-0.6408691406
1.9410059452,-0.2348632812,0.6757812500,-0.1357421875,-0.6103515625,-0.9155273438,-0.4119873047
1.9436979294,-0.2348632812,0.6757812500,-0.1357421875,-0.6103515625,-0.9155273438,-0.4119873047
1.9463920593,-0.2348632812,0.6757812500,-0.1357421875,-0.5645751953,-0.7324218750,-0.2899169922
1.9490430355,-0.2353515625,0.6787109375,-0.1425781250,-0.5645751953,-0.7324218750,-0.2899169922
1.9516079426,-0.2353515625,0.6787109375,-0.1425781250,-0.9155273438,-0.8239746094,-0.3814697266
1.9541699886,-0.2353515625,0.6787109375,-0.1425781250,-0.9155273438,-0.8239746094,-0.3814697266
1.9567379951,-0.2353515625,0.6787109375,-0.1425781250,-1.1291503906,-1.1138916016,-0.4119873047
1.9593899250,-0.2270507812,0.6757812500,-0.1318359375,-1.1291503906,-1.1138916016,-0.4119873047
1.9620878696,-0.2270507812,0.6757812500,-0.1318359375,-0.9155273438,-0.9765625000,-0.5645751953
1.9647829533,-0.2270507812,0.6757812500,-0.1318359375,-0.9155273438,-0.9765625000,-0.5645751953
1.9674780369,-0.2270507812,0.6757812500,-0.1318359375,-0.9613037109,-1.0833740234,-0.4272460938
1.9702839851,-0.2363281250,0.6757812500,-0.1333007812,-0.9613037109,-1.0833740234,-0.4272460938
1.9729850292,-0.2363281250,0.6757812500,-0.1333007812,-0.9918212891,-1.0681152344,-0.4272460938
1.9756798744,-0.2363281250,0.6757812500,-0.1333007812,-0.9918212891,-1.0681152344,-0.4272460938
1.9783928394,-0.2363281250,0.6757812500,-0.1328125000,-0.5950927734,-0.8544921875,-0.3967285156
1.9810850620,-0.2343750000,0.6733398438,-0.1328125000,-0.5950927734,-0.8544921875,-0.3967285156
1.9838209152,-0.2343750000,0.6733398438,-0.1328125000,-0.5035400391,-1.0681152344,-0.3967285156
1.9866290092,-0.2343750000,0.6733398438,-0.1328125000,-0.5035400391,-1.0681152344,-0.3967285156
1.9895980358,-0.2343750000,0.6752929688,-0.1401367188,-0.6713867188,-1.2359619141,-0.6866455078
1.9923000336,-0.2343750000,0.6752929688,-0.1401367188,-0.6713867188,-1.2359619141,-0.6866455078
1.9949979782,-0.2343750000,0.6752929688,-0.1401367188,-0.5645751953,-1.0681152344,-0.5645751953
1.9976949692,-0.2343750000,0.6752929688,-0.1401367188,-0.5645751953,-1.0681152344,-0.5645751953
2.0002629757,-0.2319335938,0.6757812500,-0.1381835938,-0.2746582031,-0.9307861328,-0.3814697266
2.0028238297,-0.2319335938,0.6757812500,-0.1381835938,-0.2746582031,-0.9307861328,-0.3814697266
2.0053889751,-0.2319335938,0.6757812500,-0.1381835938,-0.2746582031,-0.8087158203,-0.6408691406
2.0080180168,-0.2319335938,0.6757812500,-0.1381835938,-0.3662109375,-0.8087158203,-0.6408691406
2.0107119083,-0.2348632812,0.6752929688,-0.1386718750,-0.3662109375,-1.0833740234,-0.6103515625
2.0134110451,-0.2348632812,0.6752929688,-0.1386718750,-0.3356933594,-1.0833740234,-0.6103515625
2.0161099434,-0.2348632812,0.6752929688,-0.1386718750,-0.3356933594,-1.2817382812,-1.0070800781
2.0188078880,-0.2348632812,0.6743164062,-0.1440429688,0.1678466797,-1.2817382812,-1.0070800781
2.0213739872,-0.2314453125,0.6743164062,-0.1440429688,0.1678466797,-1.2817382812,-0.6561279297
2.0239348412,-0.2314453125,0.6743164062,-0.1440429688,-0.2746582031,-0.8087158203,-0.6561279297
2.0264978409,-0.2314453125,0.6743164062,-0.1440429688,-0.2746582031,-0.8087158203,-0.6561279297
2.0290739536,-0.2314453125,0.6782226562,-0.1420898438,-0.3509521484,-1.0375976562,-0.5645751953
2.0316410065,-0.2304687500,0.6782226562,-0.1420898438,-0.3509521484,-1.0375976562,-0.5645751953
2.0343198776,-0.2304687500,0.6782226562,-0.1420898438,-0.2288818359,-1.3580322266,-0.7171630859
2.0368850231,-0.2304687500,0.6782226562,-0.1420898438,-0.2288818359,-1.3580322266,-0.7171630859
2.0395619869,-0.2333984375,0.6723632812,-0.1411132812,-0.2746582031,-1.6479492188,-0.4882812500
2.0421309471,-0.2333984375,0.6723632812,-0.1411132812,-0.2746582031,-1.6479492188,-0.4882812500
2.0446939468,-0.2333984375,0.6723632812,-0.1411132812,-0.2593994141,-1.0528564453,-0.8239746094
2.0472588539,-0.2333984375,0.6723632812,-0.1411132812,-0.2593994141,-1.0528564453,-0.8239746094
2.0500459671,-0.2348632812,0.6806640625,-0.1416015625,-0.5035400391,-0.3814697266,-0.7476806641
2.0527448654,-0.2348632812,0.6806640625,-0.1416015625,-0.5035400391,-0.3814697266,-0.7476806641
2.0554399490,-0.2348632812,0.6806640625,-0.1416015625,-0.6713867188,-0.6256103516,-0.7171630859
2.0581479073,-0.2348632812,0.6806640625,-0.1416015625,-0.6713867188,-0.6256103516,-0.7171630859
2.0608530045,-0.2290039062,0.6738281250,-0.1362304688,0.0000000000,-0.9155273438,-0.7934570312
2.0635528564,-0.2290039062,0.6738281250,-0.1362304688,0.0000000000,-0.9155273438,-0.7934570312
2.0662498474,-0.2290039062,0.6738281250,-0.1362304688,-0.1068115234,-1.3275146484,-0.5645751953
2.0689480305,-0.2290039062,0.6738281250,-0.1337890625,-0.1068115234,-1.3275146484,-0.5645751953
2.0716419220,-0.2338867188,0.6733398438,-0.1337890625,-0.2899169922,-1.1444091797,-0.9002685547
2.0743389130,-0.2338867188,0.6733398438,-0.1337890625,-0.2899169922,-1.1444091797,-0.9002685547
2.0770339966,-0.2338867188,0.6733398438,-0.1337890625,0.0152587891,-0.8239746094,-0.6256103516
2.0797400475,-0.2338867188,0.6777343750,-0.1489257812,0.0152587891,-0.8239746094,-0.6256103516
2.0824339390,-0.2319335938,0.6777343750,-0.1489257812,-0.0457763672,-0.9613037109,-0.4882812500
2.0851299763,-0.2319335938,0.6777343750,-0.1489257812,-0.0457763672,-0.9613037109,-0.4882812500
2.0878338814,-0.2319335938,0.6777343750,-0.1489257812,0.4119873047,-1.7089843750,-0.9613037109
2.0905330181,-0.2387695312,0.6689453125,-0.1342773438,0.4119873047,-1.7089843750,-0.9613037109
2.0932278633,-0.2387695312,0.6689453125,-0.1342773438,-0.1068115234,-1.0528564453,-0.7476806641
2.0959229469,-0.2387695312,0.6689453125,-0.1342773438,-0.1068115234,-1.0528564453,-0.7476806641
2.0987930298,-0.2387695312,0.6689453125,-0.1342773438,0.1678466797,-1.1138916016,-0.5950927734
2.1014928818,-0.2358398438,0.6738281250,-0.1440429688,0.1678466797,-1.1138916016,-0.5950927734
2.1043908596,-0.2358398438,0.6738281250,-0.1440429688,-0.0610351562,-0.8087158203,-0.7019042969
2.1074588299,-0.2358398438,0.6738281250,-0.1440429688,-0.0610351562,-0.8087158203,-0.7019042969
2.1101758480,-0.2348632812,0.6816406250,-0.1391601562,-0.6256103516,-0.5035400391,-0.6103515625
2.1128740311,-0.2348632812,0.6816406250,-0.1391601562,-0.6256103516,-0.5035400391,-0.6103515625
2.1155688763,-0.2348632812,0.6816406250,-0.1391601562,-0.3814697266,-0.7781982422,-0.6866455078
2.1182768345,-0.2348632812,0.6816406250,-0.1391601562,-0.3814697266,-0.7781982422,-0.6866455078
2.1209719181,-0.2338867188,0.6791992188,-0.1464843750,0.2288818359,-1.0375976562,-0.8697509766
2.1236698627,-0.2338867188,0.6791992188,-0.1464843750,0.2288818359,-1.0375976562,-0.8697509766
2.1263709068,-0.2338867188,0.6791992188,-0.1464843750,0.2899169922,-1.0528564453,-0.9765625000
2.1290810108,-0.2338867188,0.6791992188,-0.1464843750,0.2899169922,-1.0528564453,-0.9765625000
2.1317789555,-0.2353515625,0.6777343750,-0.1352539062,-0.0457763672,-0.8850097656,-0.8239746094
2.1344778538,-0.2353515625,0.6777343750,-0.1352539062,-0.0457763672,-0.8850097656,-0.8239746094
2.1371769905,-0.2353515625,0.6777343750,-0.1352539062,-0.1678466797,-0.6103515625,-0.7629394531
2.1397879124,-0.2353515625,0.6777343750,-0.1372070312,-0.1678466797,-0.6103515625,-0.7629394531
2.1423540115,-0.2348632812,0.6772460938,-0.1372070312,-0.0915527344,-0.3204345703,-0.6103515625
2.1449208260,-0.2348632812,0.6772460938,-0.1372070312,-0.0915527344,-0.3204345703,-0.6103515625
2.1474850178,-0.2348632812,0.6772460938,-0.1372070312,-0.3509521484,-0.3356933594,-0.3509521484
2.1501379013,-0.2348632812,0.6767578125,-0.1401367188,-0.3509521484,-0.3356933594,-0.3509521484
2.1527009010,-0.2377929688,0.6767578125,-0.1401367188,-0.4425048828,-0.5950927734,-0.3356933594
2.1552610397,-0.2377929688,0.6767578125,-0.1401367188,-0.4425048828,-0.5950927734,-0.3356933594
2.1579289436,-0.2377929688,0.6767578125,-0.1401367188,-0.4425048828,-0.8087158203,-0.2899169922
2.1604959965,-0.2377929688,0.6772460938,-0.1376953125,-1.0223388672,-0.8087158203,-0.2899169922
2.1631629467,-0.2314453125,0.6772460938,-0.1376953125,-1.0223388672,-0.5340576172,-0.4577636719
2.1657269001,-0.2314453125,0.6772460938,-0.1376953125,-0.8850097656,-0.5340576172,-0.4577636719
2.1682958603,-0.2314453125,0.6772460938,-0.1376953125,-0.8850097656,-0.5340576172,-0.5035400391
2.1708559990,-0.2368164062,0.6748046875,-0.1313476562,-0.5035400391,-0.5035400391,-0.5035400391
2.1734199524,-0.2368164062,0.6748046875,-0.1313476562,-0.5035400391,-0.5035400391,-0.5035400391
2.1759819984,-0.2368164062,0.6748046875,-0.1313476562,-0.6713867188,-0.1678466797,-0.3814697266
2.1785540581,-0.2368164062,0.6748046875,-0.1313476562,-0.6713867188,-0.1678466797,-0.3814697266
2.1811230183,-0.2392578125,0.6801757812,-0.1396484375,-0.4425048828,-0.1068115234,-0.6256103516
2.1836860180,-0.2392578125,0.6801757812,-0.1396484375,-0.4425048828,-0.1068115234,-0.6256103516
2.1862468719,-0.2392578125,0.6801757812,-0.1396484375,0.3051757812,-0.3051757812,-0.7019042969
2.1888549328,-0.2392578125,0.6801757812,-0.1396484375,0.3051757812,-0.3051757812,-0.7019042969
2.1914169788,-0.2319335938,0.6821289062,-0.1464843750,0.1831054688,-0.3509521484,-0.6408691406
2.1939778328,-0.2319335938,0.6821289062,-0.1464843750,0.1831054688,-0.3509521484,-0.6408691406
2.1965370178,-0.2319335938,0.6821289062,-0.1464843750,-0.6103515625,-0.2288818359,-0.3814697266
2.1992368698,-0.2319335938,0.6821289062,-0.1464843750,-0.6103515625,-0.2288818359,-0.3814697266
2.2018058300,-0.2338867188,0.6782226562,-0.1381835938,-0.0610351562,-0.2593994141,-0.4577636719
2.2043628693,-0.2338867188,0.6782226562,-0.1381835938,-0.0610351562,-0.2593994141,-0.4577636719
2.2069270611,-0.2338867188,0.6782226562,-0.1381835938,0.1525878906,-0.2746582031,-0.5493164062
2.2095749378,-0.2338867188,0.6782226562,-0.1381835938,0.1525878906,-0.2746582031,-0.5493164062
2.2121338844,-0.2421875000,0.6757812500,-0.1313476562,0.1525878906,-0.0305175781,-0.8850097656
2.2149329185,-0.2421875000,0.6757812500,-0.1313476562,-0.1220703125,-0.0305175781,-0.8850097656
2.2175018787,-0.2421875000,0.6757812500,-0.1313476562,-0.1220703125,0.0000000000,-0.7476806641
2.2202429771,-0.2421875000,0.6757812500,-0.1313476562,0.3814697266,0.0000000000,-0.7476806641
2.2228050232,-0.2358398438,0.6782226562,-0.1376953125,0.3814697266,0.0000000000,-0.3662109375
2.2254738808,-0.2358398438,0.6782226562,-0.1376953125,-0.3204345703,-0.0457763672,-0.3662109375
2.2280869484,-0.2358398438,0.6782226562,-0.1376953125,-0.3204345703,-0.0457763672,-0.3051757812
2.2306509018,-0.2358398438,0.6782226562,-0.1386718750,-0.5798339844,0.2441406250,-0.3051757812
2.2332129478,-0.2373046875,0.6748046875,-0.1386718750,-0.5798339844,0.2441406250,-0.3051757812
2.2357759476,-0.2373046875,0.6748046875,-0.1386718750,-0.5645751953,0.0915527344,-0.5340576172
2.2383470535,-0.2373046875,0.6748046875,-0.1386718750,-0.5645751953,0.0915527344,-0.5340576172
2.2409160137,-0.2373046875,0.6767578125,-0.1367187500,-0.4577636719,0.3051757812,-0.3967285156
2.2434790134,-0.2285156250,0.6767578125,-0.1367187500,-0.4577636719,0.3051757812,-0.3967285156
2.2460389137,-0.2285156250,0.6767578125,-0.1367187500,-0.4730224609,0.3662109375,-0.4425048828
2.2486429214,-0.2285156250,0.6767578125,-0.1367187500,-0.4730224609,0.3662109375,-0.4425048828
2.2512040138,-0.2285156250,0.6767578125,-0.1406250000,-1.0681152344,0.5187988281,-0.3051757812
2.2537648678,-0.2309570312,0.6767578125,-0.1406250000,-1.0681152344,0.5187988281,-0.3051757812
2.2563290596,-0.2309570312,0.6767578125,-0.1406250000,-0.6866455078,0.4882812500,-0.5035400391
2.2588989735,-0.2309570312,0.6767578125,-0.1406250000,-0.6866455078,0.4882812500,-0.5035400391
2.2617299557,-0.2329101562,0.6791992188,-0.1318359375,-0.6713867188,0.0457763672,-0.4119873047
2.2642960548,-0.2329101562,0.6791992188,-0.1318359375,-0.6713867188,0.0457763672,-0.4119873047
2.2668569088,-0.2329101562,0.6791992188,-0.1318359375,-0.8392333984,0.6561279297,-0.3662109375
2.2694630623,-0.2329101562,0.6791992188,-0.1318359375,-0.8392333984,0.6561279297,-0.3662109375
2.2720248699,-0.2275390625,0.6772460938,-0.1401367188,-0.8392333984,0.2899169922,-0.5187988281
2.2745840549,-0.2275390625,0.6772460938,-0.1401367188,-0.1831054688,0.2899169922,-0.5187988281
2.2771508694,-0.2275390625,0.6772460938,-0.1401367188,-0.1831054688,0.2899169922,-0.5645751953
2.2797689438,-0.2275390625,0.6772460938,-0.1401367188,-0.2136230469,0.2593994141,-0.5645751953
2.2823419571,-0.2397460938,0.6748046875,-0.1381835938,-0.2136230469,0.2593994141,-0.5645751953
2.2849030495,-0.2397460938,0.6748046875,-0.1381835938,-0.2441406250,0.1525878906,-0.5035400391
2.2875669003,-0.2397460938,0.6748046875,-0.1381835938,-0.2441406250,0.1525878906,-0.5035400391
2.2901928425,-0.2397460938,0.6748046875,-0.1381835938,-0.1373291016,0.4577636719,-0.4119873047
2.2927529812,-0.2343750000,0.6806640625,-0.1362304688,-0.1373291016,0.4577636719,-0.4119873047
2.2953128815,-0.2343750000,0.6806640625,-0.1362304688,-0.3051757812,0.5798339844,-0.2899169922
2.2978799343,-0.2343750000,0.6806640625,-0.1362304688,-0.3051757812,0.5798339844,-0.2899169922
2.3004448414,-0.2343750000,0.6806640625,-0.1362304688,-0.4425048828,0.4425048828,-0.4577636719
2.3030099869,-0.2343750000,0.6752929688,-0.1513671875,-0.4425048828,0.4425048828,-0.4577636719
2.3055739403,-0.2343750000,0.6752929688,-0.1513671875,-0.2746582031,0.1220703125,-0.4882812500
2.3082740307,-0.2343750000,0.6752929688,-0.1513671875,-0.2746582031,0.1220703125,-0.4882812500
2.3108649254,-0.2343750000,0.6752929688,-0.1513671875,-0.3814697266,0.1983642578,-0.2746582031
2.3134329319,-0.2421875000,0.6777343750,-0.1386718750,-0.3814697266,0.1983642578,-0.2746582031
2.3159978390,-0.2421875000,0.6777343750,-0.1386718750,-0.4882812500,0.8239746094,-0.3814697266
2.3187668324,-0.2421875000,0.6777343750,-0.1386718750,-0.4882812500,0.8239746094,-0.3814697266
2.3214640617,-0.2421875000,0.6777343750,-0.1333007812,-0.3814697266,0.8544921875,-0.4272460938
2.3241660595,-0.2402343750,0.6782226562,-0.1333007812,-0.3814697266,0.8544921875,-0.4272460938
2.3268618584,-0.2402343750,0.6782226562,-0.1333007812,-0.4882812500,0.2136230469,-0.4425048828
2.3294909000,-0.2402343750,0.6782226562,-0.1333007812,-0.4882812500,0.2136230469,-0.4425048828
2.3320629597,-0.2402343750,0.6733398438,-0.1425781250,-0.4882812500,0.4425048828,-0.0915527344
2.3346309662,-0.2407226562,0.6733398438,-0.1425781250,-0.3356933594,0.4425048828,-0.0915527344
2.3371968269,-0.2407226562,0.6733398438,-0.1425781250,-0.3356933594,0.4425048828,-0.0915527344
2.3399088383,-0.2407226562,0.6733398438,-0.1425781250,-0.3662109375,0.0762939453,-0.0915527344
2.3426098824,-0.2387695312,0.6772460938,-0.1318359375,-0.3662109375,0.0762939453,-0.1220703125
2.3453149796,-0.2387695312,0.6772460938,-0.1318359375,-0.7476806641,0.1068115234,-0.1220703125
2.3480548859,-0.2387695312,0.6772460938,-0.1318359375,-0.7476806641,0.1068115234,-0.2441406250
2.3507268429,-0.2387695312,0.6772460938,-0.1318359375,-0.4577636719,0.3204345703,-0.2441406250
2.3532989025,-0.2265625000,0.6801757812,-0.1386718750,-0.4577636719,0.3204345703,-0.5340576172
2.3558650017,-0.2265625000,0.6801757812,-0.1386718750,-0.5645751953,0.3051757812,-0.5340576172
2.3585188389,-0.2265625000,0.6801757812,-0.1386718750,-0.5645751953,0.3051757812,-0.2593994141
2.3612179756,-0.2265625000,0.6801757812,-0.1386718750,-0.8544921875,0.5035400391,-0.2593994141
2.3639149666,-0.2314453125,0.6821289062,-0.1372070312,-0.8544921875,0.5035400391,-0.2593994141
2.3666188717,-0.2314453125,0.6821289062,-0.1372070312,-0.7781982422,0.4882812500,-0.2593994141
2.3693258762,-0.2314453125,0.6821289062,-0.1372070312,-0.7781982422,0.4882812500,-0.2593994141
2.3720209599,-0.2314453125,0.6821289062,-0.1430664062,-0.9155273438,0.3814697266,-0.4119873047
2.3748369217,-0.2290039062,0.6748046875,-0.1430664062,-0.9155273438,0.3814697266,-0.1983642578
2.3779358864,-0.2290039062,0.6748046875,-0.1430664062,-0.8239746094,0.1525878906,-0.1983642578
2.3805098534,-0.2290039062,0.6748046875,-0.1430664062,-0.8239746094,0.1525878906,-0.2899169922
2.3830749989,-0.2358398438,0.6767578125,-0.1342773438,-0.6561279297,0.2288818359,-0.2899169922
2.3856399059,-0.2358398438,0.6767578125,-0.1342773438,-0.6561279297,0.2288818359,-0.2899169922
2.3882780075,-0.2358398438,0.6767578125,-0.1342773438,-0.3814697266,0.4119873047,-0.3662109375
2.3909790516,-0.2358398438,0.6767578125,-0.1342773438,-0.3814697266,0.4119873047,-0.3662109375
2.3936769962,-0.2304687500,0.6796875000,-0.1347656250,-0.5187988281,0.4730224609,-0.1068115234
2.3963799477,-0.2304687500,0.6796875000,-0.1347656250,-0.5187988281,0.4730224609,-0.1068115234
2.3990859985,-0.2304687500,0.6796875000,-0.1347656250,-0.4272460938,0.3204345703,-0.2899169922
2.4017858505,-0.2304687500,0.6796875000,-0.1347656250,-0.4272460938,0.3204345703,-0.2899169922
2.4044849873,-0.2333984375,0.6738281250,-0.1445312500,-0.7171630859,0.1678466797,-0.3662109375
2.4071860313,-0.2333984375,0.6738281250,-0.1445312500,-0.7171630859,0.1678466797,-0.3662109375
2.4098000526,-0.2333984375,0.6738281250,-0.1445312500,-0.5645751953,0.3814697266,-0.1831054688
2.4123699665,-0.2333984375,0.6738281250,-0.1391601562,-0.5645751953,0.3814697266,-0.1831054688
2.4150328636,-0.2392578125,0.6772460938,-0.1391601562,-0.8239746094,0.5035400391,-0.3356933594
2.4176020622,-0.2392578125,0.6772460938,-0.1391601562,-0.8239746094,0.5035400391,-0.3356933594
2.4201929569,-0.2392578125,0.6772460938,-0.1391601562,-0.4577636719,0.4272460938,-0.5493164062
2.4227619171,-0.2392578125,0.6796875000,-0.1381835938,-0.4577636719,0.4272460938,-0.5493164062
2.4253289700,-0.2392578125,0.6796875000,-0.1381835938,-0.5950927734,0.6561279297,-0.4425048828
2.4279580116,-0.2392578125,0.6796875000,-0.1381835938,-0.5950927734,0.6561279297,-0.4425048828
2.4305520058,-0.2392578125,0.6796875000,-0.1381835938,-0.1068115234,0.5035400391,-0.5035400391
2.4331169128,-0.2392578125,0.6772460938,-0.1416015625,-0.1068115234,0.5035400391,-0.5035400391
2.4356820583,-0.2299804688,0.6772460938,-0.1416015625,-0.1831054688,-0.0762939453,-0.7781982422
2.4384100437,-0.2299804688,0.6772460938,-0.1416015625,-0.1831054688,-0.0762939453,-0.7781982422
2.4411170483,-0.2299804688,0.6772460938,-0.1416015625,-0.5340576172,0.0457763672,-0.3204345703
2.4438209534,-0.2338867188,0.6772460938,-0.1372070312,-0.5340576172,0.0457763672,-0.3204345703
2.4465198517,-0.2338867188,0.6772460938,-0.1372070312,-0.9613037109,0.3051757812,-0.2899169922
2.4492659569,-0.2338867188,0.6772460938,-0.1372070312,-0.9613037109,0.3051757812,-0.2899169922
2.4519579411,-0.2338867188,0.6772460938,-0.1372070312,-1.3427734375,0.0610351562,-0.2899169922
2.4546549320,-0.2250976562,0.6801757812,-0.1386718750,-1.3427734375,0.0610351562,-0.2899169922
2.4573509693,-0.2250976562,0.6801757812,-0.1386718750,-1.1138916016,0.1678466797,-0.4882812500
2.4600670338,-0.2250976562,0.6801757812,-0.1386718750,-1.1138916016,0.1678466797,-0.4882812500
2.4627618790,-0.2250976562,0.6801757812,-0.1342773438,-0.6256103516,-0.1220703125,-0.2899169922
2.4654679298,-0.2324218750,0.6787109375,-0.1342773438,-0.6256103516,-0.1220703125,-0.2899169922
2.4681668282,-0.2324218750,0.6787109375,-0.1342773438,-0.6256103516,0.0000000000,-0.4119873047
2.4707310200,-0.2324218750,0.6787109375,-0.1342773438,-0.8239746094,0.0000000000,-0.4119873047
2.4732978344,-0.2324218750,0.6752929688,-0.1362304688,-0.8239746094,0.0000000000,-0.5187988281
2.4758639336,-0.2348632812,0.6752929688,-0.1362304688,-0.8850097656,0.0305175781,-0.5187988281
2.4784908295,-0.2348632812,0.6752929688,-0.1362304688,-0.8850097656,0.0305175781,-0.7324218750
2.4811668396,-0.2348632812,0.6752929688,-0.1362304688,-0.6256103516,-0.1831054688,-0.7324218750
2.4837360382,-0.2280273438,0.6782226562,-0.1357421875,-0.6256103516,-0.1831054688,-0.7324218750
2.4863040447,-0.2280273438,0.6782226562,-0.1357421875,-0.9765625000,-0.1068115234,-0.4272460938
2.4889478683,-0.2280273438,0.6782226562,-0.1357421875,-0.9765625000,-0.1068115234,-0.4272460938
2.4916410446,-0.2280273438,0.6782226562,-0.1357421875,-0.7171630859,0.1068115234,-0.6866455078
2.4944639206,-0.2358398438,0.6782226562,-0.1357421875,-0.7171630859,0.1068115234,-0.6866455078
2.4971580505,-0.2358398438,0.6782226562,-0.1357421875,-0.6408691406,0.1831054688,-0.3814697266
2.5002639294,-0.2358398438,0.6782226562,-0.1357421875,-0.6408691406,0.1831054688,-0.4882812500
2.5029640198,-0.2358398438,0.6782226562,-0.1367187500,-1.0833740234,0.0915527344,-0.4882812500
2.5056600571,-0.2407226562,0.6777343750,-0.1367187500,-1.0833740234,0.0915527344,-0.5340576172
2.5083789825,-0.2407226562,0.6777343750,-0.1367187500,-0.6561279297,0.1220703125,-0.5340576172
2.5110819340,-0.2407226562,0.6777343750,-0.1367187500,-0.6561279297,0.1220703125,-0.8392333984
2.5137789249,-0.2407226562,0.6772460938,-0.1372070312,-0.8850097656,0.3967285156,-0.8392333984
2.5164828300,-0.2319335938,0.6772460938,-0.1372070312,-0.8850097656,0.3967285156,-1.1138916016
2.5191800594,-0.2319335938,0.6772460938,-0.1372070312,-0.5187988281,0.1373291016,-1.1138916016
2.5218799114,-0.2319335938,0.6772460938,-0.1372070312,-0.5187988281,0.1373291016,-0.6408691406
2.5245759487,-0.2290039062,0.6743164062,-0.1381835938,-0.8239746094,0.2593994141,-0.6408691406
2.5272710323,-0.2290039062,0.6743164062,-0.1381835938,-0.8239746094,0.2593994141,-0.6408691406
2.5298850536,-0.2290039062,0.6743164062,-0.1381835938,-0.7324218750,0.2441406250,-0.6256103516
2.5324499607,-0.2290039062,0.6743164062,-0.1381835938,-0.7324218750,0.2441406250,-0.6256103516
2.5350120068,-0.2314453125,0.6767578125,-0.1308593750,-1.2512207031,0.0457763672,-0.7324218750
2.5375769138,-0.2314453125,0.6767578125,-0.1308593750,-1.2512207031,0.0457763672,-0.7324218750
2.5401968956,-0.2314453125,0.6767578125,-0.1308593750,-0.7629394531,-0.0152587891,-1.0375976562
2.5427680016,-0.2314453125,0.6767578125,-0.1308593750,-0.7629394531,-0.0152587891,-1.0375976562
2.5454330444,-0.2358398438,0.6738281250,-0.1337890625,-0.7629394531,0.2899169922,-0.8697509766
2.5481739044,-0.2358398438,0.6738281250,-0.1337890625,-0.7629394531,0.2899169922,-0.8697509766
2.5507500172,-0.2358398438,0.6738281250,-0.1337890625,-0.6713867188,-0.0457763672,-1.0528564453
2.5533149242,-0.2358398438,0.6738281250,-0.1337890625,-0.6713867188,-0.0457763672,-1.0528564453
2.5558798313,-0.2241210938,0.6733398438,-0.1489257812,-0.3509521484,-0.2899169922,-1.3732910156
2.5586059093,-0.2241210938,0.6733398438,-0.1489257812,-0.3509521484,-0.2899169922,-1.3732910156
2.5613059998,-0.2241210938,0.6733398438,-0.1489257812,-0.3356933594,-0.2899169922,-1.4190673828
2.5640079975,-0.2241210938,0.6752929688,-0.1357421875,-0.3356933594,-0.2899169922,-1.4190673828
2.5667040348,-0.2285156250,0.6752929688,-0.1357421875,-0.5187988281,-0.2746582031,-0.9307861328
2.5694019794,-0.2285156250,0.6752929688,-0.1357421875,-0.5187988281,-0.2746582031,-0.9307861328
2.5721030235,-0.2285156250,0.6752929688,-0.1357421875,-0.7324218750,-0.7171630859,-1.3122558594
2.5748009682,-0.2333984375,0.6728515625,-0.1381835938,-0.7324218750,-0.7171630859,-1.3122558594
2.5774948597,-0.2333984375,0.6728515625,-0.1381835938,-0.3509521484,-0.6103515625,-1.3885498047
2.5800778866,-0.2333984375,0.6728515625,-0.1381835938,-0.3509521484,-0.6103515625,-1.3885498047
2.5826468468,-0.2333984375,0.6728515625,-0.1381835938,-0.4577636719,-0.4119873047,-1.4953613281
2.5852189064,-0.2280273438,0.6752929688,-0.1357421875,-0.4577636719,-0.4119873047,-1.4953613281
2.5878078938,-0.2280273438,0.6752929688,-0.1357421875,-0.4577636719,-0.0457763672,-1.3275146484
2.5904989243,-0.2280273438,0.6752929688,-0.1357421875,-0.2899169922,-0.0457763672,-1.3275146484
2.5932040215,-0.2280273438,0.6752929688,-0.1357421875,-0.2899169922,-0.1525878906,-1.5869140625
2.5958988667,-0.2304687500,0.6757812500,-0.1420898438,-0.6561279297,-0.1525878906,-1.5869140625
2.5985970497,-0.2304687500,0.6757812500,-0.1420898438,-0.6561279297,0.0915527344,-1.4190673828
2.6013050079,-0.2304687500,0.6757812500,-0.1420898438,-0.7934570312,0.0915527344,-1.4190673828
2.6039979458,-0.2304687500,0.6757812500,-0.1406250000,-0.7934570312,-0.1831054688,-1.4343261719
2.6067008972,-0.2338867188,0.6704101562,-0.1406250000,-0.3051757812,-0.1831054688,-1.4343261719
2.6095108986,-0.2338867188,0.6704101562,-0.1406250000,-0.3051757812,0.2136230469,-1.7700195312
2.6122088432,-0.2338867188,0.6704101562,-0.1406250000,-0.7934570312,0.2136230469,-1.7700195312
2.6151578426,-0.2548828125,0.6689453125,-0.1562500000,-0.7934570312,0.5645751953,-1.1596679688
2.6182458401,-0.2548828125,0.6689453125,-0.1562500000,-2.0751953125,0.5645751953,-1.1596679688
2.6208209991,-0.2548828125,0.6689453125,-0.1562500000,-2.5482177734,0.2136230469,-0.4882812500
2.6233830452,-0.2548828125,0.6689453125,-0.1562500000,-2.5482177734,0.2136230469,-0.4882812500
2.6260688305,-0.2548828125,0.6630859375,-0.1489257812,-2.5482177734,-0.0610351562,-0.3356933594
2.6287000179,-0.2548828125,0.6630859375,-0.1489257812,-3.5095214844,-0.0610351562,-0.3356933594
2.6313600540,-0.2548828125,0.6630859375,-0.1489257812,-7.4157714844,-0.0305175781,-0.2441406250
2.6340179443,-0.2548828125,0.6630859375,-0.1489257812,-4.3182373047,-0.0305175781,-0.2441406250
2.6367440224,-0.2631835938,0.6718750000,-0.1499023438,-4.3182373047,-0.1068115234,0.0610351562
2.6394889355,-0.2631835938,0.6718750000,-0.1499023438,-5.2032470703,-0.1068115234,0.0610351562
2.6421868801,-0.2631835938,0.6718750000,-0.1499023438,-5.2032470703,0.4882812500,-0.1983642578
2.6448829174,-0.2631835938,0.6865234375,-0.1518554688,-5.9356689453,0.4882812500,-0.1983642578
2.6475708485,-0.2773437500,0.6865234375,-0.1518554688,-5.9356689453,1.1291503906,-0.6256103516
2.6501579285,-0.2773437500,0.6865234375,-0.1518554688,-5.6762695312,1.1291503906,-0.6256103516
2.6527178288,-0.2773437500,0.6865234375,-0.1518554688,-5.6762695312,1.1291503906,-0.7934570312
2.6552920341,-0.2797851562,0.6860351562,-0.1455078125,-5.1116943359,1.6479492188,-0.7934570312
2.6578528881,-0.2797851562,0.6860351562,-0.1455078125,-5.1116943359,1.6479492188,-0.7934570312
2.6604180336,-0.2797851562,0.6860351562,-0.1455078125,-4.2877197266,1.6632080078,-0.9460449219
2.6629898548,-0.2797851562,0.6860351562,-0.1455078125,-4.2877197266,1.6632080078,-0.9460449219
2.6655550003,-0.2856445312,0.6752929688,-0.1499023438,-5.1116943359,1.4343261719,-0.7781982422
2.6682100296,-0.2856445312,0.6752929688,-0.1499023438,-5.1116943359,1.4343261719,-0.7781982422
2.6707899570,-0.2856445312,0.6752929688,-0.1499023438,-6.5765380859,1.4190673828,-0.5950927734
2.6734590530,-0.2856445312,0.6752929688,-0.1499023438,-6.5765380859,1.4190673828,-0.5950927734
2.6760258675,-0.2871093750,0.6650390625,-0.1381835938,-7.0190429688,1.5106201172,-0.7324218750
2.6787869930,-0.2871093750,0.6650390625,-0.1381835938,-7.0190429688,1.5106201172,-0.7324218750
2.6814758778,-0.2871093750,0.6650390625,-0.1381835938,-8.1176757812,1.9989013672,-1.0375976562
2.6841788292,-0.2871093750,0.6650390625,-0.1381835938,-8.1176757812,1.9989013672,-1.0375976562
2.6868729591,-0.2841796875,0.6826171875,-0.1440429688,-8.8958740234,2.0446777344,-1.0223388672
2.6895818710,-0.2841796875,0.6826171875,-0.1440429688,-8.8958740234,2.0446777344,-1.0223388672
2.6922788620,-0.2841796875,0.6826171875,-0.1440429688,-8.8195800781,2.1972656250,-1.1138916016
2.6949720383,-0.2841796875,0.6826171875,-0.1450195312,-8.8195800781,2.1972656250,-1.1138916016
2.6976699829,-0.2778320312,0.6879882812,-0.1450195312,-8.4991455078,2.1057128906,-1.6632080078
2.7003729343,-0.2778320312,0.6879882812,-0.1450195312,-8.4991455078,2.1057128906,-1.6632080078
2.7030708790,-0.2778320312,0.6879882812,-0.1450195312,-8.4533691406,1.8615722656,-1.8005371094
2.7058689594,-0.2641601562,0.6875000000,-0.1430664062,-8.4533691406,1.8615722656,-1.8005371094
2.7085380554,-0.2641601562,0.6875000000,-0.1430664062,-7.7362060547,1.9073486328,-1.5411376953
2.7110979557,-0.2641601562,0.6875000000,-0.1430664062,-7.7362060547,1.9073486328,-1.5411376953
2.7136659622,-0.2641601562,0.6875000000,-0.1430664062,-7.1868896484,1.9378662109,-1.4953613281
2.7162270546,-0.2670898438,0.6723632812,-0.1435546875,-7.1868896484,1.9378662109,-1.4953613281
2.7188689709,-0.2670898438,0.6723632812,-0.1435546875,-7.2479248047,2.0141601562,-1.8768310547
2.7214348316,-0.2670898438,0.6723632812,-0.1435546875,-7.2479248047,2.0141601562,-1.8768310547
2.7239940166,-0.2670898438,0.6723632812,-0.1435546875,-7.2479248047,2.0141601562,-2.0751953125
2.7265620232,-0.2534179688,0.6713867188,-0.1450195312,-6.8511962891,2.0141601562,-2.0751953125
2.7292029858,-0.2534179688,0.6713867188,-0.1450195312,-6.8511962891,2.0599365234,-1.7242431641
2.7318978310,-0.2534179688,0.6713867188,-0.1450195312,-6.0119628906,2.0599365234,-1.7242431641
2.7348299026,-0.2534179688,0.6713867188,-0.1450195312,-6.0119628906,1.9531250000,-1.7242431641
2.7380809784,-0.2485351562,0.6645507812,-0.1362304688,-5.8441162109,1.9531250000,-1.7242431641
2.7407908440,-0.2485351562,0.6645507812,-0.1362304688,-5.6304931641,2.1667480469,-1.3427734375
2.7434859276,-0.2485351562,0.6645507812,-0.1362304688,-5.6304931641,2.1667480469,-1.3427734375
2.7461869717,-0.2460937500,0.6708984375,-0.1450195312,-5.2642822266,2.4719238281,-1.2512207031
2.7488958836,-0.2460937500,0.6708984375,-0.1450195312,-5.2642822266,2.4719238281,-1.2512207031
2.7515919209,-0.2460937500,0.6708984375,-0.1450195312,-6.2103271484,2.5787353516,-1.2359619141
2.7542920113,-0.2460937500,0.6708984375,-0.1450195312,-6.2103271484,2.5787353516,-1.2359619141
2.7569890022,-0.2421875000,0.6660156250,-0.1435546875,-6.5765380859,2.5787353516,-1.1138916016
2.7596969604,-0.2421875000,0.6660156250,-0.1435546875,-6.5765380859,2.5787353516,-1.1138916016
2.7623939514,-0.2421875000,0.6660156250,-0.1435546875,-6.9732666016,2.6092529297,-1.0223388672
2.7650878429,-0.2421875000,0.6660156250,-0.1435546875,-6.9732666016,2.6092529297,-1.0223388672
2.7677879333,-0.2421875000,0.6728515625,-0.1333007812,-7.2479248047,3.0670166016,-0.9613037109
2.7703549862,-0.2421875000,0.6728515625,-0.1333007812,-7.2479248047,3.0670166016,-0.9613037109
2.7729158401,-0.2421875000,0.6728515625,-0.1333007812,-7.2479248047,3.4332275391,-0.9155273438
2.7754819393,-0.2421875000,0.6728515625,-0.1333007812,-7.5225830078,3.4332275391,-0.9155273438
2.7780909538,-0.2324218750,0.6904296875,-0.1367187500,-7.5225830078,7.3394775391,-1.0528564453
2.7806499004,-0.2324218750,0.6904296875,-0.1367187500,-7.5836181641,3.9825439453,-1.0528564453
2.7832179070,-0.2324218750,0.6904296875,-0.1367187500,-7.5836181641,3.9825439453,-1.1444091797
2.7857768536,-0.2324218750,0.6904296875,-0.1264648438,-6.8817138672,3.9520263672,-1.1444091797
2.7884008884,-0.2260742188,0.6870117188,-0.1264648438,-6.8817138672,3.9520263672,-1.1444091797
2.7909748554,-0.2260742188,0.6870117188,-0.1264648438,-6.7138671875,4.1351318359,-0.8392333984
2.7935369015,-0.2260742188,0.6870117188,-0.1264648438,-6.7138671875,4.1351318359,-0.8392333984
2.7961058617,-0.2260742188,0.6870117188,-0.1372070312,-6.8206787109,4.1198730469,-0.5645751953
2.7987978458,-0.2211914062,0.6772460938,-0.1372070312,-6.8206787109,4.1198730469,-0.5645751953
2.8016028404,-0.2211914062,0.6772460938,-0.1372070312,-7.1258544922,4.0435791016,-0.5950927734
2.8043060303,-0.2211914062,0.6772460938,-0.1372070312,-7.1258544922,4.0435791016,-0.5950927734
2.8069999218,-0.2119140625,0.6777343750,-0.1220703125,-6.9427490234,4.2266845703,-0.7019042969
2.8097088337,-0.2119140625,0.6777343750,-0.1220703125,-6.9427490234,4.2266845703,-0.7019042969
2.8124089241,-0.2119140625,0.6777343750,-0.1220703125,-6.7749023438,4.2114257812,-0.9002685547
2.8150990009,-0.2119140625,0.6777343750,-0.1220703125,-6.7749023438,4.2114257812,-0.9002685547
2.8178079128,-0.2060546875,0.6757812500,-0.1020507812,-6.1187744141,4.7149658203,-1.1749267578
2.8203718662,-0.2060546875,0.6757812500,-0.1020507812,-6.1187744141,4.7149658203,-1.1749267578
2.8229360580,-0.2060546875,0.6757812500,-0.1020507812,-5.1269531250,4.7607421875,-0.9002685547
2.8255069256,-0.2060546875,0.6757812500,-0.1020507812,-5.1269531250,4.7607421875,-0.9002685547
2.8281028271,-0.2031250000,0.6801757812,-0.0932617188,-4.9438476562,4.5928955078,-0.9460449219
2.8306670189,-0.2031250000,0.6801757812,-0.0932617188,-4.9438476562,4.5928955078,-0.9460449219
2.8332419395,-0.2031250000,0.6801757812,-0.0932617188,-4.5928955078,4.3487548828,-1.1901855469
2.8358049393,-0.2031250000,0.6801757812,-0.0932617188,-4.5928955078,4.3487548828,-1.1901855469
2.8384099007,-0.2011718750,0.6850585938,-0.0986328125,-3.9367675781,4.1809082031,-0.9155273438
2.8411059380,-0.2011718750,0.6850585938,-0.0986328125,-3.9367675781,4.1809082031,-0.9155273438
2.8438010216,-0.2011718750,0.6850585938,-0.0986328125,-3.6621093750,4.3029785156,-0.6256103516
2.8464989662,-0.2011718750,0.6850585938,-0.0986328125,-3.6621093750,4.3029785156,-0.6256103516
2.8492019176,-0.1953125000,0.6899414062,-0.0986328125,-3.6621093750,4.1656494141,-0.7629394531
2.8518998623,-0.1953125000,0.6899414062,-0.0986328125,-2.5024414062,4.1656494141,-0.7629394531
2.8549139500,-0.1953125000,0.6899414062,-0.0986328125,-2.1209716797,4.1809082031,-0.9765625000
2.8580439091,-0.1943359375,0.6796875000,-0.0957031250,-2.1209716797,4.1809082031,-0.9765625000
2.8607549667,-0.1943359375,0.6796875000,-0.0957031250,-2.3040771484,3.7536621094,-0.6256103516
2.8634560108,-0.1943359375,0.6796875000,-0.0957031250,-2.3040771484,3.7536621094,-0.6256103516
2.8662588596,-0.1943359375,0.6796875000,-0.0957031250,-2.3345947266,3.9215087891,-0.4882812500
2.8689310551,-0.1889648438,0.6772460938,-0.0927734375,-2.3345947266,3.9215087891,-0.4882812500
2.8714959621,-0.1889648438,0.6772460938,-0.0927734375,-1.3885498047,3.4790039062,-0.5950927734
2.8740708828,-0.1889648438,0.6772460938,-0.0927734375,-1.3885498047,3.4790039062,-0.5950927734
2.8766388893,-0.1889648438,0.6772460938,-0.0947265625,-1.2969970703,3.5400390625,-0.3814697266
2.8793129921,-0.1870117188,0.6733398438,-0.0947265625,-1.2969970703,3.5400390625,-0.3814697266
2.8820149899,-0.1870117188,0.6733398438,-0.0947265625,-1.1749267578,3.4484863281,-0.3967285156
2.8847138882,-0.1870117188,0.6733398438,-0.0947265625,-1.1749267578,3.4484863281,-0.3967285156
2.8874108791,-0.1870117188,0.6782226562,-0.0942382812,-0.5035400391,3.4027099609,-0.4577636719
2.8900148869,-0.1923828125,0.6782226562,-0.0942382812,-0.5035400391,3.4027099609,-0.4577636719
2.8925850391,-0.1923828125,0.6782226562,-0.0942382812,-0.5035400391,2.9144287109,-0.5187988281
2.8951518536,-0.1923828125,0.6782226562,-0.0942382812,0.0762939453,2.9144287109,-0.5187988281
2.8977198601,-0.1831054688,0.6879882812,-0.0966796875,0.0762939453,2.9144287109,-0.5340576172
2.9003338814,-0.1831054688,0.6879882812,-0.0966796875,0.2441406250,2.5482177734,-0.5340576172
2.9029090405,-0.1831054688,0.6879882812,-0.0966796875,0.2441406250,2.5482177734,-0.5950927734
2.9054780006,-0.1831054688,0.6879882812,-0.0966796875,0.3967285156,2.2125244141,-0.5950927734
2.9081969261,-0.1889648438,0.6801757812,-0.1020507812,0.3967285156,2.2125244141,-0.5950927734
2.9107708931,-0.1889648438,0.6801757812,-0.1020507812,0.4577636719,2.4108886719,-0.5493164062
2.9133398533,-0.1889648438,0.6801757812,-0.1020507812,0.4577636719,2.4108886719,-0.5493164062
2.9159150124,-0.1889648438,0.6801757812,-0.1020507812,0.5035400391,2.2735595703,-0.4425048828
2.9185838699,-0.1889648438,0.6796875000,-0.0937500000,0.5035400391,2.2735595703,-0.4425048828
2.9211509228,-0.1889648438,0.6796875000,-0.0937500000,0.4119873047,2.1209716797,-0.4577636719
2.9237289429,-0.1889648438,0.6796875000,-0.0937500000,0.4119873047,2.1209716797,-0.4577636719
2.9262979031,-0.1889648438,0.6796875000,-0.0937500000,0.6713867188,2.1820068359,-0.3356933594
2.9290359020,-0.1884765625,0.6816406250,-0.0957031250,0.6713867188,2.1820068359,-0.3356933594
2.9317350388,-0.1884765625,0.6816406250,-0.0957031250,1.2207031250,2.0141601562,-0.4272460938
2.9344279766,-0.1884765625,0.6816406250,-0.0957031250,1.2207031250,2.0141601562,-0.4272460938
2.9371278286,-0.1884765625,0.6816406250,-0.0908203125,1.5411376953,1.8920898438,-0.4425048828
2.9398748875,-0.1972656250,0.6718750000,-0.0908203125,1.5411376953,1.8920898438,-0.4425048828
2.9425690174,-0.1972656250,0.6718750000,-0.0908203125,2.2430419922,1.8157958984,-0.4730224609
2.9452729225,-0.1972656250,0.6718750000,-0.0908203125,2.2430419922,1.8157958984,-0.4730224609
2.9480140209,-0.1972656250,0.6855468750,-0.1025390625,2.6702880859,1.7547607422,-0.6408691406
2.9507088661,-0.2011718750,0.6855468750,-0.1025390625,2.6702880859,1.7547607422,-0.6408691406
2.9534130096,-0.2011718750,0.6855468750,-0.1025390625,2.9602050781,1.8463134766,-0.7019042969
2.9561090469,-0.2011718750,0.6855468750,-0.1025390625,2.9602050781,1.8463134766,-0.7019042969
2.9588549137,-0.1982421875,0.6831054688,-0.1113281250,3.6163330078,1.8463134766,-0.5645751953
2.9615519047,-0.1982421875,0.6831054688,-0.1113281250,3.6163330078,1.8463134766,-0.5645751953
2.9642479420,-0.1982421875,0.6831054688,-0.1113281250,4.1809082031,1.3275146484,-0.3662109375
2.9669518471,-0.1982421875,0.6831054688,-0.1113281250,4.1809082031,1.3275146484,-0.3662109375
2.9695758820,-0.2089843750,0.6748046875,-0.1113281250,4.8828125000,1.3885498047,-0.6561279297
2.9721369743,-0.2089843750,0.6748046875,-0.1113281250,4.8828125000,1.3885498047,-0.6561279297
2.9747738838,-0.2089843750,0.6748046875,-0.1113281250,5.0354003906,1.4038085938,-0.4119873047
2.9774508476,-0.2089843750,0.6748046875,-0.1235351562,5.0354003906,1.4038085938,-0.4119873047
2.9805078506,-0.2050781250,0.6821289062,-0.1235351562,5.1727294922,1.2512207031,-0.0762939453
2.9832110405,-0.2050781250,0.6821289062,-0.1235351562,5.1727294922,1.2512207031,-0.0762939453
2.9859080315,-0.2050781250,0.6821289062,-0.1235351562,5.1727294922,0.9918212891,-0.2136230469
2.9886548519,-0.2094726562,0.6733398438,-0.1083984375,5.1727294922,0.9918212891,-0.2136230469
2.9913539886,-0.2094726562,0.6733398438,-0.1083984375,5.5847167969,0.7781982422,-0.1373291016
2.9941658974,-0.2094726562,0.6733398438,-0.1083984375,5.5847167969,0.7781982422,-0.1373291016
2.9968669415,-0.2094726562,0.6733398438,-0.1083984375,5.3863525391,0.8087158203,-0.4577636719
2.9995758533,-0.2143554688,0.6787109375,-0.1127929688,5.3863525391,0.8087158203,-0.4577636719
3.0022809505,-0.2143554688,0.6787109375,-0.1127929688,5.4168701172,1.0375976562,-0.5493164062
3.0049779415,-0.2143554688,0.6787109375,-0.1127929688,5.4168701172,1.0375976562,-0.5493164062
3.0076749325,-0.2143554688,0.6787109375,-0.1127929688,6.2866210938,0.9765625000,-0.5645751953
3.0102658272,-0.2128906250,0.6875000000,-0.1132812500,6.2866210938,0.9765625000,-0.5645751953
3.0128319263,-0.2128906250,0.6875000000,-0.1132812500,6.1340332031,0.7781982422,-0.5950927734
3.0154018402,-0.2128906250,0.6875000000,-0.1132812500,6.1340332031,0.7781982422,-0.5950927734
3.0180249214,-0.2128906250,0.6875000000,-0.1186523438,5.8746337891,0.7171630859,-0.5340576172
3.0205948353,-0.2182617188,0.6855468750,-0.1186523438,5.8746337891,0.7171630859,-0.5340576172
3.0231668949,-0.2182617188,0.6855468750,-0.1186523438,5.8746337891,0.2593994141,-0.6408691406
3.0257339478,-0.2182617188,0.6855468750,-0.1186523438,5.6304931641,0.2593994141,-0.6408691406
3.0284409523,-0.2182617188,0.6772460938,-0.1333007812,5.6304931641,0.2593994141,-0.4577636719
3.0310168266,-0.2241210938,0.6772460938,-0.1333007812,4.9896240234,0.0457763672,-0.4577636719
3.0335769653,-0.2241210938,0.6772460938,-0.1333007812,4.9896240234,0.0457763672,-0.3509521484
3.0361449718,-0.2241210938,0.6772460938,-0.1333007812,4.8828125000,0.1373291016,-0.3509521484
3.0388309956,-0.2241210938,0.6728515625,-0.1230468750,4.8828125000,0.1373291016,-0.3509521484
3.0414910316,-0.2275390625,0.6728515625,-0.1230468750,5.2490234375,-0.0305175781,-0.5493164062
3.0441539288,-0.2275390625,0.6728515625,-0.1230468750,5.2490234375,-0.0305175781,-0.5493164062
3.0468130112,-0.2275390625,0.6728515625,-0.1230468750,5.0964355469,-0.1068115234,-0.3967285156
3.0495169163,-0.2285156250,0.6757812500,-0.1342773438,5.0964355469,-0.1068115234,-0.3967285156
3.0522170067,-0.2285156250,0.6757812500,-0.1342773438,5.2490234375,-0.3662109375,-0.3662109375
3.0549118519,-0.2285156250,0.6757812500,-0.1342773438,5.2490234375,-0.3662109375,-0.3662109375
3.0577158928,-0.2285156250,0.6757812500,-0.1342773438,5.1269531250,-0.5798339844,-0.8087158203
3.0604560375,-0.2246093750,0.6816406250,-0.1450195312,5.1269531250,-0.5798339844,-0.8087158203
3.0631539822,-0.2246093750,0.6816406250,-0.1450195312,5.1879882812,-0.3509521484,-0.5950927734
3.0658528805,-0.2246093750,0.6816406250,-0.1450195312,5.1879882812,-0.3509521484,-0.5950927734
3.0685338974,-0.2246093750,0.6816406250,-0.1420898438,5.2642822266,-0.5645751953,-0.6103515625
3.0710968971,-0.2314453125,0.6782226562,-0.1420898438,5.2642822266,-0.5645751953,-0.6103515625
3.0736629963,-0.2314453125,0.6782226562,-0.1420898438,5.6457519531,-0.6408691406,-0.7781982422
3.0762279034,-0.2314453125,0.6782226562,-0.1420898438,5.6457519531,-0.6408691406,-0.7781982422
3.0790278912,-0.2314453125,0.6791992188,-0.1401367188,6.0424804688,-1.0070800781,-1.0833740234
3.0817248821,-0.2343750000,0.6791992188,-0.1401367188,6.0424804688,-1.0070800781,-1.0833740234
3.0844218731,-0.2343750000,0.6791992188,-0.1401367188,5.9967041016,-1.2969970703,-1.2512207031
3.0871169567,-0.2343750000,0.6791992188,-0.1401367188,5.9967041016,-1.2969970703,-1.2512207031
3.0898518562,-0.2387695312,0.6728515625,-0.1372070312,5.7525634766,-1.3732910156,-1.1291503906
3.0925469398,-0.2387695312,0.6728515625,-0.1372070312,5.7525634766,-1.3732910156,-1.1291503906
3.0953109264,-0.2387695312,0.6728515625,-0.1372070312,5.8898925781,-1.7700195312,-1.2512207031
3.0988209248,-0.2387695312,0.6728515625,-0.1508789062,5.8898925781,-1.7700195312,-1.2512207031
3.1013929844,-0.2392578125,0.6772460938,-0.1508789062,6.1950683594,-1.7089843750,-1.3427734375
3.1039559841,-0.2392578125,0.6772460938,-0.1508789062,6.1950683594,-1.7089843750,-1.3427734375
3.1065208912,-0.2392578125,0.6772460938,-0.1508789062,5.7220458984,-1.5563964844,-1.0375976562
3.1091108322,-0.2392578125,0.6772460938,-0.1552734375,5.7220458984,-1.5563964844,-1.0375976562
3.1116719246,-0.2436523438,0.6767578125,-0.1552734375,5.3253173828,-1.8615722656,-1.2512207031
3.1142399311,-0.2436523438,0.6767578125,-0.1552734375,5.3253173828,-1.8615722656,-1.2512207031
3.1167979240,-0.2436523438,0.6767578125,-0.1552734375,5.7067871094,-2.0599365234,-1.2969970703
3.1194078922,-0.2436523438,0.6713867188,-0.1455078125,5.7067871094,-2.0599365234,-1.2969970703
3.1220719814,-0.2485351562,0.6713867188,-0.1455078125,5.1422119141,-2.2583007812,-0.9460449219
3.1246328354,-0.2485351562,0.6713867188,-0.1455078125,5.1422119141,-2.2583007812,-0.9460449219
3.1272070408,-0.2485351562,0.6713867188,-0.1455078125,4.9743652344,-2.2277832031,-1.0986328125
3.1298258305,-0.2451171875,0.6748046875,-0.1533203125,4.9743652344,-2.2277832031,-1.0986328125
3.1323828697,-0.2451171875,0.6748046875,-0.1533203125,4.5471191406,-2.2888183594,-1.2054443359
3.1349508762,-0.2451171875,0.6748046875,-0.1533203125,4.5471191406,-2.2888183594,-1.2054443359
3.1375088692,-0.2451171875,0.6748046875,-0.1533203125,4.5471191406,-2.5939941406,-1.2817382812
3.1400809288,-0.2465820312,0.6782226562,-0.1503906250,3.8604736328,-2.5939941406,-1.2817382812
3.1426439285,-0.2465820312,0.6782226562,-0.1503906250,3.8604736328,-2.5939941406,-1.2664794922
3.1452050209,-0.2465820312,0.6782226562,-0.1503906250,4.2114257812,-3.0975341797,-1.2664794922
3.1479079723,-0.2465820312,0.6782226562,-0.1503906250,4.2114257812,-3.0975341797,-1.1444091797
3.1504738331,-0.2470703125,0.6811523438,-0.1469726562,4.5471191406,-3.0364990234,-1.1444091797
3.1530358791,-0.2470703125,0.6811523438,-0.1469726562,4.5471191406,-3.0364990234,-1.1444091797
3.1555998325,-0.2470703125,0.6811523438,-0.1469726562,3.7994384766,-2.8839111328,-1.5258789062
3.1582980156,-0.2470703125,0.6811523438,-0.1469726562,3.7994384766,-2.8839111328,-1.5258789062
3.1608719826,-0.2446289062,0.6767578125,-0.1508789062,3.9978027344,-3.1127929688,-1.2817382812
3.1634368896,-0.2446289062,0.6767578125,-0.1508789062,3.9978027344,-3.1127929688,-1.2817382812
3.1659939289,-0.2446289062,0.6767578125,-0.1508789062,4.1656494141,-3.1738281250,-1.4953613281
3.1685609818,-0.2446289062,0.6767578125,-0.1508789062,4.1656494141,-3.1738281250,-1.4953613281
3.1711230278,-0.2490234375,0.6787109375,-0.1479492188,4.3029785156,-3.3721923828,-1.4953613281
3.1736798286,-0.2490234375,0.6787109375,-0.1479492188,4.3029785156,-3.3721923828,-1.4953613281
3.1762459278,-0.2490234375,0.6787109375,-0.1479492188,4.2114257812,-3.5400390625,-1.2969970703
3.1789119244,-0.2490234375,0.6787109375,-0.1479492188,4.2114257812,-3.5400390625,-1.2969970703
3.1816110611,-0.2421875000,0.6738281250,-0.1528320312,4.0283203125,-3.6010742188,-1.1596679688
3.1843090057,-0.2421875000,0.6738281250,-0.1528320312,4.0283203125,-3.6010742188,-1.1596679688
3.1871149540,-0.2421875000,0.6738281250,-0.1528320312,3.8146972656,-3.8452148438,-1.0833740234
3.1898658276,-0.2421875000,0.6738281250,-0.1440429688,3.8146972656,-3.8452148438,-1.0833740234
3.1925659180,-0.2387695312,0.6738281250,-0.1440429688,3.8146972656,-4.0283203125,-1.2207031250
3.1952638626,-0.2387695312,0.6738281250,-0.1440429688,3.8146972656,-4.0283203125,-1.2207031250
3.1980118752,-0.2387695312,0.6738281250,-0.1440429688,4.0893554688,-3.9978027344,-1.4343261719
3.2007050514,-0.2421875000,0.6816406250,-0.1430664062,4.0893554688,-3.9978027344,-1.4343261719
3.2034008503,-0.2421875000,0.6816406250,-0.1430664062,3.9062500000,-4.3182373047,-1.1138916016
3.2061040401,-0.2421875000,0.6816406250,-0.1430664062,3.9062500000,-4.3182373047,-1.1138916016
3.2088170052,-0.2421875000,0.6816406250,-0.1430664062,3.5858154297,-4.0893554688,-1.4495849609
3.2115230560,-0.2441406250,0.6787109375,-0.1435546875,3.5858154297,-4.0893554688,-1.4495849609
3.2142870426,-0.2441406250,0.6787109375,-0.1435546875,4.0588378906,-4.2419433594,-1.5869140625
3.2169828415,-0.2441406250,0.6787109375,-0.1435546875,4.0588378906,-4.2419433594,-1.5869140625
3.2200009823,-0.2441406250,0.6787109375,-0.1450195312,3.8909912109,-4.7454833984,-1.4495849609
3.2225680351,-0.2363281250,0.6713867188,-0.1450195312,3.8909912109,-4.7454833984,-1.4495849609
3.2251439095,-0.2363281250,0.6713867188,-0.1450195312,3.5705566406,-4.6386718750,-1.6021728516
3.2277019024,-0.2363281250,0.6713867188,-0.1450195312,3.5705566406,-4.6386718750,-1.6021728516
3.2303979397,-0.2363281250,0.6816406250,-0.1445312500,3.6163330078,-4.7302246094,-1.6021728516
3.2331008911,-0.2358398438,0.6816406250,-0.1445312500,3.6163330078,-4.7302246094,-1.6021728516
3.2357928753,-0.2358398438,0.6816406250,-0.1445312500,3.9215087891,-4.8980712891,-1.4801025391
3.2384998798,-0.2358398438,0.6816406250,-0.1445312500,3.9215087891,-4.8980712891,-1.4801025391
3.2411999702,-0.2329101562,0.6743164062,-0.1430664062,3.7078857422,-5.0811767578,-1.6632080078
3.2438988686,-0.2329101562,0.6743164062,-0.1430664062,3.7078857422,-5.0811767578,-1.6632080078
3.2465989590,-0.2329101562,0.6743164062,-0.1430664062,3.5400390625,-5.1422119141,-1.6632080078
3.2492389679,-0.2329101562,0.6743164062,-0.1430664062,3.5400390625,-5.1422119141,-1.6632080078
3.2519068718,-0.2392578125,0.6762695312,-0.1484375000,3.5400390625,-5.0201416016,-1.6021728516
3.2544720173,-0.2392578125,0.6762695312,-0.1484375000,3.2958984375,-5.0201416016,-1.6021728516
3.2570378780,-0.2392578125,0.6762695312,-0.1484375000,3.2958984375,-5.0201416016,-1.5411376953
3.2596249580,-0.2392578125,0.6762695312,-0.1484375000,3.1280517578,-4.7607421875,-1.5411376953
3.2621929646,-0.2314453125,0.6806640625,-0.1333007812,3.1280517578,-4.7607421875,-1.5106201172
3.2647550106,-0.2314453125,0.6806640625,-0.1333007812,2.9602050781,-4.9896240234,-1.5106201172
3.2673239708,-0.2314453125,0.6806640625,-0.1333007812,2.9602050781,-4.9896240234,-1.5106201172
3.2699320316,-0.2314453125,0.6806640625,-0.1333007812,2.8228759766,-5.2032470703,-1.4190673828
3.2724959850,-0.2270507812,0.6772460938,-0.1430664062,2.8228759766,-5.2032470703,-1.4190673828
3.2750680447,-0.2270507812,0.6772460938,-0.1430664062,2.8228759766,-5.3863525391,-1.7395019531
3.2776319981,-0.2270507812,0.6772460938,-0.1430664062,2.8228759766,-5.3863525391,-1.7395019531
3.2804079056,-0.2270507812,0.6772460938,-0.1411132812,2.9754638672,-5.3253173828,-1.7700195312
3.2831058502,-0.2338867188,0.6767578125,-0.1411132812,2.9754638672,-5.3253173828,-1.7700195312
3.2857508659,-0.2338867188,0.6767578125,-0.1411132812,2.8381347656,-4.9438476562,-1.6326904297
3.2884218693,-0.2338867188,0.6767578125,-0.1411132812,2.8381347656,-4.9438476562,-1.6326904297
3.2910759449,-0.2338867188,0.6762695312,-0.1337890625,2.8991699219,-5.1879882812,-2.1057128906
3.2942850590,-0.2319335938,0.6762695312,-0.1337890625,2.8991699219,-5.1879882812,-2.1057128906
3.2968499660,-0.2319335938,0.6762695312,-0.1337890625,3.2958984375,-5.3710937500,-2.2583007812
3.2994599342,-0.2319335938,0.6762695312,-0.1337890625,3.2958984375,-5.3710937500,-2.2583007812
3.3020219803,-0.2314453125,0.6777343750,-0.1381835938,2.9144287109,-5.1116943359,-2.0751953125
3.3047640324,-0.2314453125,0.6777343750,-0.1381835938,2.9144287109,-5.1116943359,-2.0751953125
3.3073248863,-0.2314453125,0.6777343750,-0.1381835938,2.7465820312,-5.0201416016,-1.9989013672
3.3098950386,-0.2314453125,0.6777343750,-0.1381835938,2.7465820312,-5.0201416016,-1.9989013672
3.3124530315,-0.2280273438,0.6704101562,-0.1342773438,3.0670166016,-5.0354003906,-1.9226074219
3.3152470589,-0.2280273438,0.6704101562,-0.1342773438,3.0670166016,-5.0354003906,-1.9226074219
3.3178219795,-0.2280273438,0.6704101562,-0.1342773438,3.0822753906,-4.4555664062,-2.1820068359
3.3203868866,-0.2280273438,0.6704101562,-0.1342773438,3.0822753906,-4.4555664062,-2.1820068359
3.3229498863,-0.2314453125,0.6772460938,-0.1391601562,2.8686523438,-4.5166015625,-2.1972656250
3.3256349564,-0.2314453125,0.6772460938,-0.1391601562,2.8686523438,-4.5166015625,-2.1972656250
3.3282618523,-0.2314453125,0.6772460938,-0.1391601562,2.7618408203,-4.6386718750,-2.1057128906
3.3308269978,-0.2314453125,0.6772460938,-0.1376953125,2.7618408203,-4.6386718750,-2.1057128906
3.3333868980,-0.2275390625,0.6757812500,-0.1376953125,2.7618408203,-4.5471191406,-1.9531250000
3.3360748291,-0.2275390625,0.6757812500,-0.1376953125,2.9144287109,-4.5471191406,-1.9531250000
3.3388059139,-0.2275390625,0.6757812500,-0.1376953125,2.9144287109,-4.5471191406,-2.0141601562
3.3413689137,-0.2275390625,0.6831054688,-0.1396484375,2.6855468750,-4.2114257812,-2.0141601562
3.3439259529,-0.2324218750,0.6831054688,-0.1396484375,2.6855468750,-4.2114257812,-1.9836425781
3.3465678692,-0.2324218750,0.6831054688,-0.1396484375,2.5787353516,-3.7994384766,-1.9836425781
