# time_stamp before, Acceleration x, Acceleration y, Acceleration z, Gyro x, Gyro y, Gyro z
0.0000000000,-0.0077045898,0.0933077799,-0.0037591146,-0.2383015951,-0.8155517578,-0.0728454590
0.0026898384,-0.0077045898,0.0933077799,-0.0037591146,0.5398966471,-1.1054687500,-0.1491394043
0.0053758621,-0.0077045898,0.0933077799,-0.0037591146,0.5398966471,-1.1054687500,-0.1491394043
0.0080778599,-0.0077045898,0.0933077799,-0.0037591146,0.3415323893,-1.0444335937,-0.1338806152
0.0107710361,-0.0096577148,0.0913546549,0.0006354166,0.3415323893,-1.0444335937,-0.1338806152
0.0134618282,-0.0096577148,0.0913546549,0.0006354166,0.4330851236,-0.6934814453,-0.1033630371
0.0161569118,-0.0096577148,0.0913546549,0.0006354166,0.4330851236,-0.6934814453,-0.1033630371
0.0188109875,-0.0096577148,0.0913546549,0.0006354166,0.4330851236,-1.0139160156,-0.3322448730
0.0213708878,-0.0037983398,0.0933077799,-0.0022942708,0.6772257486,-1.0139160156,-0.3322448730
0.0239338875,-0.0037983398,0.0933077799,-0.0022942708,0.6772257486,-1.0139160156,-0.2559509277
0.0264940262,-0.0037983398,0.0933077799,-0.0022942708,0.5246378580,-1.3648681640,-0.2559509277
0.0291788578,-0.0037983398,0.0933077799,-0.0022942708,0.5246378580,-1.3648681640,-0.1796569824
0.0317430496,0.0010844726,0.0898898111,-0.0027825521,0.6772257486,-1.6090087890,-0.1796569824
0.0342988968,0.0010844726,0.0898898111,-0.0027825521,0.6772257486,-1.6090087890,-0.1796569824
0.0368700027,0.0010844726,0.0898898111,-0.0027825521,0.5551554362,-1.4411621094,-0.3017272949
0.0395328999,0.0010844726,0.0898898111,-0.0022942708,0.5551554362,-1.4411621094,-0.3017272949
0.0420958996,-0.0042866211,0.0942843424,-0.0022942708,0.6009318033,-1.5937500000,-0.2254333496
0.0449390411,-0.0042866211,0.0942843424,-0.0022942708,0.6009318033,-1.5937500000,-0.2254333496
0.0475080013,-0.0042866211,0.0942843424,-0.0022942708,0.1126505533,-1.5784912109,-0.1491394043
0.0505490303,0.0020610352,0.0947726237,-0.0057122396,0.1126505533,-1.5784912109,-0.1491394043
0.0534119606,0.0020610352,0.0947726237,-0.0057122396,0.0821329752,-1.5632324218,-0.3780212402
0.0561099052,0.0020610352,0.0947726237,-0.0057122396,0.0821329752,-1.5632324218,-0.6069030762
0.0588638783,0.0020610352,0.0947726237,-0.0057122396,0.9213663736,-1.8531494140,-0.6069030762
0.0615599155,0.0020610352,0.0869601237,-0.0086419271,0.9213663736,-1.8531494140,-0.6069030762
0.0642590523,0.0020610352,0.0869601237,-0.0086419271,1.2875773112,-1.5784912109,-0.5763854980
0.0669560432,0.0020610352,0.0869601237,-0.0086419271,1.2875773112,-1.5784912109,-0.5763854980
0.0696630478,0.0020610352,0.0869601237,-0.0042473958,0.7230021158,-1.1665039062,-0.5306091308
0.0723669529,-0.0008686524,0.0898898111,-0.0042473958,0.7230021158,-1.1665039062,-0.5306091308
0.0750589371,-0.0008686524,0.0898898111,-0.0042473958,0.8603312174,-1.1359863281,-0.4390563965
0.0777938366,-0.0008686524,0.0898898111,-0.0042473958,0.8603312174,-1.1359863281,-0.4390563965
0.0803630352,-0.0008686524,0.0884249674,-0.0091302084,0.8755900065,-1.3190917968,-0.3627624512
0.0829269886,-0.0077045898,0.0884249674,-0.0091302084,0.8755900065,-1.3190917968,-0.3627624512
0.0854959488,-0.0077045898,0.0884249674,-0.0091302084,0.8450724283,-1.1207275390,-0.3475036621
0.0881009102,-0.0077045898,0.0884249674,-0.0091302084,0.8450724283,-1.1207275390,-0.3475036621
0.0906670094,-0.0077045898,0.0928194987,-0.0145013021,0.5856730143,-0.9528808594,-0.4848327636
0.0932328701,-0.0003803711,0.0928194987,-0.0145013021,0.5856730143,-0.9528808594,-0.4848327636
0.0957958698,-0.0003803711,0.0928194987,-0.0145013021,0.7840372721,-0.6629638672,-0.5458679199
0.0984098911,-0.0003803711,0.0928194987,-0.0145013021,0.7840372721,-0.6629638672,-0.5458679199
0.1009838581,-0.0072163086,0.0894015299,-0.0081536458,0.3567911783,-0.7697753906,-0.4695739746
0.1035518646,-0.0072163086,0.0894015299,-0.0081536458,0.3567911783,-0.7697753906,-0.4695739746
0.1061229706,-0.0072163086,0.0894015299,-0.0081536458,0.3110148112,-0.7697753906,-0.8663024902
0.1089680195,-0.0072163086,0.0894015299,-0.0081536458,0.3110148112,-0.7697753906,-0.8663024902
0.1115419865,0.0010844726,0.0879366861,-0.0105950521,0.5093790690,-0.9071044922,-0.4695739746
0.1141078472,0.0010844726,0.0879366861,-0.0105950521,0.5093790690,-0.9071044922,-0.4695739746
0.1167800426,0.0010844726,0.0879366861,-0.0105950521,0.2652384440,-1.0596923828,-0.5458679199
0.1195960045,0.0010844726,0.0879366861,-0.0105950521,0.2652384440,-1.0596923828,-0.5458679199
0.1222519875,-0.0062397461,0.0957491861,-0.0013177084,0.5704142252,-0.6934814453,-0.6374206543
0.1256978512,-0.0062397461,0.0957491861,-0.0013177084,0.5704142252,-0.6934814453,-0.6374206543
0.1283249855,-0.0062397461,0.0957491861,-0.0013177084,0.3720499674,-0.5866699218,-0.4237976074
0.1308879852,-0.0062397461,0.0884249674,-0.0101067708,0.3720499674,-0.5866699218,-0.4237976074
0.1334500313,-0.0028217774,0.0884249674,-0.0101067708,0.1126505533,-0.5408935547,-0.1949157715
0.1360130310,-0.0028217774,0.0884249674,-0.0101067708,0.1126505533,-0.5408935547,-0.1949157715
0.1386308670,-0.0028217774,0.0884249674,-0.0101067708,4.0189005533,-0.8460693359,-0.6831970215
0.1411900520,-0.0028217774,0.0894015299,-0.0022942708,0.6314493815,-0.8460693359,-0.6831970215
0.1437468529,-0.0140522461,0.0894015299,-0.0022942708,0.6314493815,-0.8460693359,-0.6984558105
0.1463060379,-0.0140522461,0.0894015299,-0.0022942708,0.4178263346,-0.7545166015,-0.6984558105
0.1490130424,-0.0140522461,0.0894015299,-0.0022942708,0.4178263346,-0.7545166015,-0.6221618652
0.1515698433,-0.0067280274,0.0903780924,-0.0120598958,0.4178263346,-0.6629638672,-0.6221618652
0.1541278362,-0.0067280274,0.0903780924,-0.0120598958,0.4178263346,-0.6629638672,-0.6221618652
0.1566908360,-0.0067280274,0.0903780924,-0.0120598958,0.7230021158,-0.8308105468,-0.4085388183
0.1592559814,-0.0067280274,0.0903780924,-0.0120598958,0.7230021158,-0.8308105468,-0.4085388183
0.1618168354,-0.0125874024,0.0962374674,-0.0008294271,0.6772257486,-0.9376220703,-0.7137145996
0.1643738747,-0.0125874024,0.0962374674,-0.0008294271,0.6772257486,-0.9376220703,-0.7137145996
0.1669359207,-0.0125874024,0.0962374674,-0.0008294271,0.3720499674,-1.0444335937,-0.6221618652
0.1695499420,-0.0125874024,0.0962374674,-0.0008294271,0.3720499674,-1.0444335937,-0.6221618652
0.1721138954,-0.0145405274,0.0913546549,0.0060065104,0.5551554362,-0.8308105468,-0.5916442871
0.1746768951,-0.0145405274,0.0913546549,0.0060065104,0.5551554362,-0.8308105468,-0.5916442871
0.1772458553,-0.0145405274,0.0913546549,0.0060065104,0.6314493815,-0.5561523437,-0.6374206543
0.1800279617,-0.0145405274,0.0913546549,0.0060065104,0.6314493815,-0.5561523437,-0.6374206543
0.1825959682,-0.0106342774,0.0933077799,-0.0013177084,0.1431681315,-0.4493408203,-0.4390563965
0.1851608753,-0.0106342774,0.0933077799,-0.0013177084,0.1431681315,-0.4493408203,-0.4390563965
0.1877248287,-0.0106342774,0.0933077799,-0.0013177084,0.1279093424,-0.4798583984,-0.3322448730
0.1904878616,-0.0106342774,0.0933077799,-0.0013177084,0.1279093424,-0.4798583984,-0.3322448730
0.1931838989,-0.0125874024,0.0913546549,-0.0037591146,0.1431681315,-0.6019287109,-0.3780212402
0.1958768368,-0.0125874024,0.0913546549,-0.0037591146,0.1431681315,-0.6019287109,-0.3780212402
0.1985809803,-0.0125874024,0.0913546549,-0.0037591146,0.2804972330,-0.3425292968,-0.6069030762
0.2012779713,-0.0125874024,0.0913546549,-0.0042473958,0.2804972330,-0.3425292968,-0.6069030762
0.2039699554,-0.0179584961,0.0859835611,-0.0042473958,0.1584269205,-0.0831298828,-0.3169860840
0.2066669464,-0.0179584961,0.0859835611,-0.0042473958,0.1584269205,-0.0831298828,-0.3169860840
0.2093679905,-0.0179584961,0.0859835611,-0.0042473958,0.1584269205,-0.3577880859,-0.0881042480
0.2120659351,-0.0111225586,0.0933077799,0.0030768229,0.1584269205,-0.3577880859,-0.0881042480
0.2147610188,-0.0111225586,0.0933077799,0.0030768229,-3.7478230795,-0.5866699218,-0.5916442871
0.2174589634,-0.0111225586,0.0933077799,0.0030768229,0.0973917643,-0.5866699218,-0.5916442871
0.2200598717,-0.0111225586,0.0933077799,0.0030768229,0.0973917643,-0.4645996094,-0.3627624512
0.2226250172,-0.0096577148,0.0898898111,-0.0066888021,0.6009318033,-0.4645996094,-0.3627624512
0.2251868248,-0.0096577148,0.0898898111,-0.0066888021,0.6009318033,-0.4645996094,-0.0728454590
0.2277810574,-0.0096577148,0.0898898111,-0.0066888021,0.2194620768,-0.1289062500,-0.0728454590
0.2303428650,-0.0096577148,0.0898898111,-0.0066888021,0.2194620768,-0.1289062500,-0.0728454590
0.2329089642,-0.0101459961,0.0869601237,-0.0042473958,0.0973917643,-0.0373535156,0.1560363770
0.2356929779,-0.0101459961,0.0869601237,-0.0042473958,0.0973917643,-0.0373535156,0.1560363770
0.2384698391,-0.0101459961,0.0869601237,-0.0042473958,-0.0246785482,-0.1746826172,-0.1186218262
0.2411808968,-0.0101459961,0.0869601237,-0.0042473958,-0.0246785482,-0.1746826172,-0.1186218262
0.2439830303,-0.0130756836,0.0952609049,-0.0052239584,-0.0094197592,-0.2509765625,-0.0575866699
0.2466809750,-0.0130756836,0.0952609049,-0.0052239584,-0.0094197592,-0.2509765625,-0.0575866699
0.2493879795,-0.0130756836,0.0952609049,-0.0052239584,0.1431681315,-0.0983886718,-0.0575866699
0.2520899773,-0.0130756836,0.0859835611,0.0016119792,0.1431681315,-0.0983886718,0.1255187988
0.2547888756,-0.0091694336,0.0859835611,0.0016119792,0.0210978190,0.1457519532,0.1255187988
0.2574808598,-0.0091694336,0.0859835611,0.0016119792,0.0210978190,0.1457519532,0.1255187988
0.2601819038,-0.0091694336,0.0859835611,0.0016119792,-0.2383015951,0.3593750000,0.1865539551
0.2628819942,-0.0135639648,0.0859835611,0.0021002604,-0.2383015951,0.3593750000,0.1865539551
0.2655830383,-0.0135639648,0.0859835611,0.0021002604,-0.2840779623,0.2678222656,0.1255187988
0.2682738304,-0.0135639648,0.0859835611,0.0021002604,-0.2840779623,0.2678222656,0.1255187988
0.2708458900,-0.0135639648,0.0859835611,0.0021002604,-0.5739949545,-0.0526123047,0.1102600098
0.2734129429,-0.0052631836,0.1011202799,-0.0101067708,-0.5739949545,-0.0526123047,0.1102600098
0.2759828568,-0.0052631836,0.1011202799,-0.0101067708,-0.3145955404,0.1304931641,0.2323303223
0.2785558701,-0.0052631836,0.1011202799,-0.0101067708,-0.3145955404,0.1304931641,0.2323303223
0.2811179161,-0.0052631836,0.1011202799,-0.0101067708,-0.2840779623,0.4356689453,0.1712951660
0.2836849689,-0.0111225586,0.0913546549,-0.0071770834,-0.2840779623,0.4356689453,0.1712951660
0.2862479687,-0.0111225586,0.0913546549,-0.0071770834,0.4025675455,-0.1441650390,-0.3017272949
0.2889728546,-0.0111225586,0.0913546549,-0.0071770834,0.4025675455,-0.1441650390,-0.3017272949
0.2915349007,-0.0111225586,0.0913546549,-0.0071770834,-0.0246785482,0.2067871094,0.1560363770
0.2941000462,-0.0077045898,0.0894015299,0.0069830729,-0.0246785482,0.2067871094,0.1560363770
0.2966718674,-0.0077045898,0.0894015299,0.0069830729,-0.2688191732,0.5119628906,0.0492248535
0.2994568348,-0.0077045898,0.0894015299,0.0069830729,-0.2688191732,0.5119628906,0.0492248535
0.3021569252,-0.0077045898,0.0894015299,-0.0052239584,-0.3451131185,0.3441162110,0.0492248535
0.3048479557,-0.0018452148,0.0977023111,-0.0052239584,-0.3451131185,0.3441162110,0.0492248535
0.3076539040,-0.0018452148,0.0977023111,-0.0052239584,-0.1620076498,0.6187744141,0.1712951660
0.3103599548,-0.0018452148,0.0977023111,-0.0052239584,-0.1620076498,0.6187744141,0.1712951660
0.3130578995,0.0030375976,0.0918429361,-0.0057122396,-0.2688191732,0.1762695313,0.1865539551
0.3158178329,0.0030375976,0.0918429361,-0.0057122396,-0.2688191732,0.1762695313,0.1865539551
0.3185939789,0.0030375976,0.0918429361,-0.0057122396,-0.2383015951,0.8781738282,0.1407775879
0.3212568760,0.0030375976,0.0918429361,-0.0057122396,-0.2383015951,0.8781738282,0.1407775879
0.3244738579,-0.0067280274,0.0952609049,-0.0037591146,-0.1009724935,0.5577392578,0.2323303223
0.3270349503,-0.0067280274,0.0952609049,-0.0037591146,-0.1009724935,0.5577392578,0.2323303223
0.3296530247,-0.0067280274,0.0952609049,-0.0037591146,-0.1314900717,0.4509277344,0.2628479004
0.3322210312,-0.0067280274,0.0952609049,-0.0037591146,-0.1314900717,0.4509277344,0.2628479004
0.3347790241,-0.0077045898,0.0820773111,-0.0032708334,-0.3298543295,0.4509277344,0.2170715332
0.3373470306,-0.0077045898,0.0820773111,-0.0032708334,-0.3298543295,0.4509277344,0.2170715332
0.3399670124,-0.0077045898,0.0820773111,-0.0032708334,-0.3298543295,0.3135986328,0.0950012207
0.3425190449,-0.0077045898,0.0820773111,-0.0037591146,-0.6960652670,0.3135986328,0.0950012207
0.3450858593,-0.0081928711,0.0869601237,-0.0037591146,-0.6960652670,0.3135986328,0.1865539551
0.3476469517,-0.0081928711,0.0869601237,-0.0037591146,-0.5739949545,0.2830810547,0.1865539551
0.3502240181,-0.0081928711,0.0869601237,-0.0037591146,-0.5739949545,0.2830810547,0.3238830567
0.3527929783,-0.0081928711,0.0869601237,0.0011236979,-0.6808064779,0.5577392578,0.3238830567
0.3553578854,-0.0111225586,0.0952609049,0.0011236979,-0.6808064779,0.5577392578,0.3238830567
0.3579230309,-0.0111225586,0.0952609049,0.0011236979,-1.1080525717,0.4509277344,0.1712951660
0.3604838848,-0.0111225586,0.0952609049,0.0011236979,-1.1080525717,0.4509277344,0.1712951660
0.3630440235,-0.0111225586,0.0947726237,-0.0062005208,-0.9096883138,0.4204101563,-0.3017272949
0.3656108379,-0.0047749024,0.0947726237,-0.0062005208,-0.9096883138,0.4204101563,-0.3017272949
0.3682379723,-0.0047749024,0.0947726237,-0.0062005208,-0.9249471029,0.6492919922,0.1560363770
0.3708999157,-0.0047749024,0.0947726237,-0.0062005208,-0.9249471029,0.6492919922,0.1560363770
0.3734698296,-0.0047749024,0.0889132487,-0.0140130208,-0.8944295248,0.5729980469,0.2323303223
0.3760290146,-0.0052631836,0.0889132487,-0.0140130208,-0.8944295248,0.5729980469,0.2323303223
0.3787598610,-0.0052631836,0.0889132487,-0.0140130208,-0.5282185873,0.4509277344,-0.0423278808
0.3813240528,-0.0052631836,0.0889132487,-0.0140130208,-0.5282185873,0.4509277344,-0.0423278808
0.3838829994,-0.0003803711,0.0957491861,-0.0140130208,-0.0704549154,0.2373046875,0.0034484864
0.3864510059,-0.0003803711,0.0957491861,-0.0140130208,-0.0704549154,0.2373046875,0.0034484864
0.3890860081,-0.0003803711,0.0957491861,-0.0140130208,-0.4061482748,0.5882568360,0.1560363770
0.3916440010,-0.0003803711,0.0957491861,-0.0140130208,-0.4061482748,0.5882568360,0.1560363770
0.3942129612,-0.0037983398,0.0928194987,-0.0018059896,-0.4061482748,0.8323974610,0.0034484864
0.3967709541,-0.0037983398,0.0928194987,-0.0018059896,-0.3298543295,0.8323974610,0.0034484864
0.3996279240,-0.0037983398,0.0928194987,-0.0018059896,-0.3298543295,0.8323974610,0.1102600098
0.4021959305,-0.0037983398,0.0928194987,-0.0018059896,-0.2535603842,0.5424804688,0.1102600098
0.4047620296,-0.0033100586,0.0962374674,0.0006354166,-0.2535603842,0.5424804688,-0.0270690918
0.4073328972,-0.0033100586,0.0962374674,0.0006354166,-0.4214070638,0.2525634766,-0.0270690918
0.4101719856,-0.0033100586,0.0962374674,0.0006354166,-0.4214070638,0.2525634766,0.0339660645
0.4128339291,-0.0033100586,0.0962374674,-0.0037591146,-0.1467488607,0.1762695313,0.0339660645
0.4157629013,-0.0052631836,0.0923312174,-0.0037591146,-0.1467488607,0.1762695313,0.1407775879
0.4184439182,-0.0052631836,0.0923312174,-0.0037591146,-0.1009724935,0.1762695313,0.1407775879
0.4210119247,-0.0052631836,0.0923312174,-0.0037591146,-0.1009724935,0.1762695313,-0.0423278808
0.4235758781,-0.0052631836,0.0864718424,-0.0027825521,-0.2383015951,0.1915283203,-0.0423278808
0.4261479378,-0.0086811524,0.0864718424,-0.0027825521,-0.2383015951,0.1915283203,-0.0423278808
0.4287798405,-0.0086811524,0.0864718424,-0.0027825521,-0.1162312826,0.3746337891,0.2018127442
0.4314789772,-0.0086811524,0.0864718424,-0.0027825521,-0.1162312826,0.3746337891,0.2018127442
0.4341819286,-0.0072163086,0.0957491861,-0.0032708334,0.2957560221,0.1304931641,-0.0423278808
0.4369938374,-0.0072163086,0.0957491861,-0.0032708334,0.2957560221,0.1304931641,-0.0423278808
0.4397058487,-0.0072163086,0.0957491861,-0.0032708334,0.5551554362,-0.3272705078,-0.6069030762
0.4428498745,-0.0072163086,0.0957491861,0.0021002604,0.3873087565,-0.3120117187,-0.4085388183
0.4461538792,-0.0008686524,0.0928194987,0.0021002604,0.3873087565,-0.3120117187,-0.4085388183
0.4488239288,-0.0008686524,0.0928194987,0.0021002604,0.3873087565,-0.2967529297,-0.6984558105
0.4513888359,-0.0008686524,0.0928194987,0.0021002604,0.4483439127,-0.2967529297,-0.6984558105
0.4539489746,-0.0008686524,0.0908663737,-0.0037591146,0.4483439127,-0.2967529297,-0.2712097168
0.4565169811,-0.0067280274,0.0908663737,-0.0037591146,0.3262736002,-0.0831298828,-0.2712097168
0.4591569901,-0.0067280274,0.0908663737,-0.0037591146,0.3262736002,-0.0831298828,-0.3169860840
0.4618539810,-0.0067280274,0.0908663737,-0.0037591146,0.2042032877,-0.2509765625,-0.3169860840
0.4645550251,-0.0116108398,0.0913546549,0.0021002604,0.2042032877,-0.2509765625,-0.5000915527
0.4672489166,-0.0116108398,0.0913546549,0.0021002604,0.5856730143,-0.6782226562,-0.5000915527
0.4698588848,-0.0116108398,0.0913546549,0.0021002604,0.5856730143,-0.6782226562,-0.5000915527
0.4724259377,-0.0116108398,0.0913546549,0.0021002604,0.6772257486,-0.3272705078,-0.2712097168
0.4749920368,-0.0052631836,0.0898898111,-0.0086419271,0.6772257486,-0.3272705078,-0.2712097168
0.4775600433,-0.0052631836,0.0898898111,-0.0086419271,0.3873087565,-0.2204589844,0.0797424317
0.4801690578,-0.0052631836,0.0898898111,-0.0086419271,0.3873087565,-0.2204589844,0.0797424317
0.4827349186,-0.0052631836,0.0898898111,-0.0086419271,0.3110148112,-0.4188232422,-0.0575866699
0.4853010178,-0.0116108398,0.0898898111,-0.0154778646,0.3110148112,-0.4188232422,-0.0575866699
0.4879310131,-0.0116108398,0.0898898111,-0.0154778646,0.5398966471,-0.4645996094,-0.3322448730
0.4905128479,-0.0116108398,0.0898898111,-0.0154778646,0.5398966471,-0.4645996094,-0.3322448730
0.4930789471,-0.0116108398,0.0898898111,-0.0154778646,0.4025675455,-0.5103759765,-0.3017272949
0.4956438541,-0.0116108398,0.0913546549,-0.0052239584,0.4025675455,-0.5103759765,-0.3017272949
0.4984538555,-0.0116108398,0.0913546549,-0.0052239584,0.6467081705,-0.3425292968,-0.6984558105
0.5012760162,-0.0116108398,0.0913546549,-0.0052239584,0.6467081705,-0.3425292968,-0.6984558105
0.5039749146,-0.0116108398,0.0913546549,-0.0042473958,0.1126505533,-0.3883056640,-0.1643981933
0.5066728592,-0.0130756836,0.0874484049,-0.0042473958,0.1126505533,-0.3883056640,-0.1643981933
0.5093789101,-0.0130756836,0.0874484049,-0.0042473958,-0.2535603842,-0.3120117187,0.0187072754
0.5120749474,-0.0130756836,0.0874484049,-0.0042473958,-0.2535603842,-0.3120117187,0.0187072754
0.5147700310,-0.0130756836,0.0928194987,0.0030768229,0.0821329752,-0.2662353515,-0.2712097168
0.5174648762,-0.0150288086,0.0928194987,0.0030768229,0.0821329752,-0.2662353515,-0.2712097168
0.5200619698,-0.0150288086,0.0928194987,0.0030768229,0.2194620768,-0.6324462890,-0.3475036621
0.5226199627,-0.0150288086,0.0928194987,0.0030768229,0.2194620768,-0.6324462890,-0.3475036621
0.5251829624,-0.0081928711,0.0947726237,0.0050299479,0.3110148112,-0.3425292968,-0.3627624512
0.5277869701,-0.0081928711,0.0947726237,0.0050299479,0.3110148112,-0.3425292968,-0.3627624512
0.5303540230,-0.0081928711,0.0947726237,0.0050299479,0.3110148112,-0.2509765625,-0.1796569824
0.5329179764,-0.0081928711,0.0947726237,0.0050299479,0.0973917643,-0.2509765625,-0.1796569824
0.5354819298,-0.0194233398,0.0913546549,0.0021002604,0.0973917643,-0.2509765625,-0.2406921386
0.5381100178,-0.0194233398,0.0913546549,0.0021002604,-0.0551961264,-0.0983886718,-0.2406921386
0.5408070087,-0.0194233398,0.0913546549,0.0021002604,-0.0551961264,-0.0983886718,-0.1338806152
0.5435059071,-0.0194233398,0.0913546549,0.0021002604,-0.3756306967,0.1915283203,-0.1338806152
0.5462038517,-0.0057514648,0.0933077799,0.0006354166,-0.3756306967,0.1915283203,-0.0270690918
0.5489208698,-0.0057514648,0.0933077799,0.0006354166,-0.5739949545,-0.0068359375,-0.0270690918
0.5516140461,-0.0057514648,0.0933077799,0.0006354166,-0.5739949545,-0.0068359375,0.1102600098
0.5544128418,-0.0057514648,0.0933077799,0.0025885416,-0.2840779623,-0.2662353515,0.1102600098
0.5571179390,-0.0067280274,0.0962374674,0.0025885416,-0.2840779623,-0.2662353515,-0.3322448730
0.5597598553,-0.0067280274,0.0962374674,0.0025885416,0.6314493815,-0.5256347656,-0.3322448730
0.5623319149,-0.0067280274,0.0962374674,0.0025885416,0.6314493815,-0.5256347656,-0.3322448730
0.5650069714,-0.0067280274,0.0952609049,-0.0066888021,0.3415323893,-0.3883056640,-0.0881042480
0.5675709248,-0.0086811524,0.0952609049,-0.0066888021,0.3415323893,-0.3883056640,-0.0881042480
0.5703089237,-0.0086811524,0.0952609049,-0.0066888021,0.2042032877,-0.5714111328,-0.3475036621
0.5730059147,-0.0086811524,0.0952609049,-0.0066888021,0.2042032877,-0.5714111328,-0.3475036621
0.5757029057,-0.0067280274,0.0957491861,-0.0018059896,1.0434366862,-0.4188232422,-0.5000915527
0.5784020424,-0.0067280274,0.0957491861,-0.0018059896,1.0434366862,-0.4188232422,-0.5000915527
0.5810949802,-0.0067280274,0.0957491861,-0.0018059896,0.9366251627,-0.5256347656,-0.3932800293
0.5837979317,-0.0067280274,0.0957491861,-0.0018059896,0.9366251627,-0.5256347656,-0.3932800293
0.5864999294,-0.0057514648,0.0903780924,0.0011236979,0.2499796549,-0.6171875000,-0.6526794433
0.5891380310,-0.0057514648,0.0903780924,0.0011236979,0.2499796549,-0.6171875000,-0.6526794433
0.5917060375,-0.0057514648,0.0903780924,0.0011236979,0.2652384440,-0.7850341797,-0.2101745605
0.5942709446,-0.0057514648,0.0903780924,0.0011236979,0.2652384440,-0.7850341797,-0.2101745605
0.5968420506,-0.0033100586,0.0957491861,-0.0018059896,0.4483439127,-0.9528808594,-0.1338806152
0.5995299816,-0.0033100586,0.0957491861,-0.0018059896,0.4483439127,-0.9528808594,-0.1338806152
0.6020939350,-0.0033100586,0.0957491861,-0.0018059896,0.4788614908,-0.7850341797,-0.1033630371
0.6046609879,-0.0033100586,0.0957491861,-0.0018059896,0.4788614908,-0.7850341797,-0.1033630371
0.6072258949,-0.0023334961,0.0947726237,-0.0018059896,0.6161905924,-0.7239990234,-0.4085388183
0.6099100113,-0.0023334961,0.0947726237,-0.0018059896,0.6161905924,-0.7239990234,-0.4085388183
0.6124768257,-0.0023334961,0.0947726237,-0.0018059896,0.6467081705,-0.7087402344,-0.3780212402
0.6150410175,-0.0023334961,0.0947726237,0.0011236979,0.6467081705,-0.7087402344,-0.3780212402
0.6176118851,-0.0023334961,0.0923312174,0.0011236979,0.2194620768,-0.1594238281,-0.0423278808
0.6203160286,-0.0023334961,0.0923312174,0.0011236979,0.2194620768,-0.1594238281,-0.0423278808
0.6230108738,-0.0023334961,0.0923312174,0.0011236979,0.2194620768,-0.5256347656,-0.1796569824
0.6257119179,-0.0023334961,0.0957491861,-0.0135247396,0.1736857096,-0.5256347656,-0.1796569824
0.6285550594,-0.0062397461,0.0957491861,-0.0135247396,0.7687784830,-0.9376220703,-0.5000915527
0.6312489510,-0.0062397461,0.0957491861,-0.0135247396,0.7687784830,-0.9376220703,-0.5000915527
0.6339468956,-0.0062397461,0.0957491861,-0.0135247396,0.9518839518,-0.4951171875,-0.3475036621
0.6366388798,-0.0047749024,0.0937960611,-0.0062005208,0.9518839518,-0.4951171875,-0.3475036621
0.6393549442,-0.0047749024,0.0937960611,-0.0062005208,0.9518839518,-0.4188232422,-0.3780212402
0.6420509815,-0.0047749024,0.0937960611,-0.0062005208,0.6619669596,-0.4188232422,-0.3780212402
0.6447458267,-0.0047749024,0.0937960611,-0.0062005208,0.6619669596,-0.6629638672,-0.5458679199
0.6474499702,-0.0072163086,0.0894015299,0.0006354166,0.6161905924,-0.6629638672,-0.5458679199
0.6501560211,-0.0072163086,0.0894015299,0.0006354166,0.7382609049,-0.5408935547,-0.4543151855
0.6528978348,-0.0072163086,0.0894015299,0.0006354166,0.7382609049,-0.5408935547,-0.4543151855
0.6554648876,-0.0072163086,0.0894015299,-0.0013177084,0.7382609049,-0.3425292968,-0.4237976074
0.6582038403,-0.0052631836,0.0942843424,-0.0013177084,0.3873087565,-0.3425292968,-0.4237976074
0.6607689857,-0.0052631836,0.0942843424,-0.0013177084,0.3873087565,-0.3425292968,-0.3169860840
0.6634190083,-0.0052631836,0.0942843424,-0.0013177084,0.6619669596,-0.4951171875,-0.3169860840
0.6659848690,-0.0052631836,0.0933077799,-0.0120598958,0.6619669596,-0.6324462890,-0.4543151855
0.6689839363,-0.0072163086,0.0933077799,-0.0120598958,0.7230021158,-0.6324462890,-0.4543151855
0.6716849804,-0.0072163086,0.0933077799,-0.0120598958,0.7230021158,-0.6324462890,-0.5611267090
0.6743888855,-0.0072163086,0.0933077799,-0.0120598958,0.4636027018,-0.4035644531,-0.5611267090
0.6770849228,-0.0057514648,0.0903780924,-0.0081536458,0.4636027018,-0.4035644531,-0.2254333496
0.6797809601,-0.0057514648,0.0903780924,-0.0081536458,0.5093790690,-0.4645996094,-0.2254333496
0.6824748516,-0.0057514648,0.0903780924,-0.0081536458,0.5093790690,-0.4645996094,-1.1562194824
0.6851739883,-0.0057514648,0.0903780924,-0.0081536458,0.7687784830,-0.8918457031,-1.1562194824
0.6878838539,-0.0096577148,0.0933077799,0.0016119792,0.7687784830,-0.8918457031,-0.9273376465
0.6905798912,-0.0096577148,0.0933077799,0.0016119792,0.9213663736,-0.6324462890,-0.9273376465
0.6933798790,-0.0096577148,0.0933077799,0.0016119792,0.9213663736,-0.6324462890,-0.4543151855
0.6960780621,-0.0096577148,0.0933077799,-0.0013177084,0.6924845377,-0.5256347656,-0.4543151855
0.6987428665,-0.0096577148,0.0918429361,-0.0013177084,0.6924845377,-0.5256347656,-0.4848327636
0.7013108730,-0.0096577148,0.0918429361,-0.0013177084,0.3720499674,-0.6019287109,-0.4848327636
0.7038760185,-0.0096577148,0.0918429361,-0.0013177084,0.3720499674,-0.6019287109,-0.4848327636
0.7064378262,-0.0096577148,0.0937960611,-0.0086419271,0.5246378580,-0.5256347656,-0.6984558105
0.7090468407,-0.0037983398,0.0937960611,-0.0086419271,0.5246378580,-0.5256347656,-0.6984558105
0.7116110325,-0.0037983398,0.0937960611,-0.0086419271,0.5398966471,-0.6171875000,-0.6831970215
0.7141740322,-0.0037983398,0.0937960611,-0.0086419271,0.5398966471,-0.6171875000,-0.6831970215
0.7167370319,-0.0037983398,0.0898898111,-0.0115716146,0.3110148112,-0.5408935547,-1.0036315918
0.7194030285,-0.0057514648,0.0898898111,-0.0115716146,0.3110148112,-0.5408935547,-1.0036315918
0.7219710350,-0.0057514648,0.0898898111,-0.0115716146,0.4636027018,-0.4798583984,-1.0494079590
0.7245328426,-0.0057514648,0.0898898111,-0.0115716146,0.4636027018,-0.4798583984,-1.0494079590
0.7270970345,-0.0174702148,0.0874484049,0.0030768229,0.4941202799,-0.3577880859,-0.5611267090
0.7298698425,-0.0174702148,0.0874484049,0.0030768229,0.4941202799,-0.3577880859,-0.5611267090
0.7325689793,-0.0174702148,0.0874484049,0.0030768229,0.3415323893,-0.3120117187,-0.5916442871
0.7352628708,-0.0174702148,0.0874484049,0.0030768229,0.3415323893,-0.3120117187,-0.5916442871
0.7380118370,-0.0140522461,0.0957491861,-0.0027825521,0.0516153971,0.0084228516,-0.4390563965
0.7407088280,-0.0140522461,0.0957491861,-0.0027825521,0.0516153971,0.0084228516,-0.4390563965
0.7434039116,-0.0140522461,0.0957491861,-0.0027825521,0.3720499674,-0.0526123047,-0.4695739746
0.7460999489,-0.0140522461,0.0957491861,-0.0027825521,0.3720499674,-0.0526123047,-0.4695739746
0.7487978935,-0.0116108398,0.0884249674,0.0011236979,0.5704142252,-0.1746826172,-0.6069030762
0.7514939308,-0.0116108398,0.0884249674,0.0011236979,0.5704142252,-0.1746826172,-0.6069030762
0.7541899681,-0.0116108398,0.0884249674,0.0011236979,0.2194620768,-0.1441650390,-0.8205261230
0.7569918633,-0.0116108398,0.0918429361,-0.0105950521,0.2194620768,-0.1441650390,-0.8205261230
0.7596149445,0.0001079102,0.0918429361,-0.0105950521,0.6314493815,-0.1289062500,-0.8510437012
0.7621819973,0.0001079102,0.0918429361,-0.0105950521,0.6314493815,-0.1289062500,-0.8510437012
0.7647500038,0.0001079102,0.0918429361,-0.0105950521,0.7077433268,-0.1594238281,-0.7594909668
0.7673099041,0.0001079102,0.0918429361,-0.0037591146,0.7077433268,-0.1594238281,-0.7594909668
0.7699718475,-0.0135639648,0.0918429361,-0.0037591146,0.7077433268,-0.0068359375,-1.0799255371
0.7725398540,-0.0135639648,0.0918429361,-0.0037591146,0.4178263346,-0.0068359375,-1.0799255371
0.7751049995,-0.0135639648,0.0918429361,-0.0037591146,0.4178263346,-0.0068359375,-0.8052673340
0.7776708603,-0.0067280274,0.0981905924,-0.0042473958,0.7230021158,-0.1289062500,-0.8052673340
0.7804129124,-0.0067280274,0.0981905924,-0.0042473958,0.7230021158,-0.1289062500,-1.1714782715
0.7830839157,-0.0067280274,0.0981905924,-0.0042473958,0.7535196940,-0.1899414062,-1.1714782715
0.7858698368,-0.0067280274,0.0981905924,-0.0042473958,0.7535196940,-0.1899414062,-0.5763854980
0.7888989449,-0.0120991211,0.0957491861,-0.0062005208,0.2804972330,0.1762695313,-0.5763854980
0.7916049957,-0.0120991211,0.0957491861,-0.0062005208,-3.6257527670,0.1610107422,-0.4543151855
0.7943029404,-0.0120991211,0.0957491861,-0.0062005208,0.0058390299,0.1610107422,-0.4543151855
0.7969968319,-0.0120991211,0.0957491861,0.0050299479,0.0058390299,0.3135986328,-1.1562194824
0.7997100353,-0.0179584961,0.0918429361,0.0050299479,0.3567911783,0.3135986328,-1.1562194824
0.8024108410,-0.0179584961,0.0918429361,0.0050299479,0.3567911783,0.0541992188,-0.9120788574
0.8051018715,-0.0179584961,0.0918429361,0.0050299479,0.8145548502,0.0541992188,-0.9120788574
0.8078110218,-0.0111225586,0.0908663737,-0.0027825521,0.8145548502,-0.0068359375,-0.6984558105
0.8105030060,-0.0111225586,0.0908663737,-0.0027825521,0.4788614908,-0.0068359375,-0.6984558105
0.8132019043,-0.0111225586,0.0908663737,-0.0027825521,0.4788614908,3.8994140625,-0.9120788574
0.8158948421,-0.0111225586,0.0908663737,-0.0027825521,0.2194620768,0.2220458985,-0.9120788574
0.8185670376,-0.0057514648,0.0952609049,0.0030768229,0.2194620768,-3.6842041015,-0.8663024902
0.8212389946,-0.0057514648,0.0952609049,0.0030768229,0.6467081705,0.0999755860,-0.8663024902
0.8238070011,-0.0057514648,0.0952609049,0.0030768229,0.6467081705,0.0999755860,-0.7442321777
0.8263709545,-0.0057514648,0.0952609049,0.0030768229,0.2347208658,0.0236816406,-0.7442321777
0.8289458752,-0.0130756836,0.0942843424,-0.0071770834,0.2347208658,0.0236816406,-0.7442321777
0.8315110207,-0.0130756836,0.0942843424,-0.0071770834,0.4330851236,-0.0983886718,-0.6679382324
0.8340778351,-0.0130756836,0.0942843424,-0.0071770834,0.4330851236,-0.0983886718,-0.6679382324
0.8366429806,-0.0130756836,0.0942843424,-0.0071770834,0.6467081705,0.1152343750,-0.4237976074
0.8393499851,-0.0091694336,0.0908663737,-0.0057122396,0.6467081705,0.1152343750,-0.4237976074
0.8419189453,-0.0091694336,0.0908663737,-0.0057122396,0.9671427408,0.0847167969,-0.4848327636
0.8444869518,-0.0091694336,0.0908663737,-0.0057122396,0.9671427408,0.0847167969,-0.4848327636
0.8470549583,-0.0091694336,0.0908663737,-0.0057122396,0.7230021158,-0.0983886718,-0.5153503418
0.8498229980,-0.0086811524,0.0918429361,-0.0164544271,0.7230021158,-0.0983886718,-0.5153503418
0.8525190353,-0.0086811524,0.0918429361,-0.0164544271,0.4636027018,0.2525634766,-0.4695739746
0.8552069664,-0.0086811524,0.0918429361,-0.0164544271,0.4636027018,0.2525634766,-0.4695739746
0.8579118252,-0.0086811524,0.0908663737,0.0040533854,0.4636027018,0.0389404297,-0.2101745605
0.8604719639,-0.0116108398,0.0908663737,0.0040533854,0.4636027018,0.0389404297,-0.2101745605
0.8630330563,-0.0116108398,0.0908663737,0.0040533854,0.6924845377,-0.0068359375,-0.5611267090
0.8655989170,-0.0116108398,0.0908663737,0.0040533854,0.6924845377,-0.0068359375,-0.5611267090
0.8681850433,-0.0116108398,0.0923312174,-0.0047356771,1.0281778971,0.0847167969,-0.9578552246
0.8708839417,-0.0072163086,0.0923312174,-0.0047356771,1.0281778971,0.0847167969,-0.9578552246
0.8735840321,-0.0072163086,0.0923312174,-0.0047356771,0.9824015299,0.0999755860,-0.8052673340
0.8762760162,-0.0072163086,0.0923312174,-0.0047356771,0.9824015299,0.0999755860,-0.8052673340
0.8789770603,-0.0125874024,0.0913546549,-0.0008294271,0.7535196940,0.1304931641,-0.6221618652
0.8816678524,-0.0125874024,0.0913546549,-0.0008294271,0.7535196940,0.1304931641,-0.6221618652
0.8844728470,-0.0125874024,0.0913546549,-0.0008294271,1.0281778971,0.1457519532,-0.5916442871
0.8871698380,-0.0125874024,0.0913546549,-0.0008294271,1.0281778971,0.1457519532,-0.5916442871
0.8898799419,-0.0072163086,0.0937960611,-0.0032708334,0.8450724283,0.3898925782,-0.8815612793
0.8925769329,-0.0072163086,0.0937960611,-0.0032708334,0.8450724283,0.3898925782,-0.8815612793
0.8952729702,-0.0072163086,0.0937960611,-0.0032708334,1.0281778971,0.1762695313,-0.9120788574
0.8980219364,-0.0072163086,0.0937960611,-0.0096184896,1.0281778971,0.1762695313,-0.9120788574
0.9007229805,-0.0135639648,0.0874484049,-0.0096184896,0.4941202799,0.1610107422,-0.8510437012
0.9034178257,-0.0135639648,0.0874484049,-0.0096184896,0.4941202799,0.1610107422,-0.8510437012
0.9063270092,-0.0135639648,0.0874484049,-0.0096184896,0.6161905924,0.0999755860,-0.7289733886
0.9094119072,-0.0189350586,0.0977023111,-0.0101067708,0.6161905924,0.0999755860,-0.7289733886
0.9119830132,-0.0189350586,0.0977023111,-0.0101067708,0.4178263346,0.1762695313,-0.5763854980
0.9145498276,-0.0189350586,0.0977023111,-0.0101067708,0.4178263346,0.1762695313,-0.5763854980
0.9171109200,-0.0189350586,0.0977023111,-0.0101067708,0.8450724283,0.4509277344,-1.0646667480
0.9197838306,-0.0111225586,0.0977023111,-0.0096184896,0.8450724283,0.4509277344,-1.0646667480
0.9224760532,-0.0111225586,0.0977023111,-0.0096184896,1.1655069986,0.7866210938,-0.6984558105
0.9251718521,-0.0111225586,0.0977023111,-0.0096184896,1.1655069986,0.7866210938,-0.6984558105
0.9278779030,-0.0111225586,0.0977023111,-0.0096184896,1.1655069986,0.4051513672,-0.3322448730
0.9305739403,-0.0116108398,0.0923312174,-0.0076653646,1.1655069986,0.4051513672,-0.3322448730
0.9332699776,-0.0116108398,0.0923312174,-0.0076653646,1.1655069986,0.7408447266,-0.8663024902
0.9359669685,-0.0116108398,0.0923312174,-0.0076653646,1.1807657877,0.7408447266,-0.8663024902
0.9386420250,-0.0116108398,0.0913546549,-0.0066888021,1.1807657877,0.5424804688,-0.9883728027
0.9412109852,-0.0106342774,0.0913546549,-0.0066888021,0.9824015299,0.5424804688,-0.9883728027
0.9437780380,-0.0106342774,0.0913546549,-0.0066888021,0.9824015299,0.5424804688,-0.9273376465
0.9463379383,-0.0106342774,0.0913546549,-0.0066888021,0.1279093424,0.4356689453,-0.9273376465
0.9490249157,-0.0106342774,0.0879366861,-0.0076653646,0.1279093424,0.4356689453,-0.7442321777
0.9515929222,-0.0140522461,0.0879366861,-0.0076653646,0.4636027018,0.7561035156,-0.7442321777
0.9541599751,-0.0140522461,0.0879366861,-0.0076653646,0.4636027018,0.7561035156,-0.7442321777
0.9567248821,-0.0140522461,0.0879366861,-0.0076653646,0.7992960612,0.7408447266,-0.8205261230
0.9594099522,-0.0101459961,0.0928194987,-0.0105950521,0.7992960612,0.7408447266,-0.8205261230
0.9619798660,-0.0101459961,0.0928194987,-0.0105950521,0.7840372721,0.6645507813,-0.8815612793
0.9645469189,-0.0101459961,0.0928194987,-0.0105950521,0.7840372721,0.6645507813,-0.8815612793
0.9671099186,-0.0101459961,0.0928194987,-0.0105950521,0.9366251627,0.6798095703,-0.7137145996
0.9698679447,-0.0135639648,0.0879366861,-0.0066888021,0.9366251627,0.6798095703,-0.7137145996
0.9725630283,-0.0135639648,0.0879366861,-0.0066888021,0.6619669596,0.6798095703,-0.6679382324
0.9752588272,-0.0135639648,0.0879366861,-0.0066888021,0.6619669596,0.6798095703,-0.6679382324
0.9780089855,-0.0135639648,0.0879366861,-0.0066888021,0.5093790690,0.7561035156,-0.5611267090
0.9807028770,-0.0135639648,0.0967257487,-0.0062005208,0.5093790690,0.7561035156,-0.5611267090
0.9833979607,-0.0135639648,0.0967257487,-0.0062005208,0.3567911783,0.7408447266,-0.5916442871
0.9860918522,-0.0135639648,0.0967257487,-0.0062005208,0.3567911783,0.7408447266,-0.5916442871
0.9887928963,-0.0135639648,0.0967257487,-0.0096184896,0.3262736002,0.8934326172,-0.8205261230
0.9914908409,-0.0077045898,0.0903780924,-0.0096184896,0.3262736002,0.8934326172,-0.8205261230
0.9941868782,-0.0077045898,0.0903780924,-0.0096184896,0.3873087565,0.5729980469,-0.9883728027
0.9968819618,-0.0077045898,0.0903780924,-0.0096184896,0.3873087565,0.5729980469,-0.9883728027
0.9995100498,-0.0077045898,0.0942843424,-0.0071770834,0.7840372721,0.6035156250,-0.8815612793
1.0020718575,-0.0062397461,0.0942843424,-0.0071770834,0.7840372721,0.6035156250,-0.8815612793
1.0046420097,-0.0062397461,0.0942843424,-0.0071770834,0.6924845377,0.4967041016,-0.6526794433
1.0072059631,-0.0062397461,0.0942843424,-0.0071770834,0.6924845377,0.4967041016,-0.6526794433
1.0099189281,-0.0111225586,0.0864718424,-0.0052239584,0.6314493815,0.4356689453,-0.9425964355
1.0127048492,-0.0111225586,0.0864718424,-0.0052239584,0.6314493815,0.4356689453,-0.9425964355
1.0153889656,-0.0111225586,0.0864718424,-0.0052239584,0.5246378580,0.4509277344,-0.7442321777
1.0180890560,-0.0111225586,0.0864718424,-0.0052239584,0.5246378580,0.4509277344,-0.7442321777
1.0207729340,-0.0081928711,0.0923312174,-0.0115716146,0.8298136393,0.5424804688,-0.8663024902
1.0234508514,-0.0081928711,0.0923312174,-0.0115716146,0.8298136393,0.5424804688,-0.8663024902
1.0262188911,-0.0081928711,0.0923312174,-0.0115716146,0.3873087565,0.7103271485,-0.5306091308
1.0292458534,-0.0081928711,0.0923312174,-0.0003411458,0.3873087565,0.7103271485,-0.5306091308
1.0319349766,-0.0091694336,0.0850069987,-0.0003411458,0.6619669596,0.6492919922,-0.8052673340
1.0346138477,-0.0091694336,0.0850069987,-0.0003411458,0.6619669596,0.6492919922,-0.8052673340
1.0372948647,-0.0091694336,0.0850069987,-0.0003411458,1.0892130533,0.6035156250,-1.1714782715
1.0399620533,-0.0091694336,0.0967257487,-0.0032708334,1.0892130533,0.6035156250,-1.1714782715
1.0426218510,-0.0057514648,0.0967257487,-0.0032708334,1.1044718424,0.5882568360,-0.4848327636
1.0452809334,-0.0057514648,0.0967257487,-0.0032708334,1.1044718424,0.5882568360,-0.4848327636
1.0480070114,-0.0057514648,0.0967257487,-0.0032708334,0.7230021158,0.3746337891,-0.4390563965
1.0507009029,-0.0135639648,0.0869601237,0.0016119792,0.7230021158,0.3746337891,-0.4390563965
1.0533950329,-0.0135639648,0.0869601237,0.0016119792,0.6619669596,0.2678222656,-0.6831970215
1.0560948849,-0.0135639648,0.0869601237,0.0016119792,0.6619669596,0.2678222656,-0.6831970215
1.0587480068,-0.0135639648,0.0869601237,0.0016119792,0.6161905924,0.2830810547,-0.7289733886
1.0613138676,-0.0081928711,0.0923312174,-0.0135247396,0.6161905924,0.2830810547,-0.7289733886
1.0638780594,-0.0081928711,0.0923312174,-0.0135247396,0.6161905924,0.3135986328,-0.3932800293
1.0664429665,-0.0081928711,0.0923312174,-0.0135247396,0.4025675455,0.3135986328,-0.3932800293
1.0690569878,-0.0081928711,0.0923312174,-0.0135247396,0.4025675455,0.3135986328,-0.5306091308
1.0716228485,-0.0135639648,0.0889132487,-0.0042473958,0.3415323893,0.2525634766,-0.5306091308
1.0741848946,-0.0135639648,0.0889132487,-0.0042473958,0.3415323893,0.2525634766,-0.8968200683
1.0768449306,-0.0135639648,0.0889132487,-0.0042473958,0.7077433268,0.4814453125,-0.8968200683
1.0795450211,-0.0135639648,0.0889132487,-0.0140130208,0.7077433268,0.4814453125,-0.6374206543
1.0821080208,-0.0120991211,0.0898898111,-0.0140130208,0.6009318033,0.3288574219,-0.6374206543
1.0846769810,-0.0120991211,0.0898898111,-0.0140130208,0.6009318033,0.3288574219,-0.6374206543
1.0872418880,-0.0120991211,0.0898898111,-0.0140130208,0.4330851236,0.1457519532,-0.3475036621
1.0900139809,-0.0120991211,0.0957491861,0.0021002604,0.4330851236,0.1457519532,-0.3475036621
1.0927088261,-0.0213764648,0.0957491861,0.0021002604,0.6314493815,0.2373046875,-0.4237976074
1.0954060555,-0.0213764648,0.0957491861,0.0021002604,0.6314493815,0.2373046875,-0.4237976074
1.0981130600,-0.0213764648,0.0957491861,0.0021002604,0.8450724283,0.3746337891,-0.6831970215
1.1008138657,-0.0169819336,0.0889132487,-0.0081536458,0.8450724283,0.3746337891,-0.6831970215
1.1035089493,-0.0169819336,0.0889132487,-0.0081536458,1.0129191080,0.5424804688,-0.6679382324
1.1061999798,-0.0169819336,0.0889132487,-0.0081536458,1.0129191080,0.5424804688,-0.6679382324
1.1088569164,-0.0169819336,0.0889132487,-0.0081536458,1.2112833658,0.5577392578,-0.7137145996
1.1114230156,-0.0184467774,0.0894015299,-0.0086419271,1.2112833658,0.5577392578,-0.7137145996
1.1139898300,-0.0184467774,0.0894015299,-0.0086419271,0.8145548502,0.7255859375,-0.5916442871
1.1165499687,-0.0184467774,0.0894015299,-0.0086419271,0.8145548502,0.7255859375,-0.5916442871
1.1191909313,-0.0184467774,0.0894015299,-0.0086419271,0.7230021158,0.7408447266,-0.2712097168
1.1218898296,-0.0184467774,0.0952609049,-0.0096184896,0.7230021158,0.7408447266,-0.2712097168
1.1245808601,-0.0184467774,0.0952609049,-0.0096184896,0.9366251627,0.5882568360,-0.2254333496
1.1272768974,-0.0184467774,0.0952609049,-0.0096184896,0.9366251627,0.5882568360,-0.2254333496
1.1299870014,-0.0184467774,0.0952609049,-0.0062005208,0.5093790690,0.7713623047,-0.3017272949
1.1326849461,-0.0184467774,0.0889132487,-0.0062005208,0.5093790690,0.7713623047,-0.3017272949
1.1353838444,-0.0184467774,0.0889132487,-0.0062005208,0.4025675455,0.5882568360,-0.4543151855
1.1380820274,-0.0184467774,0.0889132487,-0.0062005208,0.4025675455,0.5882568360,-0.4543151855
1.1407768726,-0.0184467774,0.0903780924,-0.0013177084,0.8145548502,0.4204101563,-0.3932800293
1.1435759068,-0.0199116211,0.0903780924,-0.0013177084,0.8145548502,0.4204101563,-0.3932800293
1.1464049816,-0.0199116211,0.0903780924,-0.0013177084,0.3567911783,0.6645507813,-0.1796569824
1.1492700577,-0.0199116211,0.0903780924,-0.0013177084,0.3567911783,0.6645507813,-0.1796569824
1.1519699097,-0.0174702148,0.0859835611,-0.0047356771,0.4941202799,0.4967041016,-0.5611267090
1.1546669006,-0.0174702148,0.0859835611,-0.0047356771,0.4941202799,0.4967041016,-0.5611267090
1.1573569775,-0.0174702148,0.0859835611,-0.0047356771,0.1431681315,0.5424804688,-0.1949157715
1.1599569321,-0.0174702148,0.0859835611,-0.0047356771,0.1431681315,0.5424804688,-0.1949157715
1.1625289917,-0.0189350586,0.0937960611,-0.0076653646,-0.4671834310,0.7103271485,-0.2101745605
1.1650938988,-0.0189350586,0.0937960611,-0.0076653646,-0.4671834310,0.7103271485,-0.2101745605
1.1676549911,-0.0189350586,0.0937960611,-0.0076653646,-0.2535603842,1.1375732422,-0.2712097168
1.1703560352,-0.0189350586,0.0937960611,-0.0125481771,-0.2535603842,1.1375732422,-0.2712097168
1.1730518341,-0.0081928711,0.0898898111,-0.0125481771,0.1126505533,1.1223144532,-0.6374206543
1.1757478714,-0.0081928711,0.0898898111,-0.0125481771,0.1126505533,1.1223144532,-0.6374206543
1.1784319878,-0.0081928711,0.0898898111,-0.0125481771,0.0058390299,0.8323974610,-0.3475036621
1.1810009480,-0.0081928711,0.0913546549,-0.0032708334,0.0058390299,0.8323974610,-0.3475036621
1.1835689545,-0.0213764648,0.0913546549,-0.0032708334,3.9120890299,0.6798095703,0.0339660645
1.1861319542,-0.0213764648,0.0913546549,-0.0032708334,0.1736857096,0.6798095703,0.0339660645
1.1887040138,-0.0213764648,0.0913546549,-0.0032708334,0.1736857096,0.6798095703,-0.0881042480
1.1912739277,-0.0213764648,0.0850069987,-0.0110833334,0.0058390299,0.7255859375,-0.0881042480
1.1938400269,-0.0179584961,0.0850069987,-0.0110833334,0.0058390299,0.7255859375,-0.1186218262
1.1964068413,-0.0179584961,0.0850069987,-0.0110833334,0.2347208658,0.8934326172,-0.1186218262
1.1991448402,-0.0179584961,0.0850069987,-0.0110833334,0.2347208658,0.8934326172,-0.1186218262
1.2017118931,-0.0169819336,0.0952609049,-0.0037591146,0.0821329752,1.0460205078,-0.2559509277
1.2042880058,-0.0169819336,0.0952609049,-0.0037591146,0.0821329752,1.0460205078,-0.2559509277
1.2069609165,-0.0169819336,0.0952609049,-0.0037591146,0.1431681315,1.1375732422,-0.5916442871
1.2096869946,-0.0169819336,0.0952609049,-0.0037591146,0.1431681315,1.1375732422,-0.5916442871
1.2122540474,-0.0096577148,0.0879366861,-0.0066888021,0.1889444986,1.3969726563,-0.5153503418
1.2148139477,-0.0096577148,0.0879366861,-0.0066888021,0.1889444986,1.3969726563,-0.5153503418
1.2173788548,-0.0096577148,0.0879366861,-0.0066888021,-0.5434773764,1.5648193360,-0.0270690918
1.2200939655,-0.0096577148,0.0879366861,-0.0066888021,-0.5434773764,1.5648193360,-0.0270690918
1.2227919102,-0.0111225586,0.0894015299,-0.0013177084,-0.0857137045,1.1986083985,-0.3169860840
1.2254920006,-0.0111225586,0.0894015299,-0.0013177084,-0.0857137045,1.1986083985,-0.3169860840
1.2281889915,-0.0111225586,0.0894015299,-0.0013177084,0.1279093424,1.1375732422,-0.3780212402
1.2308859825,-0.0111225586,0.0894015299,-0.0101067708,0.1279093424,1.1375732422,-0.3780212402
1.2335798740,-0.0072163086,0.0903780924,-0.0101067708,0.2347208658,1.1223144532,-0.2406921386
1.2362780571,-0.0072163086,0.0903780924,-0.0101067708,0.2347208658,1.1223144532,-0.2406921386
1.2389788628,-0.0072163086,0.0903780924,-0.0101067708,0.2957560221,0.8934326172,-0.2559509277
1.2416749001,-0.0072163086,0.0859835611,-0.0086419271,0.2957560221,0.8934326172,-0.2559509277
1.2443690300,-0.0101459961,0.0859835611,-0.0086419271,0.2347208658,1.1223144532,-0.2864685058
1.2470710278,-0.0101459961,0.0859835611,-0.0086419271,0.2347208658,1.1223144532,-0.2864685058
1.2496910095,-0.0101459961,0.0859835611,-0.0086419271,0.2957560221,0.8476562500,-0.0423278808
1.2522609234,-0.0106342774,0.0894015299,-0.0135247396,0.2957560221,0.8476562500,-0.0423278808
1.2548229694,-0.0106342774,0.0894015299,-0.0135247396,0.5093790690,0.4204101563,-0.2712097168
1.2573859692,-0.0106342774,0.0894015299,-0.0135247396,0.5093790690,0.4204101563,-0.2712097168
1.2599918842,-0.0106342774,0.0894015299,-0.0135247396,0.2347208658,0.7103271485,-0.3475036621
1.2625548840,-0.0072163086,0.0908663737,-0.0110833334,0.2347208658,0.7103271485,-0.3475036621
1.2653050423,-0.0072163086,0.0908663737,-0.0110833334,-3.6715291342,0.8476562500,-0.3627624512
1.2682518959,-0.0072163086,0.0908663737,-0.0110833334,0.0058390299,0.8476562500,-0.3627624512
1.2709360123,-0.0072163086,0.0908663737,-0.0110833334,0.2347208658,0.9849853516,-0.5611267090
1.2735009193,-0.0174702148,0.0864718424,-0.0013177084,0.2347208658,0.9849853516,-0.5611267090
1.2760629654,-0.0174702148,0.0864718424,-0.0013177084,0.2347208658,0.7713623047,-0.5153503418
1.2786970139,-0.0174702148,0.0864718424,-0.0013177084,0.5093790690,0.7713623047,-0.5153503418
1.2812559605,-0.0174702148,0.0864718424,-0.0013177084,0.5093790690,0.7713623047,-0.3169860840
1.2838180065,-0.0106342774,0.0903780924,-0.0076653646,0.3720499674,0.9392089844,-0.3169860840
1.2863788605,-0.0106342774,0.0903780924,-0.0076653646,0.3720499674,0.9392089844,-0.6679382324
1.2889449596,-0.0106342774,0.0903780924,-0.0076653646,0.8450724283,0.6492919922,-0.6679382324
1.2915079594,-0.0106342774,0.0903780924,-0.0076653646,0.8450724283,0.6492919922,-0.6679382324
1.2940740585,-0.0145405274,0.0957491861,-0.0076653646,0.6924845377,0.4204101563,-0.4543151855
1.2966370583,-0.0145405274,0.0957491861,-0.0076653646,0.6924845377,0.4204101563,-0.4543151855
1.2992448807,-0.0145405274,0.0957491861,-0.0076653646,0.5246378580,0.4967041016,-0.2712097168
1.3018100262,-0.0145405274,0.0957491861,-0.0057122396,0.5246378580,0.4967041016,-0.2712097168
1.3043699265,-0.0135639648,0.0869601237,-0.0057122396,0.0516153971,0.6492919922,-0.1186218262
1.3069360256,-0.0135639648,0.0869601237,-0.0057122396,0.0516153971,0.6492919922,-0.1186218262
1.3095090389,-0.0135639648,0.0869601237,-0.0057122396,0.2957560221,0.6645507813,-0.5153503418
1.3120658398,-0.0135639648,0.0869601237,-0.0184075521,0.2957560221,0.6645507813,-0.5153503418
1.3146269321,-0.0150288086,0.0908663737,-0.0184075521,0.6009318033,0.6492919922,-0.3322448730
1.3171918392,-0.0150288086,0.0908663737,-0.0184075521,0.6009318033,0.6492919922,-0.3322448730
1.3199198246,-0.0150288086,0.0908663737,-0.0184075521,0.9824015299,0.5882568360,-0.5763854980
1.3224899769,-0.0150288086,0.0889132487,-0.0086419271,0.9824015299,0.5882568360,-0.5763854980
1.3250570297,-0.0120991211,0.0889132487,-0.0086419271,0.9824015299,0.6187744141,-0.6526794433
1.3276250362,-0.0120991211,0.0889132487,-0.0086419271,1.1044718424,0.6187744141,-0.6526794433
1.3304028511,-0.0120991211,0.0889132487,-0.0086419271,1.1044718424,0.5424804688,-0.6221618652
1.3332078457,-0.0135639648,0.0850069987,-0.0066888021,0.9213663736,0.5424804688,-0.6221618652
1.3359048367,-0.0135639648,0.0850069987,-0.0066888021,0.9213663736,0.5272216797,-0.6679382324
1.3386549950,-0.0135639648,0.0850069987,-0.0066888021,0.6772257486,0.5272216797,-0.6679382324
1.3412308693,-0.0135639648,0.0850069987,-0.0066888021,0.6772257486,0.5272216797,-0.3780212402
1.3438010216,-0.0150288086,0.0859835611,-0.0013177084,0.5398966471,0.5882568360,-0.3780212402
1.3463649750,-0.0150288086,0.0859835611,-0.0013177084,0.5398966471,0.5882568360,-0.1186218262
1.3490698338,-0.0150288086,0.0859835611,-0.0013177084,0.9061075846,0.6340332032,-0.1186218262
1.3516378403,-0.0150288086,0.0859835611,-0.0013177084,0.9061075846,0.6340332032,-0.1643981933
1.3545629978,-0.0199116211,0.0908663737,-0.0047356771,0.6619669596,0.6798095703,-0.1643981933
1.3571310043,-0.0199116211,0.0908663737,-0.0047356771,0.6619669596,0.6798095703,-0.3322448730
1.3597009182,-0.0199116211,0.0908663737,-0.0047356771,0.5551554362,0.6645507813,-0.3322448730
1.3622648716,-0.0199116211,0.0908663737,-0.0076653646,0.5551554362,0.6645507813,-0.3322448730
1.3648259640,-0.0179584961,0.0854952799,-0.0076653646,0.7077433268,0.5882568360,-0.3627624512
1.3673870564,-0.0179584961,0.0854952799,-0.0076653646,0.7077433268,0.5882568360,-0.3627624512
1.3699970245,-0.0179584961,0.0854952799,-0.0076653646,0.3720499674,0.3898925782,-0.3169860840
1.3725559711,-0.0179584961,0.0854952799,-0.0096184896,0.3720499674,0.3898925782,-0.3169860840
1.3751249313,-0.0086811524,0.0864718424,-0.0096184896,0.5398966471,0.6035156250,-0.6526794433
1.3776879311,-0.0086811524,0.0864718424,-0.0096184896,0.5398966471,0.6035156250,-0.6526794433
1.3802609444,-0.0086811524,0.0864718424,-0.0096184896,0.8298136393,0.3593750000,-0.5763854980
1.3828320503,-0.0086811524,0.0903780924,-0.0071770834,0.8298136393,0.3593750000,-0.5763854980
1.3853929043,-0.0155170898,0.0903780924,-0.0071770834,0.4330851236,0.7255859375,-0.3475036621
1.3880028725,-0.0155170898,0.0903780924,-0.0071770834,0.4330851236,0.7255859375,-0.3475036621
1.3905708790,-0.0155170898,0.0903780924,-0.0071770834,0.0821329752,0.8171386719,-0.3627624512
1.3931310177,-0.0155170898,0.0894015299,-0.0091302084,0.0821329752,0.8171386719,-0.3627624512
1.3958289623,-0.0174702148,0.0894015299,-0.0091302084,0.0821329752,0.9849853516,-0.4848327636
1.3985910416,-0.0174702148,0.0894015299,-0.0091302084,-0.2993367514,0.9849853516,-0.4848327636
1.4011540413,-0.0174702148,0.0894015299,-0.0091302084,-0.2993367514,0.7255859375,-0.2559509277
1.4037230015,-0.0228413086,0.0903780924,0.0006354166,0.2804972330,0.7255859375,-0.2559509277
1.4062819481,-0.0228413086,0.0903780924,0.0006354166,0.2804972330,0.7255859375,-0.3322448730
1.4089670181,-0.0228413086,0.0903780924,0.0006354166,0.3720499674,0.2983398438,-0.3322448730
1.4115369320,-0.0228413086,0.0903780924,0.0006354166,0.3720499674,0.2983398438,-0.5153503418
1.4140989780,-0.0125874024,0.0879366861,0.0011236979,0.4025675455,0.4814453125,-0.5153503418
1.4166569710,-0.0125874024,0.0879366861,0.0011236979,0.4025675455,0.4814453125,-0.5153503418
1.4192459583,-0.0125874024,0.0879366861,0.0011236979,0.5704142252,0.4051513672,-0.2101745605
1.4218089581,-0.0125874024,0.0879366861,0.0011236979,0.5704142252,0.4051513672,-0.2101745605
1.4243719578,-0.0077045898,0.0850069987,-0.0115716146,0.1889444986,0.8323974610,-0.3017272949
1.4269390106,-0.0077045898,0.0850069987,-0.0115716146,0.1889444986,0.8323974610,-0.3017272949
1.4295058250,-0.0077045898,0.0850069987,-0.0115716146,0.5246378580,0.6035156250,-0.3475036621
1.4320700169,-0.0077045898,0.0850069987,-0.0115716146,0.5246378580,0.6035156250,-0.3475036621
1.4346339703,-0.0160053711,0.0869601237,-0.0081536458,0.5704142252,0.2525634766,-0.4085388183
1.4371998310,-0.0160053711,0.0869601237,-0.0081536458,0.5704142252,0.2525634766,-0.4085388183
1.4399349689,-0.0160053711,0.0869601237,-0.0081536458,0.1584269205,0.4814453125,-0.2712097168
1.4426350594,-0.0160053711,0.0869601237,-0.0081536458,0.1584269205,0.4814453125,-0.2712097168
1.4453389645,-0.0116108398,0.0898898111,-0.0223138021,0.3720499674,0.6035156250,-0.2559509277
1.4480719566,-0.0116108398,0.0898898111,-0.0223138021,0.3720499674,0.6035156250,-0.2559509277
1.4506380558,-0.0116108398,0.0898898111,-0.0223138021,0.5704142252,0.5577392578,-0.3932800293
1.4532098770,-0.0116108398,0.0898898111,-0.0091302084,0.5704142252,0.5577392578,-0.3932800293
1.4557778835,-0.0106342774,0.0962374674,-0.0091302084,0.5704142252,0.4051513672,-0.4695739746
1.4585258961,-0.0106342774,0.0962374674,-0.0091302084,0.9366251627,0.4051513672,-0.4695739746
1.4612338543,-0.0106342774,0.0962374674,-0.0091302084,0.9366251627,0.2983398438,-0.7442321777
1.4640140533,-0.0106342774,0.0937960611,-0.0159661458,0.8450724283,0.2983398438,-0.7442321777
1.4668500423,-0.0023334961,0.0937960611,-0.0159661458,0.3262736002,0.2067871094,-0.5000915527
1.4697420597,-0.0023334961,0.0937960611,-0.0159661458,0.3262736002,0.2067871094,-0.5000915527
1.4724459648,-0.0023334961,0.0937960611,-0.0159661458,0.2347208658,0.4967041016,-0.1949157715
1.4751429558,-0.0101459961,0.0928194987,-0.0105950521,0.2347208658,0.4967041016,-0.1949157715
1.4778490067,-0.0101459961,0.0928194987,-0.0105950521,0.6619669596,0.4356689453,-0.1643981933
1.4805479050,-0.0101459961,0.0928194987,-0.0105950521,0.6619669596,0.4356689453,-0.1643981933
1.4832420349,-0.0101459961,0.0928194987,-0.0105950521,0.2957560221,0.8171386719,0.0034484864
1.4859418869,-0.0150288086,0.0913546549,-0.0071770834,0.2957560221,0.8171386719,0.0034484864
1.4886889458,-0.0150288086,0.0913546549,-0.0071770834,0.1584269205,0.4661865235,-0.1186218262
1.4913868904,-0.0150288086,0.0913546549,-0.0071770834,0.1584269205,0.4661865235,-0.1186218262
1.4940860271,-0.0150288086,0.0952609049,-0.0174309896,0.4178263346,0.0847167969,-0.2101745605
1.4967839718,-0.0145405274,0.0952609049,-0.0174309896,0.4178263346,0.0847167969,-0.2101745605
1.4994158745,-0.0145405274,0.0952609049,-0.0174309896,0.4178263346,0.6035156250,-0.1643981933
1.5019860268,-0.0145405274,0.0952609049,-0.0174309896,0.5704142252,0.6035156250,-0.1643981933
1.5045549870,-0.0140522461,0.0894015299,-0.0140130208,0.5704142252,0.6187744141,-0.3017272949
1.5071189404,-0.0140522461,0.0894015299,-0.0140130208,0.9976603190,0.6187744141,-0.3017272949
1.5096979141,-0.0140522461,0.0894015299,-0.0140130208,0.9976603190,0.6187744141,-0.1643981933
1.5122609138,-0.0140522461,0.0894015299,-0.0140130208,1.0586954752,0.6340332032,-0.1643981933
1.5148289204,-0.0208881836,0.0874484049,-0.0110833334,1.0586954752,0.6340332032,-0.1643981933
1.5173919201,-0.0208881836,0.0874484049,-0.0110833334,0.4788614908,0.6187744141,-0.1033630371
1.5201058388,-0.0208881836,0.0874484049,-0.0110833334,0.4788614908,0.6187744141,-0.1033630371
1.5227830410,-0.0208881836,0.0874484049,-0.0110833334,0.5856730143,0.3593750000,-0.3475036621
1.5253529549,-0.0169819336,0.0903780924,-0.0091302084,0.5856730143,0.3593750000,-0.3475036621
1.5279710293,-0.0169819336,0.0903780924,-0.0091302084,0.4788614908,0.3441162110,-0.1643981933
1.5306868553,-0.0169819336,0.0903780924,-0.0091302084,0.4788614908,0.3441162110,-0.1643981933
1.5333838463,-0.0169819336,0.0903780924,-0.0091302084,0.5704142252,0.4509277344,-0.1033630371
1.5360779762,-0.0145405274,0.0840304361,-0.0145013021,0.5704142252,0.4509277344,-0.1033630371
1.5387799740,-0.0145405274,0.0840304361,-0.0145013021,0.6924845377,0.4204101563,-0.0270690918
1.5414710045,-0.0145405274,0.0840304361,-0.0145013021,0.6924845377,0.4204101563,-0.0270690918
1.5441670418,-0.0145405274,0.0840304361,-0.0101067708,0.2804972330,0.4509277344,0.0644836426
1.5468618870,-0.0194233398,0.0864718424,-0.0101067708,0.2804972330,0.4509277344,0.0644836426
1.5494959354,-0.0194233398,0.0864718424,-0.0101067708,0.2957560221,0.4661865235,0.1865539551
1.5520658493,-0.0194233398,0.0864718424,-0.0101067708,0.2957560221,0.4661865235,0.1865539551
1.5546238422,-0.0194233398,0.0864718424,-0.0149895834,0.2194620768,0.5577392578,0.0339660645
1.5571889877,-0.0081928711,0.0864718424,-0.0149895834,0.2194620768,0.5577392578,0.0339660645
1.5598988533,-0.0081928711,0.0864718424,-0.0149895834,-0.1162312826,0.5729980469,-0.3017272949
1.5625898838,-0.0081928711,0.0864718424,-0.0149895834,-0.1162312826,0.5729980469,-0.3017272949
1.5652899742,-0.0169819336,0.0884249674,-0.0145013021,0.4483439127,0.1152343750,-0.2559509277
1.5680348873,-0.0169819336,0.0884249674,-0.0145013021,0.4483439127,0.1152343750,-0.2559509277
1.5707299709,-0.0169819336,0.0884249674,-0.0145013021,0.4178263346,0.1304931641,-0.2101745605
1.5734319687,-0.0169819336,0.0884249674,-0.0145013021,0.4178263346,0.1304931641,-0.2101745605
1.5761258602,-0.0194233398,0.0874484049,-0.0164544271,0.1889444986,0.3898925782,0.0187072754
1.5788710117,-0.0194233398,0.0874484049,-0.0164544271,0.1889444986,0.3898925782,0.0187072754
1.5815680027,-0.0194233398,0.0874484049,-0.0164544271,0.2652384440,0.4204101563,-0.2406921386
1.5844850540,-0.0194233398,0.0874484049,-0.0052239584,0.2652384440,0.4204101563,-0.2406921386
1.5876619816,-0.0135639648,0.0903780924,-0.0052239584,0.3873087565,0.4814453125,-0.1338806152
1.5903768539,-0.0135639648,0.0903780924,-0.0052239584,0.3873087565,0.4814453125,-0.1338806152
1.5930838585,-0.0135639648,0.0903780924,-0.0052239584,0.1431681315,0.3593750000,-0.1491394043
1.5957839489,-0.0150288086,0.0874484049,-0.0125481771,0.1431681315,0.3593750000,-0.1491394043
1.5984640121,-0.0150288086,0.0874484049,-0.0125481771,0.7687784830,-0.1136474609,-0.3322448730
1.6010348797,-0.0150288086,0.0874484049,-0.0125481771,0.7687784830,-0.1136474609,-0.3322448730
1.6036050320,-0.0150288086,0.0874484049,-0.0125481771,0.6619669596,0.2525634766,-0.5000915527
1.6061730385,-0.0184467774,0.0894015299,-0.0052239584,0.6619669596,0.2525634766,-0.5000915527
1.6088039875,-0.0184467774,0.0894015299,-0.0052239584,0.4025675455,-0.1441650390,-0.3932800293
1.6115000248,-0.0184467774,0.0894015299,-0.0052239584,0.4025675455,-0.1441650390,-0.3932800293
1.6142020226,-0.0184467774,0.0894015299,-0.0052239584,0.1431681315,-0.1136474609,-0.3322448730
1.6168949604,-0.0169819336,0.0908663737,-0.0086419271,0.1431681315,-0.1136474609,-0.3322448730
1.6195058823,-0.0169819336,0.0908663737,-0.0086419271,-0.0857137045,0.0389404297,-0.0118103027
1.6220810413,-0.0169819336,0.0908663737,-0.0086419271,-0.0857137045,0.0389404297,-0.0118103027
1.6246469021,-0.0169819336,0.0908663737,-0.0188958334,0.2804972330,-0.2509765625,-0.1491394043
1.6272099018,-0.0169819336,0.0884249674,-0.0188958334,0.2804972330,-0.2509765625,-0.1491394043
1.6299259663,-0.0169819336,0.0884249674,-0.0188958334,0.2804972330,-0.7239990234,-0.3017272949
1.6324870586,-0.0169819336,0.0884249674,-0.0188958334,0.5856730143,-0.7239990234,-0.3017272949
1.6350538731,-0.0169819336,0.0884249674,-0.0130364584,0.5856730143,-0.7239990234,-0.1949157715
1.6376190186,-0.0160053711,0.0864718424,-0.0130364584,0.2957560221,-0.5408935547,-0.1949157715
1.6404190063,-0.0160053711,0.0864718424,-0.0130364584,0.2957560221,-0.5408935547,-0.2101745605
1.6431200504,-0.0160053711,0.0864718424,-0.0130364584,0.0668741862,-0.2357177734,-0.2101745605
1.6458158493,-0.0067280274,0.0898898111,-0.0179192708,0.0668741862,-0.2357177734,-0.4237976074
1.6484999657,-0.0067280274,0.0898898111,-0.0179192708,0.0210978190,-0.3577880859,-0.4237976074
1.6511819363,-0.0067280274,0.0898898111,-0.0179192708,0.0210978190,-0.3577880859,-0.0728454590
1.6537458897,-0.0067280274,0.0898898111,-0.0179192708,0.0668741862,-0.3425292968,-0.0728454590
1.6563119888,-0.0174702148,0.0879366861,-0.0203606771,0.0668741862,-0.3425292968,-0.0728454590
1.6589448452,-0.0174702148,0.0879366861,-0.0203606771,-0.0246785482,-0.3272705078,-0.3322448730
1.6616389751,-0.0174702148,0.0879366861,-0.0203606771,-0.0246785482,-0.3272705078,-0.3322448730
1.6643388271,-0.0174702148,0.0879366861,-0.0203606771,0.2347208658,-0.4188232422,-0.4695739746
1.6670339108,-0.0223530274,0.0908663737,-0.0101067708,0.2347208658,-0.4188232422,-0.4695739746
1.6697459221,-0.0223530274,0.0908663737,-0.0101067708,0.0363566080,-0.4035644531,-0.3780212402
1.6724498272,-0.0223530274,0.0908663737,-0.0101067708,0.0363566080,-0.4035644531,-0.3780212402
1.6751439571,-0.0223530274,0.0908663737,-0.0154778646,-0.3298543295,0.0541992188,-0.1949157715
1.6778550148,-0.0218647461,0.0864718424,-0.0154778646,-0.3298543295,0.0541992188,-0.1949157715
1.6805529594,-0.0218647461,0.0864718424,-0.0154778646,-0.2077840170,0.0389404297,-0.0423278808
1.6832468510,-0.0218647461,0.0864718424,-0.0154778646,-0.2077840170,0.0389404297,-0.0423278808
1.6859438419,-0.0218647461,0.0898898111,-0.0135247396,-0.3451131185,-0.1289062500,0.0339660645
1.6886808872,-0.0145405274,0.0898898111,-0.0135247396,-0.3451131185,-0.1289062500,0.0339660645
1.6913828850,-0.0145405274,0.0898898111,-0.0135247396,-0.1467488607,-0.0983886718,-0.2712097168
1.6943109035,-0.0145405274,0.0898898111,-0.0135247396,-0.1467488607,-0.0983886718,-0.2712097168
1.6970019341,-0.0125874024,0.0889132487,-0.0042473958,0.1126505533,-0.2509765625,-0.3322448730
1.6997940540,-0.0125874024,0.0889132487,-0.0042473958,0.1126505533,-0.2509765625,-0.3322448730
1.7023620605,-0.0125874024,0.0889132487,-0.0042473958,0.0668741862,-0.5561523437,0.0644836426
1.7049210072,-0.0125874024,0.0889132487,-0.0042473958,0.0668741862,-0.5561523437,0.0644836426
1.7074928284,-0.0140522461,0.0898898111,-0.0081536458,0.2957560221,-0.4035644531,-0.0118103027
1.7100639343,-0.0140522461,0.0898898111,-0.0081536458,0.2957560221,-0.4035644531,-0.0118103027
1.7126288414,-0.0140522461,0.0898898111,-0.0081536458,0.7535196940,-0.7850341797,-0.2254333496
1.7153019905,-0.0140522461,0.0898898111,-0.0081536458,0.7535196940,-0.7850341797,-0.2254333496
1.7178609371,-0.0174702148,0.0879366861,-0.0071770834,0.1736857096,-0.9376220703,-0.2864685058
1.7204320431,-0.0174702148,0.0879366861,-0.0071770834,0.1736857096,-0.9376220703,-0.2864685058
1.7229950428,-0.0174702148,0.0879366861,-0.0071770834,0.0210978190,-0.4798583984,-0.4237976074
1.7255589962,-0.0174702148,0.0879366861,-0.0071770834,0.0210978190,-0.4798583984,-0.4237976074
1.7282600403,-0.0203999024,0.0908663737,-0.0096184896,0.2499796549,-0.5714111328,-0.1491394043
1.7308299541,-0.0203999024,0.0908663737,-0.0096184896,0.2499796549,-0.5714111328,-0.1491394043
1.7333970070,-0.0203999024,0.0908663737,-0.0096184896,-3.6562703451,-0.1746826172,0.1712951660
1.7359569073,-0.0203999024,0.0908663737,-0.0198723958,-0.1314900717,-0.1746826172,0.1712951660
1.7385230064,-0.0130756836,0.0898898111,-0.0198723958,-0.1314900717,-0.1746826172,0.2170715332
1.7410929203,-0.0130756836,0.0898898111,-0.0198723958,-0.2077840170,-0.4035644531,0.2170715332
1.7436540127,-0.0130756836,0.0898898111,-0.0198723958,-0.2077840170,-0.4035644531,0.2933654785
1.7462148666,-0.0130756836,0.0898898111,-0.0184075521,-0.2383015951,-0.2357177734,0.2933654785
1.7493209839,-0.0140522461,0.0903780924,-0.0184075521,0.2042032877,-0.2967529297,0.1865539551
1.7525489330,-0.0140522461,0.0903780924,-0.0184075521,0.2042032877,-0.2967529297,0.1865539551
1.7551059723,-0.0140522461,0.0903780924,-0.0184075521,-3.7020467123,-0.1899414062,-0.0881042480
1.7576658726,-0.0199116211,0.0894015299,-0.0022942708,-0.3451131185,-0.1899414062,-0.0881042480
1.7603158951,-0.0199116211,0.0894015299,-0.0022942708,-0.3451131185,-0.1899414062,0.0797424317
1.7628738880,-0.0199116211,0.0894015299,-0.0022942708,-0.6045125326,-0.2967529297,0.0797424317
1.7654299736,-0.0199116211,0.0894015299,-0.0022942708,-0.6045125326,-0.2967529297,0.1255187988
1.7680449486,-0.0179584961,0.0894015299,-0.0169427084,-0.4824422201,-0.1594238281,0.1255187988
1.7706060410,-0.0179584961,0.0894015299,-0.0169427084,-0.4824422201,-0.1594238281,0.1255187988
1.7731649876,-0.0179584961,0.0894015299,-0.0169427084,-0.1162312826,-0.0526123047,0.1865539551
1.7757258415,-0.0179584961,0.0894015299,-0.0169427084,-0.1162312826,-0.0526123047,0.1865539551
1.7782928944,-0.0130756836,0.0908663737,-0.0130364584,-0.2688191732,-0.2814941406,0.3238830567
1.7809610367,-0.0130756836,0.0908663737,-0.0130364584,-0.2688191732,-0.2814941406,0.3238830567
1.7835209370,-0.0130756836,0.0908663737,-0.0130364584,-0.3603719076,-0.4188232422,0.1712951660
1.7860829830,-0.0130756836,0.0908663737,-0.0130364584,-0.3603719076,-0.4188232422,0.1712951660
1.7886860371,-0.0101459961,0.0913546549,-0.0174309896,-0.2993367514,-0.3120117187,-0.0270690918
1.7912478447,-0.0101459961,0.0913546549,-0.0174309896,-0.2993367514,-0.3120117187,-0.0270690918
1.7938079834,-0.0101459961,0.0913546549,-0.0174309896,-0.5587361654,-0.4188232422,0.0797424317
1.7963688374,-0.0101459961,0.0913546549,-0.0130364584,-0.5587361654,-0.4188232422,0.0797424317
1.7990319729,-0.0130756836,0.0879366861,-0.0130364584,-0.6808064779,-0.3577880859,0.2933654785
1.8015968800,-0.0130756836,0.0879366861,-0.0130364584,-0.6808064779,-0.3577880859,0.2933654785
1.8041548729,-0.0130756836,0.0879366861,-0.0130364584,-0.6808064779,-0.2357177734,0.4764709473
1.8067188263,-0.0130756836,0.0879366861,-0.0091302084,-0.7418416342,-0.2357177734,0.4764709473
1.8093779087,-0.0155170898,0.0894015299,-0.0091302084,-0.7418416342,-0.1289062500,0.7358703614
1.8119440079,-0.0155170898,0.0894015299,-0.0091302084,-0.4519246420,-0.1289062500,0.7358703614
1.8145010471,-0.0155170898,0.0894015299,-0.0091302084,-0.4519246420,-0.1289062500,0.4154357910
1.8170599937,-0.0155170898,0.0962374674,-0.0105950521,-0.3908894857,-0.1594238281,0.4154357910
1.8196229935,-0.0130756836,0.0962374674,-0.0105950521,-0.3908894857,-0.1594238281,0.4154357910
1.8221850395,-0.0130756836,0.0962374674,-0.0105950521,-0.4366658529,-0.2967529297,0.2018127442
1.8247430325,-0.0130756836,0.0962374674,-0.0105950521,-0.4366658529,-0.2967529297,0.2018127442
1.8272988796,-0.0130756836,0.0869601237,-0.0086419271,-0.0399373373,-0.7087402344,0.0187072754
1.8299820423,-0.0174702148,0.0869601237,-0.0086419271,-0.0399373373,-0.7087402344,0.0187072754
1.8325409889,-0.0174702148,0.0869601237,-0.0086419271,-0.4214070638,-0.9528808594,0.0950012207
1.8350999355,-0.0174702148,0.0869601237,-0.0086419271,-0.4214070638,-0.9528808594,0.0950012207
1.8376619816,-0.0145405274,0.0947726237,-0.0101067708,-0.5587361654,-0.6324462890,0.0187072754
1.8402240276,-0.0145405274,0.0947726237,-0.0101067708,-0.5587361654,-0.6324462890,0.0187072754
1.8428959846,-0.0145405274,0.0947726237,-0.0101067708,-0.4214070638,-0.5256347656,0.1255187988
1.8454549313,-0.0145405274,0.0947726237,-0.0101067708,-0.4214070638,-0.5256347656,0.1255187988
1.8480749130,-0.0164936524,0.0835421549,-0.0047356771,-0.6502888998,-0.5256347656,0.1102600098
1.8506338596,-0.0164936524,0.0835421549,-0.0047356771,-0.6502888998,-0.5256347656,0.1102600098
1.8531908989,-0.0164936524,0.0835421549,-0.0047356771,-0.6502888998,-0.7239990234,-0.0728454590
1.8557498455,-0.0164936524,0.0835421549,-0.0047356771,-0.4061482748,-0.7239990234,-0.0728454590
1.8584330082,-0.0077045898,0.0884249674,-0.0066888021,-0.4061482748,-0.4340820312,0.2933654785
1.8610019684,-0.0077045898,0.0884249674,-0.0066888021,-0.6502888998,-0.4340820312,0.2933654785
1.8635718822,-0.0077045898,0.0884249674,-0.0066888021,-0.6502888998,-0.5866699218,0.4612121582
1.8663790226,-0.0077045898,0.0884249674,-0.0066888021,-0.4519246420,-0.5866699218,0.4612121582
1.8693170547,-0.0160053711,0.0830538737,-0.0105950521,-0.4519246420,-0.8308105468,0.2323303223
1.8720169067,-0.0160053711,0.0830538737,-0.0105950521,-0.5129597982,-0.8308105468,0.2323303223
1.8747098446,-0.0160053711,0.0830538737,-0.0105950521,-0.5129597982,-0.5714111328,-0.0118103027
1.8774030209,-0.0160053711,0.0830538737,-0.0154778646,-0.6197713217,-0.5714111328,-0.0118103027
1.8801128864,-0.0135639648,0.0859835611,-0.0154778646,-0.6197713217,-0.9223632812,-0.2559509277
1.8828070164,-0.0135639648,0.0859835611,-0.0154778646,-0.3451131185,-0.9223632812,-0.2559509277
1.8855068684,-0.0135639648,0.0859835611,-0.0154778646,-0.3451131185,-0.7239990234,0.1865539551
1.8882069588,-0.0169819336,0.0918429361,-0.0052239584,-0.1467488607,-0.7239990234,0.1865539551
1.8908989429,-0.0169819336,0.0918429361,-0.0052239584,-0.1467488607,-0.7239990234,0.2475891114
1.8935999870,-0.0169819336,0.0918429361,-0.0052239584,-0.3145955404,-0.9223632812,0.2475891114
1.8962948322,-0.0169819336,0.0918429361,-0.0052239584,-0.3145955404,-0.9223632812,0.1255187988
1.8989398479,-0.0145405274,0.0918429361,-0.0076653646,-0.3298543295,-0.7239990234,0.1255187988
1.9015049934,-0.0145405274,0.0918429361,-0.0076653646,-0.3298543295,-0.7239990234,0.0492248535
1.9040730000,-0.0145405274,0.0918429361,-0.0076653646,-0.8486531576,-1.1207275390,0.0492248535
1.9067528248,-0.0145405274,0.0918429361,-0.0076653646,-0.8486531576,-1.1207275390,0.0492248535
1.9093289375,-0.0091694336,0.0908663737,-0.0052239584,-0.4671834310,-0.9376220703,0.0034484864
1.9118950367,-0.0091694336,0.0908663737,-0.0052239584,-0.4671834310,-0.9376220703,0.0034484864
1.9144558907,-0.0091694336,0.0908663737,-0.0052239584,-0.3756306967,-1.0596923828,-0.2101745605
1.9170248508,-0.0091694336,0.0908663737,-0.0052239584,-0.3756306967,-1.0596923828,-0.2101745605
1.9197349548,-0.0120991211,0.0918429361,-0.0115716146,-0.5892537435,-0.7850341797,-0.1338806152
1.9223010540,-0.0120991211,0.0918429361,-0.0115716146,-0.5892537435,-0.7850341797,-0.1338806152
1.9248659611,-0.0120991211,0.0918429361,-0.0115716146,-0.2535603842,-1.1665039062,-0.1491394043
1.9274308681,-0.0120991211,0.0918429361,-0.0057122396,-0.2535603842,-1.1665039062,-0.1491394043
1.9302060604,-0.0125874024,0.0923312174,-0.0057122396,-0.3908894857,-1.3038330078,-0.0118103027
1.9329030514,-0.0125874024,0.0923312174,-0.0057122396,-0.3908894857,-1.3038330078,-0.0118103027
1.9356000423,-0.0125874024,0.0923312174,-0.0057122396,-0.8333943685,-1.0291748047,-0.0881042480
1.9383089542,-0.0125874024,0.0894015299,-0.0047356771,-0.8333943685,-1.0291748047,-0.0881042480
1.9410059452,-0.0155170898,0.0894015299,-0.0047356771,-0.4824422201,-0.7087402344,0.1407775879
1.9436979294,-0.0155170898,0.0894015299,-0.0047356771,-0.4824422201,-0.7087402344,0.1407775879
1.9463920593,-0.0155170898,0.0894015299,-0.0047356771,-0.4366658529,-0.5256347656,0.2628479004
1.9490430355,-0.0160053711,0.0923312174,-0.0115716146,-0.4366658529,-0.5256347656,0.2628479004
1.9516079426,-0.0160053711,0.0923312174,-0.0115716146,-0.7876180014,-0.6171875000,0.1712951660
1.9541699886,-0.0160053711,0.0923312174,-0.0115716146,-0.7876180014,-0.6171875000,0.1712951660
1.9567379951,-0.0160053711,0.0923312174,-0.0115716146,-1.0012410482,-0.9071044922,0.1407775879
1.9593899250,-0.0077045898,0.0894015299,-0.0008294271,-1.0012410482,-0.9071044922,0.1407775879
1.9620878696,-0.0077045898,0.0894015299,-0.0008294271,-0.7876180014,-0.7697753906,-0.0118103027
1.9647829533,-0.0077045898,0.0894015299,-0.0008294271,-0.7876180014,-0.7697753906,-0.0118103027
1.9674780369,-0.0077045898,0.0894015299,-0.0008294271,-0.8333943685,-0.8765869140,0.1255187988
1.9702839851,-0.0169819336,0.0894015299,-0.0022942708,-0.8333943685,-0.8765869140,0.1255187988
1.9729850292,-0.0169819336,0.0894015299,-0.0022942708,-0.8639119467,-0.8613281250,0.1255187988
1.9756798744,-0.0169819336,0.0894015299,-0.0022942708,-0.8639119467,-0.8613281250,0.1255187988
1.9783928394,-0.0169819336,0.0894015299,-0.0018059896,-0.4671834310,-0.6477050781,0.1560363770
1.9810850620,-0.0150288086,0.0869601237,-0.0018059896,-0.4671834310,-0.6477050781,0.1560363770
1.9838209152,-0.0150288086,0.0869601237,-0.0018059896,-0.3756306967,-0.8613281250,0.1560363770
1.9866290092,-0.0150288086,0.0869601237,-0.0018059896,-0.3756306967,-0.8613281250,0.1560363770
1.9895980358,-0.0150288086,0.0889132487,-0.0091302084,-0.5434773764,-1.0291748047,-0.1338806152
1.9923000336,-0.0150288086,0.0889132487,-0.0091302084,-0.5434773764,-1.0291748047,-0.1338806152
1.9949979782,-0.0150288086,0.0889132487,-0.0091302084,-0.4366658529,-0.8613281250,-0.0118103027
1.9976949692,-0.0150288086,0.0889132487,-0.0091302084,-0.4366658529,-0.8613281250,-0.0118103027
2.0002629757,-0.0125874024,0.0894015299,-0.0071770834,-0.1467488607,-0.7239990234,0.1712951660
2.0028238297,-0.0125874024,0.0894015299,-0.0071770834,-0.1467488607,-0.7239990234,0.1712951660
2.0053889751,-0.0125874024,0.0894015299,-0.0071770834,-0.1467488607,-0.6019287109,-0.0881042480
2.0080180168,-0.0125874024,0.0894015299,-0.0071770834,-0.2383015951,-0.6019287109,-0.0881042480
2.0107119083,-0.0155170898,0.0889132487,-0.0076653646,-0.2383015951,-0.8765869140,-0.0575866699
2.0134110451,-0.0155170898,0.0889132487,-0.0076653646,-0.2077840170,-0.8765869140,-0.0575866699
2.0161099434,-0.0155170898,0.0889132487,-0.0076653646,-0.2077840170,-1.0749511718,-0.4543151855
2.0188078880,-0.0155170898,0.0879366861,-0.0130364584,0.2957560221,-1.0749511718,-0.4543151855
2.0213739872,-0.0120991211,0.0879366861,-0.0130364584,0.2957560221,-1.0749511718,-0.1033630371
2.0239348412,-0.0120991211,0.0879366861,-0.0130364584,-0.1467488607,-0.6019287109,-0.1033630371
2.0264978409,-0.0120991211,0.0879366861,-0.0130364584,-0.1467488607,-0.6019287109,-0.1033630371
2.0290739536,-0.0120991211,0.0918429361,-0.0110833334,-0.2230428060,-0.8308105468,-0.0118103027
2.0316410065,-0.0111225586,0.0918429361,-0.0110833334,-0.2230428060,-0.8308105468,-0.0118103027
2.0343198776,-0.0111225586,0.0918429361,-0.0110833334,-0.1009724935,-1.1512451172,-0.1643981933
2.0368850231,-0.0111225586,0.0918429361,-0.0110833334,-0.1009724935,-1.1512451172,-0.1643981933
2.0395619869,-0.0140522461,0.0859835611,-0.0101067708,-0.1467488607,-1.4411621094,0.0644836426
2.0421309471,-0.0140522461,0.0859835611,-0.0101067708,-0.1467488607,-1.4411621094,0.0644836426
2.0446939468,-0.0140522461,0.0859835611,-0.0101067708,-0.1314900717,-0.8460693359,-0.2712097168
2.0472588539,-0.0140522461,0.0859835611,-0.0101067708,-0.1314900717,-0.8460693359,-0.2712097168
2.0500459671,-0.0155170898,0.0942843424,-0.0105950521,-0.3756306967,-0.1746826172,-0.1949157715
2.0527448654,-0.0155170898,0.0942843424,-0.0105950521,-0.3756306967,-0.1746826172,-0.1949157715
2.0554399490,-0.0155170898,0.0942843424,-0.0105950521,-0.5434773764,-0.4188232422,-0.1643981933
2.0581479073,-0.0155170898,0.0942843424,-0.0105950521,-0.5434773764,-0.4188232422,-0.1643981933
2.0608530045,-0.0096577148,0.0874484049,-0.0052239584,0.1279093424,-0.7087402344,-0.2406921386
2.0635528564,-0.0096577148,0.0874484049,-0.0052239584,0.1279093424,-0.7087402344,-0.2406921386
2.0662498474,-0.0096577148,0.0874484049,-0.0052239584,0.0210978190,-1.1207275390,-0.0118103027
2.0689480305,-0.0096577148,0.0874484049,-0.0027825521,0.0210978190,-1.1207275390,-0.0118103027
2.0716419220,-0.0145405274,0.0869601237,-0.0027825521,-0.1620076498,-0.9376220703,-0.3475036621
2.0743389130,-0.0145405274,0.0869601237,-0.0027825521,-0.1620076498,-0.9376220703,-0.3475036621
2.0770339966,-0.0145405274,0.0869601237,-0.0027825521,0.1431681315,-0.6171875000,-0.0728454590
2.0797400475,-0.0145405274,0.0913546549,-0.0179192708,0.1431681315,-0.6171875000,-0.0728454590
2.0824339390,-0.0125874024,0.0913546549,-0.0179192708,0.0821329752,-0.7545166015,0.0644836426
2.0851299763,-0.0125874024,0.0913546549,-0.0179192708,0.0821329752,-0.7545166015,0.0644836426
2.0878338814,-0.0125874024,0.0913546549,-0.0179192708,0.5398966471,-1.5021972656,-0.4085388183
2.0905330181,-0.0194233398,0.0825655924,-0.0032708334,0.5398966471,-1.5021972656,-0.4085388183
2.0932278633,-0.0194233398,0.0825655924,-0.0032708334,0.0210978190,-0.8460693359,-0.1949157715
2.0959229469,-0.0194233398,0.0825655924,-0.0032708334,0.0210978190,-0.8460693359,-0.1949157715
2.0987930298,-0.0194233398,0.0825655924,-0.0032708334,0.2957560221,-0.9071044922,-0.0423278808
2.1014928818,-0.0164936524,0.0874484049,-0.0130364584,0.2957560221,-0.9071044922,-0.0423278808
2.1043908596,-0.0164936524,0.0874484049,-0.0130364584,0.0668741862,-0.6019287109,-0.1491394043
2.1074588299,-0.0164936524,0.0874484049,-0.0130364584,0.0668741862,-0.6019287109,-0.1491394043
2.1101758480,-0.0155170898,0.0952609049,-0.0081536458,-0.4977010092,-0.2967529297,-0.0575866699
2.1128740311,-0.0155170898,0.0952609049,-0.0081536458,-0.4977010092,-0.2967529297,-0.0575866699
2.1155688763,-0.0155170898,0.0952609049,-0.0081536458,-0.2535603842,-0.5714111328,-0.1338806152
2.1182768345,-0.0155170898,0.0952609049,-0.0081536458,-0.2535603842,-0.5714111328,-0.1338806152
2.1209719181,-0.0145405274,0.0928194987,-0.0154778646,0.3567911783,-0.8308105468,-0.3169860840
2.1236698627,-0.0145405274,0.0928194987,-0.0154778646,0.3567911783,-0.8308105468,-0.3169860840
2.1263709068,-0.0145405274,0.0928194987,-0.0154778646,0.4178263346,-0.8460693359,-0.4237976074
2.1290810108,-0.0145405274,0.0928194987,-0.0154778646,0.4178263346,-0.8460693359,-0.4237976074
2.1317789555,-0.0160053711,0.0913546549,-0.0042473958,0.0821329752,-0.6782226562,-0.2712097168
2.1344778538,-0.0160053711,0.0913546549,-0.0042473958,0.0821329752,-0.6782226562,-0.2712097168
2.1371769905,-0.0160053711,0.0913546549,-0.0042473958,-0.0399373373,-0.4035644531,-0.2101745605
2.1397879124,-0.0160053711,0.0913546549,-0.0062005208,-0.0399373373,-0.4035644531,-0.2101745605
2.1423540115,-0.0155170898,0.0908663737,-0.0062005208,0.0363566080,-0.1136474609,-0.0575866699
2.1449208260,-0.0155170898,0.0908663737,-0.0062005208,0.0363566080,-0.1136474609,-0.0575866699
2.1474850178,-0.0155170898,0.0908663737,-0.0062005208,-0.2230428060,-0.1289062500,0.2018127442
2.1501379013,-0.0155170898,0.0903780924,-0.0091302084,-0.2230428060,-0.1289062500,0.2018127442
2.1527009010,-0.0184467774,0.0903780924,-0.0091302084,-0.3145955404,-0.3883056640,0.2170715332
2.1552610397,-0.0184467774,0.0903780924,-0.0091302084,-0.3145955404,-0.3883056640,0.2170715332
2.1579289436,-0.0184467774,0.0903780924,-0.0091302084,-0.3145955404,-0.6019287109,0.2628479004
2.1604959965,-0.0184467774,0.0908663737,-0.0066888021,-0.8944295248,-0.6019287109,0.2628479004
2.1631629467,-0.0120991211,0.0908663737,-0.0066888021,-0.8944295248,-0.3272705078,0.0950012207
2.1657269001,-0.0120991211,0.0908663737,-0.0066888021,-0.7571004232,-0.3272705078,0.0950012207
2.1682958603,-0.0120991211,0.0908663737,-0.0066888021,-0.7571004232,-0.3272705078,0.0492248535
2.1708559990,-0.0174702148,0.0884249674,-0.0003411458,-0.3756306967,-0.2967529297,0.0492248535
2.1734199524,-0.0174702148,0.0884249674,-0.0003411458,-0.3756306967,-0.2967529297,0.0492248535
2.1759819984,-0.0174702148,0.0884249674,-0.0003411458,-0.5434773764,0.0389404297,0.1712951660
2.1785540581,-0.0174702148,0.0884249674,-0.0003411458,-0.5434773764,0.0389404297,0.1712951660
2.1811230183,-0.0199116211,0.0937960611,-0.0086419271,-0.3145955404,0.0999755860,-0.0728454590
2.1836860180,-0.0199116211,0.0937960611,-0.0086419271,-0.3145955404,0.0999755860,-0.0728454590
2.1862468719,-0.0199116211,0.0937960611,-0.0086419271,0.4330851236,-0.0983886718,-0.1491394043
2.1888549328,-0.0199116211,0.0937960611,-0.0086419271,0.4330851236,-0.0983886718,-0.1491394043
2.1914169788,-0.0125874024,0.0957491861,-0.0154778646,0.3110148112,-0.1441650390,-0.0881042480
2.1939778328,-0.0125874024,0.0957491861,-0.0154778646,0.3110148112,-0.1441650390,-0.0881042480
2.1965370178,-0.0125874024,0.0957491861,-0.0154778646,-0.4824422201,-0.0220947265,0.1712951660
2.1992368698,-0.0125874024,0.0957491861,-0.0154778646,-0.4824422201,-0.0220947265,0.1712951660
2.2018058300,-0.0145405274,0.0918429361,-0.0071770834,0.0668741862,-0.0526123047,0.0950012207
2.2043628693,-0.0145405274,0.0918429361,-0.0071770834,0.0668741862,-0.0526123047,0.0950012207
2.2069270611,-0.0145405274,0.0918429361,-0.0071770834,0.2804972330,-0.0678710937,0.0034484864
2.2095749378,-0.0145405274,0.0918429361,-0.0071770834,0.2804972330,-0.0678710937,0.0034484864
2.2121338844,-0.0228413086,0.0894015299,-0.0003411458,0.2804972330,0.1762695313,-0.3322448730
2.2149329185,-0.0228413086,0.0894015299,-0.0003411458,0.0058390299,0.1762695313,-0.3322448730
2.2175018787,-0.0228413086,0.0894015299,-0.0003411458,0.0058390299,0.2067871094,-0.1949157715
2.2202429771,-0.0228413086,0.0894015299,-0.0003411458,0.5093790690,0.2067871094,-0.1949157715
2.2228050232,-0.0164936524,0.0918429361,-0.0066888021,0.5093790690,0.2067871094,0.1865539551
2.2254738808,-0.0164936524,0.0918429361,-0.0066888021,-0.1925252279,0.1610107422,0.1865539551
2.2280869484,-0.0164936524,0.0918429361,-0.0066888021,-0.1925252279,0.1610107422,0.2475891114
2.2306509018,-0.0164936524,0.0918429361,-0.0076653646,-0.4519246420,0.4509277344,0.2475891114
2.2332129478,-0.0179584961,0.0884249674,-0.0076653646,-0.4519246420,0.4509277344,0.2475891114
2.2357759476,-0.0179584961,0.0884249674,-0.0076653646,-0.4366658529,0.2983398438,0.0187072754
2.2383470535,-0.0179584961,0.0884249674,-0.0076653646,-0.4366658529,0.2983398438,0.0187072754
2.2409160137,-0.0179584961,0.0903780924,-0.0057122396,-0.3298543295,0.5119628906,0.1560363770
2.2434790134,-0.0091694336,0.0903780924,-0.0057122396,-0.3298543295,0.5119628906,0.1560363770
2.2460389137,-0.0091694336,0.0903780924,-0.0057122396,-0.3451131185,0.5729980469,0.1102600098
2.2486429214,-0.0091694336,0.0903780924,-0.0057122396,-0.3451131185,0.5729980469,0.1102600098
2.2512040138,-0.0091694336,0.0903780924,-0.0096184896,-0.9402058920,0.7255859375,0.2475891114
2.2537648678,-0.0116108398,0.0903780924,-0.0096184896,-0.9402058920,0.7255859375,0.2475891114
2.2563290596,-0.0116108398,0.0903780924,-0.0096184896,-0.5587361654,0.6950683594,0.0492248535
2.2588989735,-0.0116108398,0.0903780924,-0.0096184896,-0.5587361654,0.6950683594,0.0492248535
2.2617299557,-0.0135639648,0.0928194987,-0.0008294271,-0.5434773764,0.2525634766,0.1407775879
2.2642960548,-0.0135639648,0.0928194987,-0.0008294271,-0.5434773764,0.2525634766,0.1407775879
2.2668569088,-0.0135639648,0.0928194987,-0.0008294271,-0.7113240560,0.8629150391,0.1865539551
2.2694630623,-0.0135639648,0.0928194987,-0.0008294271,-0.7113240560,0.8629150391,0.1865539551
2.2720248699,-0.0081928711,0.0908663737,-0.0091302084,-0.7113240560,0.4967041016,0.0339660645
2.2745840549,-0.0081928711,0.0908663737,-0.0091302084,-0.0551961264,0.4967041016,0.0339660645
2.2771508694,-0.0081928711,0.0908663737,-0.0091302084,-0.0551961264,0.4967041016,-0.0118103027
2.2797689438,-0.0081928711,0.0908663737,-0.0091302084,-0.0857137045,0.4661865235,-0.0118103027
2.2823419571,-0.0203999024,0.0884249674,-0.0071770834,-0.0857137045,0.4661865235,-0.0118103027
2.2849030495,-0.0203999024,0.0884249674,-0.0071770834,-0.1162312826,0.3593750000,0.0492248535
2.2875669003,-0.0203999024,0.0884249674,-0.0071770834,-0.1162312826,0.3593750000,0.0492248535
2.2901928425,-0.0203999024,0.0884249674,-0.0071770834,-0.0094197592,0.6645507813,0.1407775879
2.2927529812,-0.0150288086,0.0942843424,-0.0052239584,-0.0094197592,0.6645507813,0.1407775879
2.2953128815,-0.0150288086,0.0942843424,-0.0052239584,-0.1772664388,0.7866210938,0.2628479004
2.2978799343,-0.0150288086,0.0942843424,-0.0052239584,-0.1772664388,0.7866210938,0.2628479004
2.3004448414,-0.0150288086,0.0942843424,-0.0052239584,-0.3145955404,0.6492919922,0.0950012207
2.3030099869,-0.0150288086,0.0889132487,-0.0203606771,-0.3145955404,0.6492919922,0.0950012207
2.3055739403,-0.0150288086,0.0889132487,-0.0203606771,-0.1467488607,0.3288574219,0.0644836426
2.3082740307,-0.0150288086,0.0889132487,-0.0203606771,-0.1467488607,0.3288574219,0.0644836426
2.3108649254,-0.0150288086,0.0889132487,-0.0203606771,-0.2535603842,0.4051513672,0.2781066895
2.3134329319,-0.0228413086,0.0913546549,-0.0076653646,-0.2535603842,0.4051513672,0.2781066895
2.3159978390,-0.0228413086,0.0913546549,-0.0076653646,-0.3603719076,1.0307617188,0.1712951660
2.3187668324,-0.0228413086,0.0913546549,-0.0076653646,-0.3603719076,1.0307617188,0.1712951660
2.3214640617,-0.0228413086,0.0913546549,-0.0022942708,-0.2535603842,1.0612792969,0.1255187988
2.3241660595,-0.0208881836,0.0918429361,-0.0022942708,-0.2535603842,1.0612792969,0.1255187988
2.3268618584,-0.0208881836,0.0918429361,-0.0022942708,-0.3603719076,0.4204101563,0.1102600098
2.3294909000,-0.0208881836,0.0918429361,-0.0022942708,-0.3603719076,0.4204101563,0.1102600098
2.3320629597,-0.0208881836,0.0869601237,-0.0115716146,-0.3603719076,0.6492919922,0.4612121582
2.3346309662,-0.0213764648,0.0869601237,-0.0115716146,-0.2077840170,0.6492919922,0.4612121582
2.3371968269,-0.0213764648,0.0869601237,-0.0115716146,-0.2077840170,0.6492919922,0.4612121582
2.3399088383,-0.0213764648,0.0869601237,-0.0115716146,-0.2383015951,0.2830810547,0.4612121582
2.3426098824,-0.0194233398,0.0908663737,-0.0008294271,-0.2383015951,0.2830810547,0.4306945801
2.3453149796,-0.0194233398,0.0908663737,-0.0008294271,-0.6197713217,0.3135986328,0.4306945801
2.3480548859,-0.0194233398,0.0908663737,-0.0008294271,-0.6197713217,0.3135986328,0.3086242676
2.3507268429,-0.0194233398,0.0908663737,-0.0008294271,-0.3298543295,0.5272216797,0.3086242676
2.3532989025,-0.0072163086,0.0937960611,-0.0076653646,-0.3298543295,0.5272216797,0.0187072754
2.3558650017,-0.0072163086,0.0937960611,-0.0076653646,-0.4366658529,0.5119628906,0.0187072754
2.3585188389,-0.0072163086,0.0937960611,-0.0076653646,-0.4366658529,0.5119628906,0.2933654785
2.3612179756,-0.0072163086,0.0937960611,-0.0076653646,-0.7265828451,0.7103271485,0.2933654785
2.3639149666,-0.0120991211,0.0957491861,-0.0062005208,-0.7265828451,0.7103271485,0.2933654785
2.3666188717,-0.0120991211,0.0957491861,-0.0062005208,-0.6502888998,0.6950683594,0.2933654785
2.3693258762,-0.0120991211,0.0957491861,-0.0062005208,-0.6502888998,0.6950683594,0.2933654785
2.3720209599,-0.0120991211,0.0957491861,-0.0120598958,-0.7876180014,0.5882568360,0.1407775879
2.3748369217,-0.0096577148,0.0884249674,-0.0120598958,-0.7876180014,0.5882568360,0.3544006348
2.3779358864,-0.0096577148,0.0884249674,-0.0120598958,-0.6960652670,0.3593750000,0.3544006348
2.3805098534,-0.0096577148,0.0884249674,-0.0120598958,-0.6960652670,0.3593750000,0.2628479004
2.3830749989,-0.0164936524,0.0903780924,-0.0032708334,-0.5282185873,0.4356689453,0.2628479004
2.3856399059,-0.0164936524,0.0903780924,-0.0032708334,-0.5282185873,0.4356689453,0.2628479004
2.3882780075,-0.0164936524,0.0903780924,-0.0032708334,-0.2535603842,0.6187744141,0.1865539551
2.3909790516,-0.0164936524,0.0903780924,-0.0032708334,-0.2535603842,0.6187744141,0.1865539551
2.3936769962,-0.0111225586,0.0933077799,-0.0037591146,-0.3908894857,0.6798095703,0.4459533692
2.3963799477,-0.0111225586,0.0933077799,-0.0037591146,-0.3908894857,0.6798095703,0.4459533692
2.3990859985,-0.0111225586,0.0933077799,-0.0037591146,-0.2993367514,0.5272216797,0.2628479004
2.4017858505,-0.0111225586,0.0933077799,-0.0037591146,-0.2993367514,0.5272216797,0.2628479004
2.4044849873,-0.0140522461,0.0874484049,-0.0135247396,-0.5892537435,0.3746337891,0.1865539551
2.4071860313,-0.0140522461,0.0874484049,-0.0135247396,-0.5892537435,0.3746337891,0.1865539551
2.4098000526,-0.0140522461,0.0874484049,-0.0135247396,-0.4366658529,0.5882568360,0.3696594238
2.4123699665,-0.0140522461,0.0874484049,-0.0081536458,-0.4366658529,0.5882568360,0.3696594238
2.4150328636,-0.0199116211,0.0908663737,-0.0081536458,-0.6960652670,0.7103271485,0.2170715332
2.4176020622,-0.0199116211,0.0908663737,-0.0081536458,-0.6960652670,0.7103271485,0.2170715332
2.4201929569,-0.0199116211,0.0908663737,-0.0081536458,-0.3298543295,0.6340332032,0.0034484864
2.4227619171,-0.0199116211,0.0933077799,-0.0071770834,-0.3298543295,0.6340332032,0.0034484864
2.4253289700,-0.0199116211,0.0933077799,-0.0071770834,-0.4671834310,0.8629150391,0.1102600098
2.4279580116,-0.0199116211,0.0933077799,-0.0071770834,-0.4671834310,0.8629150391,0.1102600098
2.4305520058,-0.0199116211,0.0933077799,-0.0071770834,0.0210978190,0.7103271485,0.0492248535
2.4331169128,-0.0199116211,0.0908663737,-0.0105950521,0.0210978190,0.7103271485,0.0492248535
2.4356820583,-0.0106342774,0.0908663737,-0.0105950521,-0.0551961264,0.1304931641,-0.2254333496
2.4384100437,-0.0106342774,0.0908663737,-0.0105950521,-0.0551961264,0.1304931641,-0.2254333496
2.4411170483,-0.0106342774,0.0908663737,-0.0105950521,-0.4061482748,0.2525634766,0.2323303223
2.4438209534,-0.0145405274,0.0908663737,-0.0062005208,-0.4061482748,0.2525634766,0.2323303223
2.4465198517,-0.0145405274,0.0908663737,-0.0062005208,-0.8333943685,0.5119628906,0.2628479004
2.4492659569,-0.0145405274,0.0908663737,-0.0062005208,-0.8333943685,0.5119628906,0.2628479004
2.4519579411,-0.0145405274,0.0908663737,-0.0062005208,-1.2148640951,0.2678222656,0.2628479004
2.4546549320,-0.0057514648,0.0937960611,-0.0076653646,-1.2148640951,0.2678222656,0.2628479004
2.4573509693,-0.0057514648,0.0937960611,-0.0076653646,-0.9859822592,0.3746337891,0.0644836426
2.4600670338,-0.0057514648,0.0937960611,-0.0076653646,-0.9859822592,0.3746337891,0.0644836426
2.4627618790,-0.0057514648,0.0937960611,-0.0032708334,-0.4977010092,0.0847167969,0.2628479004
2.4654679298,-0.0130756836,0.0923312174,-0.0032708334,-0.4977010092,0.0847167969,0.2628479004
2.4681668282,-0.0130756836,0.0923312174,-0.0032708334,-0.4977010092,0.2067871094,0.1407775879
2.4707310200,-0.0130756836,0.0923312174,-0.0032708334,-0.6960652670,0.2067871094,0.1407775879
2.4732978344,-0.0130756836,0.0889132487,-0.0052239584,-0.6960652670,0.2067871094,0.0339660645
2.4758639336,-0.0155170898,0.0889132487,-0.0052239584,-0.7571004232,0.2373046875,0.0339660645
2.4784908295,-0.0155170898,0.0889132487,-0.0052239584,-0.7571004232,0.2373046875,-0.1796569824
2.4811668396,-0.0155170898,0.0889132487,-0.0052239584,-0.4977010092,0.0236816406,-0.1796569824
2.4837360382,-0.0086811524,0.0918429361,-0.0047356771,-0.4977010092,0.0236816406,-0.1796569824
2.4863040447,-0.0086811524,0.0918429361,-0.0047356771,-0.8486531576,0.0999755860,0.1255187988
2.4889478683,-0.0086811524,0.0918429361,-0.0047356771,-0.8486531576,0.0999755860,0.1255187988
2.4916410446,-0.0086811524,0.0918429361,-0.0047356771,-0.5892537435,0.3135986328,-0.1338806152
2.4944639206,-0.0164936524,0.0918429361,-0.0047356771,-0.5892537435,0.3135986328,-0.1338806152
2.4971580505,-0.0164936524,0.0918429361,-0.0047356771,-0.5129597982,0.3898925782,0.1712951660
2.5002639294,-0.0164936524,0.0918429361,-0.0047356771,-0.5129597982,0.3898925782,0.0644836426
2.5029640198,-0.0164936524,0.0918429361,-0.0057122396,-0.9554646810,0.2983398438,0.0644836426
2.5056600571,-0.0213764648,0.0913546549,-0.0057122396,-0.9554646810,0.2983398438,0.0187072754
2.5083789825,-0.0213764648,0.0913546549,-0.0057122396,-0.5282185873,0.3288574219,0.0187072754
2.5110819340,-0.0213764648,0.0913546549,-0.0057122396,-0.5282185873,0.3288574219,-0.2864685058
2.5137789249,-0.0213764648,0.0908663737,-0.0062005208,-0.7571004232,0.6035156250,-0.2864685058
2.5164828300,-0.0125874024,0.0908663737,-0.0062005208,-0.7571004232,0.6035156250,-0.5611267090
2.5191800594,-0.0125874024,0.0908663737,-0.0062005208,-0.3908894857,0.3441162110,-0.5611267090
2.5218799114,-0.0125874024,0.0908663737,-0.0062005208,-0.3908894857,0.3441162110,-0.0881042480
2.5245759487,-0.0096577148,0.0879366861,-0.0071770834,-0.6960652670,0.4661865235,-0.0881042480
2.5272710323,-0.0096577148,0.0879366861,-0.0071770834,-0.6960652670,0.4661865235,-0.0881042480
2.5298850536,-0.0096577148,0.0879366861,-0.0071770834,-0.6045125326,0.4509277344,-0.0728454590
2.5324499607,-0.0096577148,0.0879366861,-0.0071770834,-0.6045125326,0.4509277344,-0.0728454590
2.5350120068,-0.0120991211,0.0903780924,0.0001471354,-1.1233113607,0.2525634766,-0.1796569824
2.5375769138,-0.0120991211,0.0903780924,0.0001471354,-1.1233113607,0.2525634766,-0.1796569824
2.5401968956,-0.0120991211,0.0903780924,0.0001471354,-0.6350301107,0.1915283203,-0.4848327636
2.5427680016,-0.0120991211,0.0903780924,0.0001471354,-0.6350301107,0.1915283203,-0.4848327636
2.5454330444,-0.0164936524,0.0874484049,-0.0027825521,-0.6350301107,0.4967041016,-0.3169860840
2.5481739044,-0.0164936524,0.0874484049,-0.0027825521,-0.6350301107,0.4967041016,-0.3169860840
2.5507500172,-0.0164936524,0.0874484049,-0.0027825521,-0.5434773764,0.1610107422,-0.5000915527
2.5533149242,-0.0164936524,0.0874484049,-0.0027825521,-0.5434773764,0.1610107422,-0.5000915527
2.5558798313,-0.0047749024,0.0869601237,-0.0179192708,-0.2230428060,-0.0831298828,-0.8205261230
2.5586059093,-0.0047749024,0.0869601237,-0.0179192708,-0.2230428060,-0.0831298828,-0.8205261230
2.5613059998,-0.0047749024,0.0869601237,-0.0179192708,-0.2077840170,-0.0831298828,-0.8663024902
2.5640079975,-0.0047749024,0.0889132487,-0.0047356771,-0.2077840170,-0.0831298828,-0.8663024902
2.5667040348,-0.0091694336,0.0889132487,-0.0047356771,-0.3908894857,-0.0678710937,-0.3780212402
2.5694019794,-0.0091694336,0.0889132487,-0.0047356771,-0.3908894857,-0.0678710937,-0.3780212402
2.5721030235,-0.0091694336,0.0889132487,-0.0047356771,-0.6045125326,-0.5103759765,-0.7594909668
2.5748009682,-0.0140522461,0.0864718424,-0.0071770834,-0.6045125326,-0.5103759765,-0.7594909668
2.5774948597,-0.0140522461,0.0864718424,-0.0071770834,-0.2230428060,-0.4035644531,-0.8357849121
2.5800778866,-0.0140522461,0.0864718424,-0.0071770834,-0.2230428060,-0.4035644531,-0.8357849121
2.5826468468,-0.0140522461,0.0864718424,-0.0071770834,-0.3298543295,-0.2052001953,-0.9425964355
2.5852189064,-0.0086811524,0.0889132487,-0.0047356771,-0.3298543295,-0.2052001953,-0.9425964355
2.5878078938,-0.0086811524,0.0889132487,-0.0047356771,-0.3298543295,0.1610107422,-0.7747497558
2.5904989243,-0.0086811524,0.0889132487,-0.0047356771,-0.1620076498,0.1610107422,-0.7747497558
2.5932040215,-0.0086811524,0.0889132487,-0.0047356771,-0.1620076498,0.0541992188,-1.0341491699
2.5958988667,-0.0111225586,0.0894015299,-0.0110833334,-0.5282185873,0.0541992188,-1.0341491699
2.5985970497,-0.0111225586,0.0894015299,-0.0110833334,-0.5282185873,0.2983398438,-0.8663024902
2.6013050079,-0.0111225586,0.0894015299,-0.0110833334,-0.6655476888,0.2983398438,-0.8663024902
2.6039979458,-0.0111225586,0.0894015299,-0.0096184896,-0.6655476888,0.0236816406,-0.8815612793
2.6067008972,-0.0145405274,0.0840304361,-0.0096184896,-0.1772664388,0.0236816406,-0.8815612793
2.6095108986,-0.0145405274,0.0840304361,-0.0096184896,-0.1772664388,0.4204101563,-1.2172546386
2.6122088432,-0.0145405274,0.0840304361,-0.0096184896,-0.6655476888,0.4204101563,-1.2172546386
2.6151578426,-0.0355366211,0.0825655924,-0.0252434896,-0.6655476888,0.7713623047,-0.6069030762
2.6182458401,-0.0355366211,0.0825655924,-0.0252434896,-1.9472859701,0.7713623047,-0.6069030762
2.6208209991,-0.0355366211,0.0825655924,-0.0252434896,-2.4203084310,0.4204101563,0.0644836426
2.6233830452,-0.0355366211,0.0825655924,-0.0252434896,-2.4203084310,0.4204101563,0.0644836426
2.6260688305,-0.0355366211,0.0767062174,-0.0179192708,-2.4203084310,0.1457519532,0.2170715332
2.6287000179,-0.0355366211,0.0767062174,-0.0179192708,-3.3816121420,0.1457519532,0.2170715332
2.6313600540,-0.0355366211,0.0767062174,-0.0179192708,-7.2878621420,0.1762695313,0.3086242676
2.6340179443,-0.0355366211,0.0767062174,-0.0179192708,-4.1903279623,0.1762695313,0.3086242676
2.6367440224,-0.0438374024,0.0854952799,-0.0188958334,-4.1903279623,0.0999755860,0.6138000488
2.6394889355,-0.0438374024,0.0854952799,-0.0188958334,-5.0753377279,0.0999755860,0.6138000488
2.6421868801,-0.0438374024,0.0854952799,-0.0188958334,-5.0753377279,0.6950683594,0.3544006348
2.6448829174,-0.0438374024,0.1001437174,-0.0208489584,-5.8077596029,0.6950683594,0.3544006348
2.6475708485,-0.0579975586,0.1001437174,-0.0208489584,-5.8077596029,1.3359375000,-0.0728454590
2.6501579285,-0.0579975586,0.1001437174,-0.0208489584,-5.5483601888,1.3359375000,-0.0728454590
2.6527178288,-0.0579975586,0.1001437174,-0.0208489584,-5.5483601888,1.3359375000,-0.2406921386
2.6552920341,-0.0604389648,0.0996554361,-0.0145013021,-4.9837849935,1.8547363282,-0.2406921386
2.6578528881,-0.0604389648,0.0996554361,-0.0145013021,-4.9837849935,1.8547363282,-0.2406921386
2.6604180336,-0.0604389648,0.0996554361,-0.0145013021,-4.1598103842,1.8699951172,-0.3932800293
2.6629898548,-0.0604389648,0.0996554361,-0.0145013021,-4.1598103842,1.8699951172,-0.3932800293
2.6655550003,-0.0662983398,0.0889132487,-0.0188958334,-4.9837849935,1.6411132813,-0.2254333496
2.6682100296,-0.0662983398,0.0889132487,-0.0188958334,-4.9837849935,1.6411132813,-0.2254333496
2.6707899570,-0.0662983398,0.0889132487,-0.0188958334,-6.4486287435,1.6258544922,-0.0423278808
2.6734590530,-0.0662983398,0.0889132487,-0.0188958334,-6.4486287435,1.6258544922,-0.0423278808
2.6760258675,-0.0677631836,0.0786593424,-0.0071770834,-6.8911336264,1.7174072266,-0.1796569824
2.6787869930,-0.0677631836,0.0786593424,-0.0071770834,-6.8911336264,1.7174072266,-0.1796569824
2.6814758778,-0.0677631836,0.0786593424,-0.0071770834,-7.9897664388,2.2056884766,-0.4848327636
2.6841788292,-0.0677631836,0.0786593424,-0.0071770834,-7.9897664388,2.2056884766,-0.4848327636
2.6868729591,-0.0648334961,0.0962374674,-0.0130364584,-8.7679646810,2.2514648438,-0.4695739746
2.6895818710,-0.0648334961,0.0962374674,-0.0130364584,-8.7679646810,2.2514648438,-0.4695739746
2.6922788620,-0.0648334961,0.0962374674,-0.0130364584,-8.6916707357,2.4040527344,-0.5611267090
2.6949720383,-0.0648334961,0.0962374674,-0.0140130208,-8.6916707357,2.4040527344,-0.5611267090
2.6976699829,-0.0584858398,0.1016085611,-0.0140130208,-8.3712361654,2.3125000000,-1.1104431152
2.7003729343,-0.0584858398,0.1016085611,-0.0140130208,-8.3712361654,2.3125000000,-1.1104431152
2.7030708790,-0.0584858398,0.1016085611,-0.0140130208,-8.3254597982,2.0683593750,-1.2477722168
2.7058689594,-0.0448139648,0.1011202799,-0.0120598958,-8.3254597982,2.0683593750,-1.2477722168
2.7085380554,-0.0448139648,0.1011202799,-0.0120598958,-7.6082967123,2.1141357422,-0.9883728027
2.7110979557,-0.0448139648,0.1011202799,-0.0120598958,-7.6082967123,2.1141357422,-0.9883728027
2.7136659622,-0.0448139648,0.1011202799,-0.0120598958,-7.0589803060,2.1446533203,-0.9425964355
2.7162270546,-0.0477436524,0.0859835611,-0.0125481771,-7.0589803060,2.1446533203,-0.9425964355
2.7188689709,-0.0477436524,0.0859835611,-0.0125481771,-7.1200154623,2.2209472656,-1.3240661621
2.7214348316,-0.0477436524,0.0859835611,-0.0125481771,-7.1200154623,2.2209472656,-1.3240661621
2.7239940166,-0.0477436524,0.0859835611,-0.0125481771,-7.1200154623,2.2209472656,-1.5224304199
2.7265620232,-0.0340717774,0.0850069987,-0.0140130208,-6.7232869467,2.2209472656,-1.5224304199
2.7292029858,-0.0340717774,0.0850069987,-0.0140130208,-6.7232869467,2.2667236328,-1.1714782715
2.7318978310,-0.0340717774,0.0850069987,-0.0140130208,-5.8840535482,2.2667236328,-1.1714782715
2.7348299026,-0.0340717774,0.0850069987,-0.0140130208,-5.8840535482,2.1599121094,-1.1714782715
2.7380809784,-0.0291889648,0.0781710611,-0.0052239584,-5.7162068685,2.1599121094,-1.1714782715
2.7407908440,-0.0291889648,0.0781710611,-0.0052239584,-5.5025838217,2.3735351563,-0.7900085449
2.7434859276,-0.0291889648,0.0781710611,-0.0052239584,-5.5025838217,2.3735351563,-0.7900085449
2.7461869717,-0.0267475586,0.0845187174,-0.0140130208,-5.1363728842,2.6787109375,-0.6984558105
2.7488958836,-0.0267475586,0.0845187174,-0.0140130208,-5.1363728842,2.6787109375,-0.6984558105
2.7515919209,-0.0267475586,0.0845187174,-0.0140130208,-6.0824178060,2.7855224610,-0.6831970215
2.7542920113,-0.0267475586,0.0845187174,-0.0140130208,-6.0824178060,2.7855224610,-0.6831970215
2.7569890022,-0.0228413086,0.0796359049,-0.0125481771,-6.4486287435,2.7855224610,-0.5611267090
2.7596969604,-0.0228413086,0.0796359049,-0.0125481771,-6.4486287435,2.7855224610,-0.5611267090
2.7623939514,-0.0228413086,0.0796359049,-0.0125481771,-6.8453572592,2.8160400391,-0.4695739746
2.7650878429,-0.0228413086,0.0796359049,-0.0125481771,-6.8453572592,2.8160400391,-0.4695739746
2.7677879333,-0.0228413086,0.0864718424,-0.0022942708,-7.1200154623,3.2738037110,-0.4085388183
2.7703549862,-0.0228413086,0.0864718424,-0.0022942708,-7.1200154623,3.2738037110,-0.4085388183
2.7729158401,-0.0228413086,0.0864718424,-0.0022942708,-7.1200154623,3.6400146485,-0.3627624512
2.7754819393,-0.0228413086,0.0864718424,-0.0022942708,-7.3946736654,3.6400146485,-0.3627624512
2.7780909538,-0.0130756836,0.1040499674,-0.0057122396,-7.3946736654,7.5462646485,-0.5000915527
2.7806499004,-0.0130756836,0.1040499674,-0.0057122396,-7.4557088217,4.1893310547,-0.5000915527
2.7832179070,-0.0130756836,0.1040499674,-0.0057122396,-7.4557088217,4.1893310547,-0.5916442871
2.7857768536,-0.0130756836,0.1040499674,0.0045416666,-6.7538045248,4.1588134766,-0.5916442871
2.7884008884,-0.0067280274,0.1006319987,0.0045416666,-6.7538045248,4.1588134766,-0.5916442871
2.7909748554,-0.0067280274,0.1006319987,0.0045416666,-6.5859578451,4.3419189453,-0.2864685058
2.7935369015,-0.0067280274,0.1006319987,0.0045416666,-6.5859578451,4.3419189453,-0.2864685058
2.7961058617,-0.0067280274,0.1006319987,-0.0062005208,-6.6927693685,4.3266601563,-0.0118103027
2.7987978458,-0.0018452148,0.0908663737,-0.0062005208,-6.6927693685,4.3266601563,-0.0118103027
2.8016028404,-0.0018452148,0.0908663737,-0.0062005208,-6.9979451498,4.2503662110,-0.0423278808
2.8043060303,-0.0018452148,0.0908663737,-0.0062005208,-6.9979451498,4.2503662110,-0.0423278808
2.8069999218,0.0074321289,0.0913546549,0.0089361979,-6.8148396810,4.4334716797,-0.1491394043
2.8097088337,0.0074321289,0.0913546549,0.0089361979,-6.8148396810,4.4334716797,-0.1491394043
2.8124089241,0.0074321289,0.0913546549,0.0089361979,-6.6469930014,4.4182128906,-0.3475036621
2.8150990009,0.0074321289,0.0913546549,0.0089361979,-6.6469930014,4.4182128906,-0.3475036621
2.8178079128,0.0132915039,0.0894015299,0.0289557292,-5.9908650717,4.9217529297,-0.6221618652
2.8203718662,0.0132915039,0.0894015299,0.0289557292,-5.9908650717,4.9217529297,-0.6221618652
2.8229360580,0.0132915039,0.0894015299,0.0289557292,-4.9990437826,4.9675292969,-0.3475036621
2.8255069256,0.0132915039,0.0894015299,0.0289557292,-4.9990437826,4.9675292969,-0.3475036621
2.8281028271,0.0162211914,0.0937960611,0.0377447916,-4.8159383138,4.7996826172,-0.3932800293
2.8306670189,0.0162211914,0.0937960611,0.0377447916,-4.8159383138,4.7996826172,-0.3932800293
2.8332419395,0.0162211914,0.0937960611,0.0377447916,-4.4649861654,4.5555419922,-0.6374206543
2.8358049393,0.0162211914,0.0937960611,0.0377447916,-4.4649861654,4.5555419922,-0.6374206543
2.8384099007,0.0181743164,0.0986788737,0.0323736979,-3.8088582357,4.3876953125,-0.3627624512
2.8411059380,0.0181743164,0.0986788737,0.0323736979,-3.8088582357,4.3876953125,-0.3627624512
2.8438010216,0.0181743164,0.0986788737,0.0323736979,-3.5342000326,4.5097656250,-0.0728454590
2.8464989662,0.0181743164,0.0986788737,0.0323736979,-3.5342000326,4.5097656250,-0.0728454590
2.8492019176,0.0240336914,0.1035616861,0.0323736979,-3.5342000326,4.3724365235,-0.2101745605
2.8518998623,0.0240336914,0.1035616861,0.0323736979,-2.3745320638,4.3724365235,-0.2101745605
2.8549139500,0.0240336914,0.1035616861,0.0323736979,-1.9930623373,4.3876953125,-0.4237976074
2.8580439091,0.0250102539,0.0933077799,0.0353033854,-1.9930623373,4.3876953125,-0.4237976074
2.8607549667,0.0250102539,0.0933077799,0.0353033854,-2.1761678060,3.9604492188,-0.0728454590
2.8634560108,0.0250102539,0.0933077799,0.0353033854,-2.1761678060,3.9604492188,-0.0728454590
2.8662588596,0.0250102539,0.0933077799,0.0353033854,-2.2066853842,4.1282958985,0.0644836426
2.8689310551,0.0303813476,0.0908663737,0.0382330729,-2.2066853842,4.1282958985,0.0644836426
2.8714959621,0.0303813476,0.0908663737,0.0382330729,-1.2606404623,3.6857910156,-0.0423278808
2.8740708828,0.0303813476,0.0908663737,0.0382330729,-1.2606404623,3.6857910156,-0.0423278808
2.8766388893,0.0303813476,0.0908663737,0.0362799479,-1.1690877279,3.7468261719,0.1712951660
2.8793129921,0.0323344726,0.0869601237,0.0362799479,-1.1690877279,3.7468261719,0.1712951660
2.8820149899,0.0323344726,0.0869601237,0.0362799479,-1.0470174154,3.6552734375,0.1560363770
2.8847138882,0.0323344726,0.0869601237,0.0362799479,-1.0470174154,3.6552734375,0.1560363770
2.8874108791,0.0323344726,0.0918429361,0.0367682292,-0.3756306967,3.6094970703,0.0950012207
2.8900148869,0.0269633789,0.0918429361,0.0367682292,-0.3756306967,3.6094970703,0.0950012207
2.8925850391,0.0269633789,0.0918429361,0.0367682292,-0.3756306967,3.1212158203,0.0339660645
2.8951518536,0.0269633789,0.0918429361,0.0367682292,0.2042032877,3.1212158203,0.0339660645
2.8977198601,0.0362407226,0.1016085611,0.0343268229,0.2042032877,3.1212158203,0.0187072754
2.9003338814,0.0362407226,0.1016085611,0.0343268229,0.3720499674,2.7550048828,0.0187072754
2.9029090405,0.0362407226,0.1016085611,0.0343268229,0.3720499674,2.7550048828,-0.0423278808
2.9054780006,0.0362407226,0.1016085611,0.0343268229,0.5246378580,2.4193115235,-0.0423278808
2.9081969261,0.0303813476,0.0937960611,0.0289557292,0.5246378580,2.4193115235,-0.0423278808
2.9107708931,0.0303813476,0.0937960611,0.0289557292,0.5856730143,2.6176757813,0.0034484864
2.9133398533,0.0303813476,0.0937960611,0.0289557292,0.5856730143,2.6176757813,0.0034484864
2.9159150124,0.0303813476,0.0937960611,0.0289557292,0.6314493815,2.4803466797,0.1102600098
2.9185838699,0.0303813476,0.0933077799,0.0372565104,0.6314493815,2.4803466797,0.1102600098
2.9211509228,0.0303813476,0.0933077799,0.0372565104,0.5398966471,2.3277587891,0.0950012207
2.9237289429,0.0303813476,0.0933077799,0.0372565104,0.5398966471,2.3277587891,0.0950012207
2.9262979031,0.0303813476,0.0933077799,0.0372565104,0.7992960612,2.3887939453,0.2170715332
2.9290359020,0.0308696289,0.0952609049,0.0353033854,0.7992960612,2.3887939453,0.2170715332
2.9317350388,0.0308696289,0.0952609049,0.0353033854,1.3486124674,2.2209472656,0.1255187988
2.9344279766,0.0308696289,0.0952609049,0.0353033854,1.3486124674,2.2209472656,0.1255187988
2.9371278286,0.0308696289,0.0952609049,0.0401861979,1.6690470377,2.0988769532,0.1102600098
2.9398748875,0.0220805664,0.0854952799,0.0401861979,1.6690470377,2.0988769532,0.1102600098
2.9425690174,0.0220805664,0.0854952799,0.0401861979,2.3709513346,2.0225830078,0.0797424317
2.9452729225,0.0220805664,0.0854952799,0.0401861979,2.3709513346,2.0225830078,0.0797424317
2.9480140209,0.0220805664,0.0991671549,0.0284674479,2.7981974283,1.9615478516,-0.0881042480
2.9507088661,0.0181743164,0.0991671549,0.0284674479,2.7981974283,1.9615478516,-0.0881042480
2.9534130096,0.0181743164,0.0991671549,0.0284674479,3.0881144205,2.0531005860,-0.1491394043
2.9561090469,0.0181743164,0.0991671549,0.0284674479,3.0881144205,2.0531005860,-0.1491394043
2.9588549137,0.0211040039,0.0967257487,0.0196783854,3.7442423502,2.0531005860,-0.0118103027
2.9615519047,0.0211040039,0.0967257487,0.0196783854,3.7442423502,2.0531005860,-0.0118103027
2.9642479420,0.0211040039,0.0967257487,0.0196783854,4.3088175455,1.5343017578,0.1865539551
2.9669518471,0.0211040039,0.0967257487,0.0196783854,4.3088175455,1.5343017578,0.1865539551
2.9695758820,0.0103618164,0.0884249674,0.0196783854,5.0107218424,1.5953369141,-0.1033630371
2.9721369743,0.0103618164,0.0884249674,0.0196783854,5.0107218424,1.5953369141,-0.1033630371
2.9747738838,0.0103618164,0.0884249674,0.0196783854,5.1633097330,1.6105957032,0.1407775879
2.9774508476,0.0103618164,0.0884249674,0.0074713542,5.1633097330,1.6105957032,0.1407775879
2.9805078506,0.0142680664,0.0957491861,0.0074713542,5.3006388346,1.4580078125,0.4764709473
2.9832110405,0.0142680664,0.0957491861,0.0074713542,5.3006388346,1.4580078125,0.4764709473
2.9859080315,0.0142680664,0.0957491861,0.0074713542,5.3006388346,1.1986083985,0.3391418457
2.9886548519,0.0098735352,0.0869601237,0.0226080729,5.3006388346,1.1986083985,0.3391418457
2.9913539886,0.0098735352,0.0869601237,0.0226080729,5.7126261393,0.9849853516,0.4154357910
2.9941658974,0.0098735352,0.0869601237,0.0226080729,5.7126261393,0.9849853516,0.4154357910
2.9968669415,0.0098735352,0.0869601237,0.0226080729,5.5142618815,1.0155029297,0.0950012207
2.9995758533,0.0049907226,0.0923312174,0.0182135416,5.5142618815,1.0155029297,0.0950012207
3.0022809505,0.0049907226,0.0923312174,0.0182135416,5.5447794596,1.2443847656,0.0034484864
3.0049779415,0.0049907226,0.0923312174,0.0182135416,5.5447794596,1.2443847656,0.0034484864
3.0076749325,0.0049907226,0.0923312174,0.0182135416,6.4145304362,1.1833496094,-0.0118103027
3.0102658272,0.0064555664,0.1011202799,0.0177252604,6.4145304362,1.1833496094,-0.0118103027
3.0128319263,0.0064555664,0.1011202799,0.0177252604,6.2619425455,0.9849853516,-0.0423278808
3.0154018402,0.0064555664,0.1011202799,0.0177252604,6.2619425455,0.9849853516,-0.0423278808
3.0180249214,0.0064555664,0.1011202799,0.0123541666,6.0025431315,0.9239501953,0.0187072754
3.0205948353,0.0010844726,0.0991671549,0.0123541666,6.0025431315,0.9239501953,0.0187072754
3.0231668949,0.0010844726,0.0991671549,0.0123541666,6.0025431315,0.4661865235,-0.0881042480
3.0257339478,0.0010844726,0.0991671549,0.0123541666,5.7584025065,0.4661865235,-0.0881042480
3.0284409523,0.0010844726,0.0908663737,-0.0022942708,5.7584025065,0.4661865235,0.0950012207
3.0310168266,-0.0047749024,0.0908663737,-0.0022942708,5.1175333658,0.2525634766,0.0950012207
3.0335769653,-0.0047749024,0.0908663737,-0.0022942708,5.1175333658,0.2525634766,0.2018127442
3.0361449718,-0.0047749024,0.0908663737,-0.0022942708,5.0107218424,0.3441162110,0.2018127442
3.0388309956,-0.0047749024,0.0864718424,0.0079596354,5.0107218424,0.3441162110,0.2018127442
3.0414910316,-0.0081928711,0.0864718424,0.0079596354,5.3769327799,0.1762695313,0.0034484864
3.0441539288,-0.0081928711,0.0864718424,0.0079596354,5.3769327799,0.1762695313,0.0034484864
3.0468130112,-0.0081928711,0.0864718424,0.0079596354,5.2243448893,0.0999755860,0.1560363770
3.0495169163,-0.0091694336,0.0894015299,-0.0032708334,5.2243448893,0.0999755860,0.1560363770
3.0522170067,-0.0091694336,0.0894015299,-0.0032708334,5.3769327799,-0.1594238281,0.1865539551
3.0549118519,-0.0091694336,0.0894015299,-0.0032708334,5.3769327799,-0.1594238281,0.1865539551
3.0577158928,-0.0091694336,0.0894015299,-0.0032708334,5.2548624674,-0.3730468750,-0.2559509277
3.0604560375,-0.0052631836,0.0952609049,-0.0140130208,5.2548624674,-0.3730468750,-0.2559509277
3.0631539822,-0.0052631836,0.0952609049,-0.0140130208,5.3158976236,-0.1441650390,-0.0423278808
3.0658528805,-0.0052631836,0.0952609049,-0.0140130208,5.3158976236,-0.1441650390,-0.0423278808
3.0685338974,-0.0052631836,0.0952609049,-0.0110833334,5.3921915690,-0.3577880859,-0.0575866699
3.0710968971,-0.0120991211,0.0918429361,-0.0110833334,5.3921915690,-0.3577880859,-0.0575866699
3.0736629963,-0.0120991211,0.0918429361,-0.0110833334,5.7736612955,-0.4340820312,-0.2254333496
3.0762279034,-0.0120991211,0.0918429361,-0.0110833334,5.7736612955,-0.4340820312,-0.2254333496
3.0790278912,-0.0120991211,0.0928194987,-0.0091302084,6.1703898112,-0.8002929687,-0.5306091308
3.0817248821,-0.0150288086,0.0928194987,-0.0091302084,6.1703898112,-0.8002929687,-0.5306091308
3.0844218731,-0.0150288086,0.0928194987,-0.0091302084,6.1246134440,-1.0902099609,-0.6984558105
3.0871169567,-0.0150288086,0.0928194987,-0.0091302084,6.1246134440,-1.0902099609,-0.6984558105
3.0898518562,-0.0194233398,0.0864718424,-0.0062005208,5.8804728190,-1.1665039062,-0.5763854980
3.0925469398,-0.0194233398,0.0864718424,-0.0062005208,5.8804728190,-1.1665039062,-0.5763854980
3.0953109264,-0.0194233398,0.0864718424,-0.0062005208,6.0178019205,-1.5632324218,-0.6984558105
3.0988209248,-0.0194233398,0.0864718424,-0.0198723958,6.0178019205,-1.5632324218,-0.6984558105
3.1013929844,-0.0199116211,0.0908663737,-0.0198723958,6.3229777018,-1.5021972656,-0.7900085449
3.1039559841,-0.0199116211,0.0908663737,-0.0198723958,6.3229777018,-1.5021972656,-0.7900085449
3.1065208912,-0.0199116211,0.0908663737,-0.0198723958,5.8499552408,-1.3496093750,-0.4848327636
3.1091108322,-0.0199116211,0.0908663737,-0.0242669271,5.8499552408,-1.3496093750,-0.4848327636
3.1116719246,-0.0243061524,0.0903780924,-0.0242669271,5.4532267252,-1.6547851562,-0.6984558105
3.1142399311,-0.0243061524,0.0903780924,-0.0242669271,5.4532267252,-1.6547851562,-0.6984558105
3.1167979240,-0.0243061524,0.0903780924,-0.0242669271,5.8346964518,-1.8531494140,-0.7442321777
3.1194078922,-0.0243061524,0.0850069987,-0.0145013021,5.8346964518,-1.8531494140,-0.7442321777
3.1220719814,-0.0291889648,0.0850069987,-0.0145013021,5.2701212565,-2.0515136718,-0.3932800293
3.1246328354,-0.0291889648,0.0850069987,-0.0145013021,5.2701212565,-2.0515136718,-0.3932800293
3.1272070408,-0.0291889648,0.0850069987,-0.0145013021,5.1022745768,-2.0209960937,-0.5458679199
3.1298258305,-0.0257709961,0.0884249674,-0.0223138021,5.1022745768,-2.0209960937,-0.5458679199
3.1323828697,-0.0257709961,0.0884249674,-0.0223138021,4.6750284830,-2.0820312500,-0.6526794433
3.1349508762,-0.0257709961,0.0884249674,-0.0223138021,4.6750284830,-2.0820312500,-0.6526794433
3.1375088692,-0.0257709961,0.0884249674,-0.0223138021,4.6750284830,-2.3872070312,-0.7289733886
3.1400809288,-0.0272358398,0.0918429361,-0.0193841146,3.9883829752,-2.3872070312,-0.7289733886
3.1426439285,-0.0272358398,0.0918429361,-0.0193841146,3.9883829752,-2.3872070312,-0.7137145996
3.1452050209,-0.0272358398,0.0918429361,-0.0193841146,4.3393351236,-2.8907470703,-0.7137145996
3.1479079723,-0.0272358398,0.0918429361,-0.0193841146,4.3393351236,-2.8907470703,-0.5916442871
3.1504738331,-0.0277241211,0.0947726237,-0.0159661458,4.6750284830,-2.8297119140,-0.5916442871
3.1530358791,-0.0277241211,0.0947726237,-0.0159661458,4.6750284830,-2.8297119140,-0.5916442871
3.1555998325,-0.0277241211,0.0947726237,-0.0159661458,3.9273478190,-2.6771240234,-0.9731140136
3.1582980156,-0.0277241211,0.0947726237,-0.0159661458,3.9273478190,-2.6771240234,-0.9731140136
3.1608719826,-0.0252827148,0.0903780924,-0.0198723958,4.1257120768,-2.9060058594,-0.7289733886
3.1634368896,-0.0252827148,0.0903780924,-0.0198723958,4.1257120768,-2.9060058594,-0.7289733886
3.1659939289,-0.0252827148,0.0903780924,-0.0198723958,4.2935587565,-2.9670410156,-0.9425964355
3.1685609818,-0.0252827148,0.0903780924,-0.0198723958,4.2935587565,-2.9670410156,-0.9425964355
3.1711230278,-0.0296772461,0.0923312174,-0.0169427084,4.4308878580,-3.1654052734,-0.9425964355
3.1736798286,-0.0296772461,0.0923312174,-0.0169427084,4.4308878580,-3.1654052734,-0.9425964355
3.1762459278,-0.0296772461,0.0923312174,-0.0169427084,4.3393351236,-3.3332519531,-0.7442321777
3.1789119244,-0.0296772461,0.0923312174,-0.0169427084,4.3393351236,-3.3332519531,-0.7442321777
3.1816110611,-0.0228413086,0.0874484049,-0.0218255208,4.1562296549,-3.3942871094,-0.6069030762
3.1843090057,-0.0228413086,0.0874484049,-0.0218255208,4.1562296549,-3.3942871094,-0.6069030762
3.1871149540,-0.0228413086,0.0874484049,-0.0218255208,3.9426066080,-3.6384277344,-0.5306091308
3.1898658276,-0.0228413086,0.0874484049,-0.0130364584,3.9426066080,-3.6384277344,-0.5306091308
3.1925659180,-0.0194233398,0.0874484049,-0.0130364584,3.9426066080,-3.8215332031,-0.6679382324
3.1952638626,-0.0194233398,0.0874484049,-0.0130364584,3.9426066080,-3.8215332031,-0.6679382324
3.1980118752,-0.0194233398,0.0874484049,-0.0130364584,4.2172648112,-3.7910156250,-0.8815612793
3.2007050514,-0.0228413086,0.0952609049,-0.0120598958,4.2172648112,-3.7910156250,-0.8815612793
3.2034008503,-0.0228413086,0.0952609049,-0.0120598958,4.0341593424,-4.1114501953,-0.5611267090
3.2061040401,-0.0228413086,0.0952609049,-0.0120598958,4.0341593424,-4.1114501953,-0.5611267090
3.2088170052,-0.0228413086,0.0952609049,-0.0120598958,3.7137247721,-3.8825683594,-0.8968200683
3.2115230560,-0.0247944336,0.0923312174,-0.0125481771,3.7137247721,-3.8825683594,-0.8968200683
3.2142870426,-0.0247944336,0.0923312174,-0.0125481771,4.1867472330,-4.0351562500,-1.0341491699
3.2169828415,-0.0247944336,0.0923312174,-0.0125481771,4.1867472330,-4.0351562500,-1.0341491699
3.2200009823,-0.0247944336,0.0923312174,-0.0140130208,4.0189005533,-4.5386962890,-0.8968200683
3.2225680351,-0.0169819336,0.0850069987,-0.0140130208,4.0189005533,-4.5386962890,-0.8968200683
3.2251439095,-0.0169819336,0.0850069987,-0.0140130208,3.6984659830,-4.4318847656,-1.0494079590
3.2277019024,-0.0169819336,0.0850069987,-0.0140130208,3.6984659830,-4.4318847656,-1.0494079590
3.2303979397,-0.0169819336,0.0952609049,-0.0135247396,3.7442423502,-4.5234375000,-1.0494079590
3.2331008911,-0.0164936524,0.0952609049,-0.0135247396,3.7442423502,-4.5234375000,-1.0494079590
3.2357928753,-0.0164936524,0.0952609049,-0.0135247396,4.0494181315,-4.6912841797,-0.9273376465
3.2384998798,-0.0164936524,0.0952609049,-0.0135247396,4.0494181315,-4.6912841797,-0.9273376465
3.2411999702,-0.0135639648,0.0879366861,-0.0120598958,3.8357950846,-4.8743896484,-1.1104431152
3.2438988686,-0.0135639648,0.0879366861,-0.0120598958,3.8357950846,-4.8743896484,-1.1104431152
3.2465989590,-0.0135639648,0.0879366861,-0.0120598958,3.6679484049,-4.9354248047,-1.1104431152
3.2492389679,-0.0135639648,0.0879366861,-0.0120598958,3.6679484049,-4.9354248047,-1.1104431152
3.2519068718,-0.0199116211,0.0898898111,-0.0174309896,3.6679484049,-4.8133544922,-1.0494079590
3.2544720173,-0.0199116211,0.0898898111,-0.0174309896,3.4238077799,-4.8133544922,-1.0494079590
3.2570378780,-0.0199116211,0.0898898111,-0.0174309896,3.4238077799,-4.8133544922,-0.9883728027
3.2596249580,-0.0199116211,0.0898898111,-0.0174309896,3.2559611002,-4.5539550781,-0.9883728027
3.2621929646,-0.0120991211,0.0942843424,-0.0022942708,3.2559611002,-4.5539550781,-0.9578552246
3.2647550106,-0.0120991211,0.0942843424,-0.0022942708,3.0881144205,-4.7828369140,-0.9578552246
3.2673239708,-0.0120991211,0.0942843424,-0.0022942708,3.0881144205,-4.7828369140,-0.9578552246
3.2699320316,-0.0120991211,0.0942843424,-0.0022942708,2.9507853190,-4.9964599609,-0.8663024902
3.2724959850,-0.0077045898,0.0908663737,-0.0120598958,2.9507853190,-4.9964599609,-0.8663024902
3.2750680447,-0.0077045898,0.0908663737,-0.0120598958,2.9507853190,-5.1795654297,-1.1867370605
3.2776319981,-0.0077045898,0.0908663737,-0.0120598958,2.9507853190,-5.1795654297,-1.1867370605
3.2804079056,-0.0077045898,0.0908663737,-0.0101067708,3.1033732096,-5.1185302734,-1.2172546386
3.2831058502,-0.0145405274,0.0903780924,-0.0101067708,3.1033732096,-5.1185302734,-1.2172546386
3.2857508659,-0.0145405274,0.0903780924,-0.0101067708,2.9660441080,-4.7370605468,-1.0799255371
3.2884218693,-0.0145405274,0.0903780924,-0.0101067708,2.9660441080,-4.7370605468,-1.0799255371
3.2910759449,-0.0145405274,0.0898898111,-0.0027825521,3.0270792643,-4.9812011718,-1.5529479980
3.2942850590,-0.0125874024,0.0898898111,-0.0027825521,3.0270792643,-4.9812011718,-1.5529479980
3.2968499660,-0.0125874024,0.0898898111,-0.0027825521,3.4238077799,-5.1643066406,-1.7055358886
3.2994599342,-0.0125874024,0.0898898111,-0.0027825521,3.4238077799,-5.1643066406,-1.7055358886
3.3020219803,-0.0120991211,0.0913546549,-0.0071770834,3.0423380533,-4.9049072265,-1.5224304199
3.3047640324,-0.0120991211,0.0913546549,-0.0071770834,3.0423380533,-4.9049072265,-1.5224304199
3.3073248863,-0.0120991211,0.0913546549,-0.0071770834,2.8744913736,-4.8133544922,-1.4461364746
3.3098950386,-0.0120991211,0.0913546549,-0.0071770834,2.8744913736,-4.8133544922,-1.4461364746
3.3124530315,-0.0086811524,0.0840304361,-0.0032708334,3.1949259440,-4.8286132812,-1.3698425293
3.3152470589,-0.0086811524,0.0840304361,-0.0032708334,3.1949259440,-4.8286132812,-1.3698425293
3.3178219795,-0.0086811524,0.0840304361,-0.0032708334,3.2101847330,-4.2487792968,-1.6292419433
3.3203868866,-0.0086811524,0.0840304361,-0.0032708334,3.2101847330,-4.2487792968,-1.6292419433
3.3229498863,-0.0120991211,0.0908663737,-0.0081536458,2.9965616862,-4.3098144531,-1.6445007324
3.3256349564,-0.0120991211,0.0908663737,-0.0081536458,2.9965616862,-4.3098144531,-1.6445007324
3.3282618523,-0.0120991211,0.0908663737,-0.0081536458,2.8897501627,-4.4318847656,-1.5529479980
3.3308269978,-0.0120991211,0.0908663737,-0.0066888021,2.8897501627,-4.4318847656,-1.5529479980
3.3333868980,-0.0081928711,0.0894015299,-0.0066888021,2.8897501627,-4.3403320312,-1.4003601074
3.3360748291,-0.0081928711,0.0894015299,-0.0066888021,3.0423380533,-4.3403320312,-1.4003601074
3.3388059139,-0.0081928711,0.0894015299,-0.0066888021,3.0423380533,-4.3403320312,-1.4613952636
3.3413689137,-0.0081928711,0.0967257487,-0.0086419271,2.8134562174,-4.0046386718,-1.4613952636
3.3439259529,-0.0130756836,0.0967257487,-0.0086419271,2.8134562174,-4.0046386718,-1.4308776855
3.3465678692,-0.0130756836,0.0967257487,-0.0086419271,2.7066446940,-3.5926513672,-1.4308776855
3.3491680622,-0.0130756836,0.0967257487,-0.0086419271,2.7066446940,-3.5926513672,-1.4308776855
3.3517329693,-0.0130756836,0.0874484049,-0.0091302084,2.7371622721,-3.5621337890,-1.4156188965
3.3542940617,-0.0223530274,0.0874484049,-0.0091302084,2.7371622721,-3.5621337890,-1.4156188965
3.3570039272,-0.0223530274,0.0874484049,-0.0091302084,2.7829386393,-3.3179931640,-1.1867370605
3.3596179485,-0.0223530274,0.0874484049,-0.0091302084,2.7829386393,-3.3179931640,-1.1867370605
3.3621778488,-0.0199116211,0.0903780924,-0.0057122396,2.3404337565,-3.3332519531,-1.1562194824
3.3648178577,-0.0199116211,0.0903780924,-0.0057122396,2.3404337565,-3.3332519531,-1.1562194824
3.3673899174,-0.0199116211,0.0903780924,-0.0057122396,2.3556925455,-3.3027343750,-1.0036315918
