# time_stamp before, Acceleration x, Acceleration y, Acceleration z, Gyro x, Gyro y, Gyro z
0.0000000000,-0.1397320963,0.0027283529,-0.0324485677,4.2026519776,4.5095062255,17.6055603027
0.0026960373,-0.1451031901,-0.0045958659,-0.0304954427,4.2026519776,4.5095062255,17.6055603027
0.0053911209,-0.1451031901,-0.0045958659,-0.0304954427,5.4538726807,4.0822601318,18.5821228027
0.0081431866,-0.1451031901,-0.0045958659,-0.0304954427,5.4538726807,4.0822601318,18.5821228027
0.0108389854,-0.1451031901,-0.0045958659,-0.0304954427,6.6135406494,4.0822601318,19.4518737793
0.0135362148,-0.1382672526,-0.0036193034,-0.0470970052,6.6135406494,4.0822601318,19.4518737793
0.0162281990,-0.1382672526,-0.0036193034,-0.0470970052,7.2849273682,4.4637298583,20.7183532715
0.0190181732,-0.1382672526,-0.0036193034,-0.0470970052,7.2849273682,4.4637298583,20.7183532715
0.0215849876,-0.1382672526,-0.0036193034,-0.0451438802,8.2157135010,4.4179534912,21.9085388183
0.0241479874,-0.1431500651,-0.0070372721,-0.0451438802,8.2157135010,4.4179534912,21.9085388183
0.0267181396,-0.1431500651,-0.0070372721,-0.0451438802,9.5432281494,4.3111419677,23.6480407715
0.0293991566,-0.1431500651,-0.0070372721,-0.0451438802,9.5432281494,4.3111419677,23.6480407715
0.0319650173,-0.1431500651,-0.0070372721,-0.0524680990,10.1993560791,5.1351165771,25.1891784668
0.0354051590,-0.1490094401,-0.0260802409,-0.0524680990,10.1993560791,5.1351165771,25.1891784668
0.0380821228,-0.1490094401,-0.0260802409,-0.0524680990,10.4740142822,6.0659027099,27.0049743652
0.0407559872,-0.1490094401,-0.0260802409,-0.0524680990,10.4740142822,6.0659027099,27.0049743652
0.0434191227,-0.1636578776,-0.0397521159,-0.0446555990,10.7791900635,6.6457366943,29.0954284668
0.0460910797,-0.1636578776,-0.0397521159,-0.0446555990,10.7791900635,6.6457366943,29.0954284668
0.0487940311,-0.1636578776,-0.0397521159,-0.0446555990,10.6266021729,6.5389251709,31.3079528808
0.0514872074,-0.1636578776,-0.0397521159,-0.0446555990,10.6266021729,6.5389251709,31.3079528808
0.0543401241,-0.1748883463,-0.0382872721,-0.0441673177,10.0772857666,6.6304779052,33.1542663574
0.0570321083,-0.1748883463,-0.0382872721,-0.0441673177,10.0772857666,6.6304779052,33.1542663574
0.0597209930,-0.1748883463,-0.0382872721,-0.0441673177,9.4821929932,6.6762542724,35.7177429199
0.0624501705,-0.1748883463,-0.0343810221,-0.0392845052,9.4821929932,6.6762542724,35.7177429199
0.0651562214,-0.1870953776,-0.0343810221,-0.0392845052,9.8178863526,6.4473724365,37.8387145996
0.0678491592,-0.1870953776,-0.0343810221,-0.0392845052,9.8178863526,6.4473724365,37.8387145996
0.0704281330,-0.1870953776,-0.0343810221,-0.0392845052,10.2451324463,6.5236663818,40.1427917480
0.0730001926,-0.1861188151,-0.0338927409,-0.0358665364,10.2451324463,6.5236663818,40.1427917480
0.0755770206,-0.1861188151,-0.0338927409,-0.0358665364,10.3214263916,6.5999603271,42.2942810058
0.0782611370,-0.1861188151,-0.0338927409,-0.0358665364,10.3214263916,6.5999603271,42.2942810058
0.0808341503,-0.1861188151,-0.0338927409,-0.0358665364,10.3824615479,5.6996917724,44.7204284668
0.0834181309,-0.1929547526,-0.0348693034,-0.0417259114,10.3824615479,5.6996917724,44.7204284668
0.0859971046,-0.1929547526,-0.0348693034,-0.0417259114,10.3824615479,5.6386566162,46.6888122558
0.0887160301,-0.1929547526,-0.0348693034,-0.0417259114,10.5045318604,5.6386566162,46.6888122558
0.0914130211,-0.1929547526,-0.0348693034,-0.0417259114,10.5045318604,5.0130462646,48.3825378418
0.0941011906,-0.2119977213,-0.0417052409,-0.0241477864,10.8402252197,5.0130462646,48.3825378418
0.0967922211,-0.2119977213,-0.0417052409,-0.0241477864,10.8402252197,4.1585540771,51.3427429199
0.0995311737,-0.2119977213,-0.0417052409,-0.0241477864,10.7181549072,4.1585540771,51.3427429199
0.1022191048,-0.2119977213,-0.0417052409,-0.0241477864,10.7181549072,2.0833587646,53.9062194824
0.1049101353,-0.2383649089,-0.0827208659,-0.0270774740,9.4669342041,2.0833587646,53.9062194824
0.1076450348,-0.2383649089,-0.0827208659,-0.0270774740,9.4669342041,0.4048919677,56.1797790527
0.1103351116,-0.2383649089,-0.0827208659,-0.0270774740,8.5514068604,0.4048919677,56.1797790527
0.1130211353,-0.2383649089,-0.0485411784,-0.0143821614,8.5514068604,-0.5564117432,57.6598815918
0.1157040596,-0.2515485026,-0.0485411784,-0.0143821614,9.4516754150,-0.5564117432,57.6598815918
0.1185150146,-0.2515485026,-0.0485411784,-0.0143821614,9.4516754150,-1.4871978760,59.2315368652
0.1212060452,-0.2515485026,-0.0485411784,-0.0143821614,9.8636627197,-1.4871978760,59.2315368652
0.1238930225,-0.2710797526,0.0139588216,-0.0280540364,9.8636627197,-2.4942779541,60.4827575683
0.1265881062,-0.2710797526,0.0139588216,-0.0280540364,10.6418609619,-2.4942779541,60.4827575683
0.1293201447,-0.2710797526,0.0139588216,-0.0280540364,10.6418609619,-2.4942779541,61.3830261230
0.1320021152,-0.2710797526,0.0139588216,-0.0280540364,12.1219635010,-3.4555816651,61.3830261230
0.1346950531,-0.2857281901,0.0085877279,-0.0510032552,12.1219635010,-3.4555816651,62.3138122558
0.1373801231,-0.2857281901,0.0085877279,-0.0510032552,14.2276763916,-4.0201568604,62.3138122558
0.1400971413,-0.2857281901,0.0085877279,-0.0510032552,14.2276763916,-4.0201568604,63.2293395996
0.1427621841,-0.2857281901,0.0085877279,-0.0724876302,16.1808013916,-5.0882720948,63.2293395996
0.1457121372,-0.2945172526,0.0203064779,-0.0724876302,16.1808013916,-5.8512115479,64.0075378418
0.1486279964,-0.2945172526,0.0203064779,-0.0724876302,18.9426422119,-5.8512115479,64.0075378418
0.1513290405,-0.2945172526,0.0203064779,-0.0724876302,18.9426422119,-6.7209625245,64.8772888183
0.1540470123,-0.3116070963,0.0247010091,-0.0744407552,21.4450836182,-6.7209625245,64.8772888183
0.1567540169,-0.3116070963,0.0247010091,-0.0744407552,25.3513336182,-6.7819976807,65.7775573730
0.1594660282,-0.3116070963,0.0247010091,-0.0744407552,23.8101959229,-6.7819976807,65.7775573730
0.1621770859,-0.3116070963,0.0247010091,-0.0744407552,23.8101959229,-6.3547515870,67.0287780761
0.1648821831,-0.3404156901,0.0134705403,-0.0734641927,25.7022857666,-6.3547515870,67.0287780761
0.1675879955,-0.3404156901,0.0134705403,-0.0734641927,25.7022857666,-6.1869049073,67.7459411621
0.1703040600,-0.3404156901,0.0134705403,-0.0734641927,26.4194488526,-6.1869049073,67.7459411621
0.1730101109,-0.3404156901,0.0134705403,-0.0495384114,26.4194488526,-5.4239654541,68.3715515137
0.1757261753,-0.3999860026,-0.0070372721,-0.0495384114,25.8548736572,-5.4239654541,68.3715515137
0.1784050465,-0.3999860026,-0.0070372721,-0.0495384114,25.8548736572,-5.2103424073,70.1568298340
0.1809811592,-0.3999860026,-0.0070372721,-0.0495384114,25.9159088135,-5.2103424073,70.1568298340
0.1836810112,-0.3999860026,-0.0148497721,-0.0221946614,25.9159088135,-5.2103424073,71.3927917480
0.1862571239,-0.4370953776,-0.0148497721,-0.0221946614,25.7633209229,-4.6915435791,71.3927917480
0.1888811588,-0.4370953776,-0.0148497721,-0.0221946614,25.7633209229,-4.6915435791,72.3388366699
0.1914629936,-0.4370953776,-0.0148497721,-0.0221946614,20.8805084229,-4.2032623291,72.3388366699
0.1940381527,-0.4370953776,-0.0690489909,0.0114967448,20.8805084229,-4.2032623291,72.3388366699
0.1966180801,-0.4707867839,-0.0690489909,0.0114967448,10.7944488526,-3.1504058838,72.7050476074
0.1993880272,-0.4707867839,-0.0690489909,0.0114967448,10.7944488526,-3.1504058838,72.7050476074
0.2019581795,-0.4707867839,-0.0690489909,0.0114967448,4.4315338135,-2.8299713135,72.5524597168
0.2045340538,-0.4825055339,-0.0885802409,0.0266334636,4.4315338135,-2.8299713135,72.5524597168
0.2071001530,-0.4825055339,-0.0885802409,0.0266334636,0.4337310791,-2.3569488526,73.2391052246
0.2098920345,-0.4825055339,-0.0885802409,0.0266334636,0.4337310791,-2.3569488526,73.2391052246
0.2125971317,-0.4825055339,-0.0885802409,0.0266334636,-0.2681732178,-2.2196197510,75.1769714355
0.2152991295,-0.4117047526,-0.0241271159,0.0549537760,-0.2681732178,-2.2196197510,75.1769714355
0.2180011272,-0.4117047526,-0.0241271159,0.0549537760,2.8141021729,-2.3722076417,76.9775085449
0.2205741405,-0.4117047526,-0.0241271159,0.0549537760,2.8141021729,-2.3722076417,76.9775085449
0.2231431007,-0.4117047526,-0.0241271159,0.0549537760,7.3459625244,-2.0517730713,78.7475280761
0.2258150578,-0.3521344401,0.0383728841,0.0993873698,7.3459625244,-2.0517730713,78.7475280761
0.2286159992,-0.3521344401,0.0383728841,0.0993873698,10.4434967041,-2.2653961182,80.5175476074
0.2312819958,-0.3521344401,0.0383728841,0.0993873698,10.4434967041,-2.2653961182,80.5175476074
0.2346010208,-0.2784039713,0.0139588216,0.1023170573,12.7475738526,-4.0048980713,79.5867614746
0.2371671200,-0.2784039713,0.0139588216,0.1023170573,12.7475738526,-4.0048980713,79.5867614746
0.2397379875,-0.2784039713,0.0139588216,0.1023170573,13.3731842041,-5.8512115479,78.0151062011
0.2423031330,-0.2784039713,0.0139588216,0.1023170573,13.3731842041,-5.8512115479,78.0151062011
0.2448680401,-0.2251813151,-0.0788146159,0.1462623698,12.3355865479,-8.5367584229,74.7649841308
0.2475612164,-0.2251813151,-0.0788146159,0.1462623698,12.3355865479,-8.5367584229,74.7649841308
0.2501320839,-0.2251813151,-0.0788146159,0.1462623698,16.8521881104,-11.0391998291,68.0511169433
0.2527041435,-0.2251813151,-0.0788146159,0.1462623698,16.8521881104,-11.0391998291,68.0511169433
0.2552661896,-0.1744000651,-0.0851622721,0.0798561198,24.7867584229,-12.2904205323,62.7715759277
0.2578420639,-0.1744000651,-0.0851622721,0.0798561198,24.7867584229,-12.2904205323,62.7715759277
0.2604191303,-0.1744000651,-0.0851622721,0.0798561198,35.3305816650,-13.2669830323,62.2832946777
0.2629899979,-0.1744000651,-0.0851622721,0.0798561198,35.3305816650,-13.2669830323,62.2832946777
0.2655601501,-0.1651227213,0.1755799153,0.0046608073,35.3305816650,-15.0827789307,58.1634216308
0.2681682110,-0.1651227213,0.1755799153,0.0046608073,49.3991851807,-15.0827789307,58.1634216308
0.2707390785,-0.1651227213,0.1755799153,0.0046608073,49.3991851807,-15.0827789307,48.1689147949
0.2733120918,-0.1651227213,0.1755799153,0.0046608073,62.2165679932,-15.6168365479,48.1689147949
0.2758810520,-0.1949078776,-0.0988341471,0.0139381510,62.2165679932,-15.6168365479,39.0899353027
0.2786271572,-0.1949078776,-0.0988341471,0.0139381510,69.0830230713,-16.5323638917,39.0899353027
0.2812001705,-0.1949078776,-0.0988341471,0.0139381510,69.0830230713,-16.5323638917,35.1836853027
0.2837760448,-0.1949078776,-0.0988341471,0.0139381510,68.3353424072,-18.1497955323,32.5133972168
0.2863450050,-0.2056500651,-0.2819396159,-0.0221946614,68.3353424072,-18.1497955323,32.5133972168
0.2890450954,-0.2056500651,-0.2819396159,-0.0221946614,62.1555328369,-19.9198150635,27.6763610840
0.2916131020,-0.2056500651,-0.2819396159,-0.0221946614,62.1555328369,-19.9198150635,27.6763610840
0.2941861153,-0.2056500651,-0.2819396159,-0.0221946614,53.3512115479,-21.3236236573,23.9074401855
0.2967591286,-0.2281110026,-0.2360411784,-0.0309837240,53.3512115479,-21.3236236573,23.9074401855
0.2993421555,-0.2281110026,-0.2360411784,-0.0309837240,46.3169097900,-21.9187164307,20.2605895996
0.3019161224,-0.2281110026,-0.2360411784,-0.0309837240,46.3169097900,-21.9187164307,20.2605895996
0.3044860363,-0.2281110026,-0.2360411784,-0.0495384114,42.1512603760,-22.1170806885,16.5221862793
0.3070600033,-0.2344586589,-0.1515685221,-0.0495384114,42.1512603760,-22.1170806885,16.5221862793
0.3099050522,-0.2344586589,-0.1515685221,-0.0495384114,37.4515533447,-22.7274322510,12.3717956543
0.3126120567,-0.2344586589,-0.1515685221,-0.0495384114,37.4515533447,-22.7274322510,12.3717956543
0.3153131008,-0.2344586589,-0.1437560221,-0.0724876302,33.0265045166,-24.2380523682,8.7249450683
0.3180100918,-0.2007672526,-0.1437560221,-0.0724876302,33.0265045166,-24.2380523682,8.7249450683
0.3205850124,-0.2007672526,-0.1437560221,-0.0724876302,27.0298004150,-24.7873687745,5.1849060058
0.3231611252,-0.2007672526,-0.1437560221,-0.0724876302,27.0298004150,-24.7873687745,5.1849060058
0.3257360458,-0.1592633463,-0.1872130534,-0.0827415364,22.2080230713,-26.0080718995,1.4007263183
0.3286521435,-0.1592633463,-0.1872130534,-0.0827415364,22.2080230713,-26.0080718995,1.4007263183
0.3313271999,-0.1592633463,-0.1872130534,-0.0827415364,16.6538238526,-26.2216949463,-3.6194152832
0.3345270157,-0.1592633463,-0.1872130534,-0.0827415364,16.6538238526,-26.2216949463,-3.6194152832
0.3371031284,-0.1363141276,-0.2028380534,-0.1012962240,10.9165191650,-25.8554840088,-8.2123107910
0.3398170471,-0.1363141276,-0.2028380534,-0.1012962240,10.9165191650,-25.8554840088,-8.2123107910
0.3423891068,-0.1363141276,-0.2028380534,-0.1012962240,4.9655914307,-26.7710113526,-12.1033020020
0.3449602127,-0.1363141276,-0.2028380534,-0.0954368490,4.9655914307,-26.7710113526,-12.1033020020
0.3475210667,-0.0904156901,-0.1877013347,-0.0954368490,0.0217437744,-26.7404937745,-16.2536926270
0.3500890732,-0.0904156901,-0.1877013347,-0.0954368490,0.0217437744,-26.7404937745,-16.2536926270
0.3526551723,-0.0904156901,-0.1877013347,-0.0954368490,0.0217437744,-26.3285064698,-20.9991760254
0.3552210331,-0.0904156901,-0.1877013347,-0.1115501302,-3.2741546631,-26.3285064698,-20.9991760254
0.3578071594,-0.0738141276,-0.1442443034,-0.1115501302,-3.2741546631,-26.3285064698,-26.2787170410
0.3603851795,-0.0738141276,-0.1442443034,-0.1115501302,-5.3188323974,-27.0609283448,-26.2787170410
0.3629591465,-0.0738141276,-0.1442443034,-0.1115501302,-5.3188323974,-27.0609283448,-34.0912170410
0.3655340672,-0.0738141276,-0.0749083659,-0.0949485677,-6.9362640381,-27.1982574463,-31.0394592285
0.3681662083,-0.0752789713,-0.0749083659,-0.0949485677,-6.9362640381,-27.1982574463,-31.0394592285
0.3707392216,-0.0752789713,-0.0749083659,-0.0949485677,-5.7613372803,-27.4271392823,-35.9375305176
0.3734052181,-0.0752789713,-0.0749083659,-0.0949485677,-5.7613372803,-27.4271392823,-35.9375305176
0.3759801388,-0.1104352213,-0.0329161784,-0.0929954427,-4.7695159912,-26.9846343995,-40.3320617676
0.3786411285,-0.1104352213,-0.0329161784,-0.0929954427,-4.7695159912,-26.9846343995,-40.3320617676
0.3812141418,-0.1104352213,-0.0329161784,-0.0929954427,-3.0910491943,-26.7557525635,-44.8334045410
0.3837840557,-0.1104352213,-0.0329161784,-0.0929954427,-3.0910491943,-26.7557525635,-44.8334045410
0.3863580227,-0.1245953776,-0.0211974284,-0.0866477864,-0.6954193115,-26.8625640870,-49.1669006348
0.3891000748,-0.1245953776,-0.0211974284,-0.0866477864,-0.6954193115,-26.8625640870,-49.1669006348
0.3916800022,-0.1245953776,-0.0211974284,-0.0866477864,1.8375396729,-27.1677398682,-53.5309143067
0.3942501545,-0.1245953776,-0.0211974284,-0.0866477864,1.8375396729,-27.1677398682,-53.5309143067
0.3968172073,-0.1460797526,-0.0309630534,-0.0910423177,4.4773101807,-26.3895416260,-57.6202697754
0.3994531631,-0.1460797526,-0.0309630534,-0.0910423177,4.4773101807,-26.3895416260,-57.6202697754
0.4020211697,-0.1460797526,-0.0309630534,-0.0910423177,6.7813873291,-25.8249664307,-60.8703918457
0.4045832157,-0.1460797526,-0.0309630534,-0.0910423177,6.7813873291,-25.8249664307,-60.8703918457
0.4071581364,-0.1416852213,-0.0373107097,-0.0993430990,6.7813873291,-25.5503082276,-64.0899963379
0.4097321033,-0.1416852213,-0.0373107097,-0.0993430990,8.0783843994,-25.5503082276,-64.0899963379
0.4123101234,-0.1416852213,-0.0373107097,-0.0993430990,8.0783843994,-21.6440582276,-67.2638244629
0.4148821831,-0.1416852213,-0.0373107097,-0.0993430990,8.7497711182,-24.8026275635,-67.2638244629
0.4174761772,-0.1333844401,-0.0343810221,-0.1081321614,8.7497711182,-24.8026275635,-70.2240295410
0.4200561047,-0.1333844401,-0.0343810221,-0.1081321614,9.2533111572,-24.6042633057,-70.2240295410
0.4226231575,-0.1333844401,-0.0343810221,-0.1081321614,9.2533111572,-24.6042633057,-70.2240295410
0.4251971245,-0.1333844401,-0.0343810221,-0.1081321614,10.7334136963,-24.8178863526,-73.3063049317
0.4277791977,-0.1050641276,0.0032166341,-0.1178977864,10.7334136963,-24.8178863526,-73.3063049317
0.4303550720,-0.1050641276,0.0032166341,-0.1178977864,12.3661041260,-24.4974517823,-76.2512512207
0.4329371452,-0.1050641276,0.0032166341,-0.1178977864,12.3661041260,-24.4974517823,-76.2512512207
0.4355111122,-0.1050641276,0.0032166341,-0.1178977864,13.0527496338,-24.0396881104,-79.1809387207
0.4382932186,-0.0869977213,0.0100525716,-0.1076438802,13.0527496338,-24.0396881104,-79.1809387207
0.4408721924,-0.0869977213,0.0100525716,-0.1076438802,13.5257720947,-23.9023590088,-81.6681213379
0.4435491562,-0.0869977213,0.0100525716,-0.1076438802,13.5257720947,-23.9023590088,-81.6681213379
0.4461541176,-0.0869977213,0.0100525716,-0.1135032552,13.8156890869,-24.7568511963,-84.1858215332
0.4489591122,-0.0791852213,0.0149353841,-0.1135032552,13.8156890869,-24.7568511963,-84.1858215332
0.4515371323,-0.0791852213,0.0149353841,-0.1135032552,13.2205963135,-24.9399566651,-86.5204162598
0.4541192055,-0.0791852213,0.0149353841,-0.1135032552,13.2205963135,-24.9399566651,-86.5204162598
0.4566950798,-0.0791852213,0.0354431966,-0.1120384114,12.2592926026,-25.1383209229,-89.0075988770
0.4593009949,-0.0850445963,0.0354431966,-0.1120384114,12.2592926026,-25.1383209229,-89.0075988770
0.4618721008,-0.0850445963,0.0354431966,-0.1120384114,11.5421295166,-25.3977203370,-90.9759826660
0.4644451141,-0.0850445963,0.0354431966,-0.1120384114,11.5421295166,-25.3977203370,-90.9759826660
0.4670221806,-0.0811383463,0.0413025716,-0.1071555990,7.6358795166,-26.2216949463,-92.4255676270
0.4696362019,-0.0811383463,0.0413025716,-0.1071555990,9.8484039307,-26.2216949463,-92.4255676270
0.4722070694,-0.0811383463,0.0413025716,-0.1071555990,9.8484039307,-26.2216949463,-93.7378234863
0.4747860432,-0.0811383463,0.0413025716,-0.1071555990,7.5595855713,-26.6794586182,-93.7378234863
0.4773590565,-0.0786969401,0.0290955403,-0.1110618490,7.5595855713,-26.6794586182,-95.3705139160
0.4799401760,-0.0786969401,0.0290955403,-0.1110618490,5.5454254150,-26.6794586182,-95.3705139160
0.4825181961,-0.0786969401,0.0290955403,-0.1110618490,5.5454254150,-26.6794586182,-95.3705139160
0.4850912094,-0.0786969401,0.0290955403,-0.1110618490,3.4091949463,-26.8015289307,-96.5912170410
0.4877262115,-0.0791852213,0.0222596029,-0.1105735677,3.4091949463,-26.8015289307,-96.5912170410
0.4903061390,-0.0791852213,0.0222596029,-0.1105735677,0.2353668213,-26.8625640870,-96.8048400879
0.4928820133,-0.0791852213,0.0222596029,-0.1105735677,0.2353668213,-26.8625640870,-96.8048400879
0.4954600334,-0.0791852213,0.0222596029,-0.1105735677,-2.4349212646,-26.5421295167,-97.4609680176
0.4980931282,-0.0772320963,0.0476502279,-0.1159446614,-2.4349212646,-26.5421295167,-97.4609680176
0.5007781982,-0.0772320963,0.0476502279,-0.1159446614,-5.5019378662,-26.5726470948,-98.3307189942
0.5033590794,-0.0772320963,0.0476502279,-0.1159446614,-5.5019378662,-26.5726470948,-98.3307189942
0.5059330463,-0.0772320963,0.0476502279,-0.1159446614,-7.7602386474,-26.4505767823,-98.6358947754
0.5086381435,-0.0752789713,0.0779236653,-0.1203391927,-7.7602386474,-26.4505767823,-98.6358947754
0.5112130642,-0.0752789713,0.0779236653,-0.1203391927,-8.9504241943,-25.9470367432,-99.5514221192
0.5137910843,-0.0752789713,0.0779236653,-0.1203391927,-8.9504241943,-25.9470367432,-99.5514221192
0.5163681507,-0.0752789713,0.0779236653,-0.1203391927,-9.6370697021,-25.3977203370,-100.1007385254
0.5189499855,-0.0694195963,0.0832947591,-0.1086204427,-9.6370697021,-25.3977203370,-100.1007385254
0.5215201378,-0.0694195963,0.0832947591,-0.1086204427,-9.6370697021,-25.0315093995,-100.4364318848
0.5240960121,-0.0694195963,0.0832947591,-0.1086204427,-9.8964691162,-25.0315093995,-100.4364318848
0.5266580582,-0.0694195963,0.0832947591,-0.1139915364,-9.8964691162,-25.0315093995,-101.1993713379
0.5293061733,-0.0650250651,0.0740174153,-0.1139915364,-10.8577728271,-24.1464996338,-101.1993713379
0.5319750309,-0.0650250651,0.0740174153,-0.1139915364,-10.8577728271,-24.1464996338,-101.4129943848
0.5345520973,-0.0650250651,0.0740174153,-0.1139915364,-11.4833831787,-23.0326080323,-101.4129943848
0.5371232033,-0.0650250651,0.0876892903,-0.1052024740,-11.4833831787,-23.0326080323,-101.2146301270
0.5397841930,-0.0772320963,0.0876892903,-0.1052024740,-12.0174407959,-22.0713043213,-101.2146301270
0.5423541069,-0.0772320963,0.0876892903,-0.1052024740,-12.0174407959,-21.1710357667,-100.6805725098
0.5457980633,-0.0772320963,0.0876892903,-0.1052024740,-12.8414154053,-21.1710357667,-100.6805725098
0.5483801365,-0.0630719401,0.0945252279,-0.1003196614,-12.8414154053,-21.1710357667,-99.9481506348
0.5509622097,-0.0630719401,0.0945252279,-0.1003196614,-13.4365081787,-20.2097320557,-99.9481506348
0.5535302162,-0.0630719401,0.0945252279,-0.1003196614,-13.4365081787,-20.2097320557,-99.9481506348
0.5560970306,-0.0630719401,0.0945252279,-0.1003196614,-13.9553070068,-18.9890289307,-99.7345275879
0.5587241650,-0.0723492839,0.0959900716,-0.0900657552,-13.9553070068,-18.9890289307,-99.7345275879
0.5612950325,-0.0723492839,0.0959900716,-0.0900657552,-14.6266937256,-17.4631500245,-99.1546936035
0.5639832020,-0.0723492839,0.0959900716,-0.0900657552,-14.6266937256,-17.4631500245,-99.1546936035
0.5665571690,-0.0723492839,0.0959900716,-0.0900657552,-15.9389495850,-16.0898590088,-98.1170959473
0.5692172050,-0.0772320963,0.0891541341,-0.0978782552,-15.9389495850,-16.0898590088,-98.1170959473
0.5718021393,-0.0772320963,0.0891541341,-0.0978782552,-17.9988861084,-14.5334625245,-96.9726867676
0.5743761063,-0.0772320963,0.0891541341,-0.0978782552,-17.9988861084,-14.5334625245,-96.9726867676
0.5769522190,-0.0772320963,0.0891541341,-0.0978782552,-20.0283050537,-13.4653472901,-95.5688781739
0.5795340538,-0.0694195963,0.0911072591,-0.0978782552,-20.0283050537,-13.4653472901,-95.5688781739
0.5821051598,-0.0694195963,0.0911072591,-0.0978782552,-22.0119476318,-12.8244781495,-94.0735168457
0.5846831799,-0.0694195963,0.0911072591,-0.0978782552,-22.0119476318,-12.8244781495,-94.0735168457
0.5872571468,-0.0694195963,0.0911072591,-0.0964134114,-25.2468109131,-11.4206695557,-92.6544494629
0.5899701118,-0.0620953776,0.0505799153,-0.0964134114,-25.2468109131,-11.4206695557,-92.6544494629
0.5925440788,-0.0620953776,0.0505799153,-0.0964134114,-27.9933929443,-10.4441070557,-90.6860656739
0.5951151848,-0.0620953776,0.0505799153,-0.0964134114,-27.9933929443,-10.4441070557,-90.6860656739
0.5978641510,-0.0620953776,0.0398377279,-0.1027610677,-27.9933929443,-9.8184967041,-88.5193176270
0.6004440784,-0.0440289713,0.0398377279,-0.1027610677,-31.3350677490,-9.8184967041,-88.5193176270
0.6030151844,-0.0440289713,0.0398377279,-0.1027610677,-31.3350677490,-8.1400299073,-87.1155090332
0.6055941582,-0.0440289713,0.0398377279,-0.1027610677,-33.8527679443,-8.1400299073,-87.1155090332
0.6081731319,0.0809710287,0.0427674153,-0.0895774740,-33.8527679443,-8.1400299073,-85.6354064942
0.6107401848,-0.0347516276,0.0427674153,-0.0895774740,-35.4091644287,-6.7667388917,-85.6354064942
0.6133120060,-0.0347516276,0.0427674153,-0.0895774740,-35.4091644287,-6.7667388917,-81.7291564942
0.6158812046,-0.0347516276,0.0427674153,-0.0895774740,-36.5840911865,-6.1563873291,-84.0027160645
0.6184990406,-0.0362164713,0.0784119466,-0.0851829427,-36.5840911865,-6.1563873291,-84.0027160645
0.6210741997,-0.0362164713,0.0784119466,-0.0851829427,-38.2778167724,-5.1950836182,-82.1716613770
0.6236410141,-0.0362164713,0.0784119466,-0.0851829427,-38.2778167724,-5.1950836182,-82.1716613770
0.6263251305,-0.0362164713,0.0784119466,-0.0851829427,-39.4374847412,-3.5318756104,-80.4474182129
0.6289072037,-0.0342633463,0.1038025716,-0.0602805990,-39.4374847412,-3.5318756104,-80.4474182129
0.6314790249,-0.0342633463,0.1038025716,-0.0602805990,-40.1241302490,-2.2348785401,-78.6773986817
0.6342160702,-0.0342633463,0.1038025716,-0.0602805990,-40.1241302490,-2.2348785401,-78.6773986817
0.6367850304,-0.0342633463,0.1038025716,-0.0602805990,-40.3682708740,-1.4871978760,-76.4801330567
0.6394901276,-0.0327985026,0.1013611653,-0.0529563802,-40.3682708740,-1.4871978760,-76.4801330567
0.6421620846,-0.0327985026,0.1013611653,-0.0529563802,-41.9399261474,-0.0833892823,-74.6338195801
0.6453480721,-0.0327985026,0.1013611653,-0.0529563802,-41.9399261474,-0.0833892823,-74.6338195801
0.6479890347,-0.0327985026,0.1013611653,-0.0456321614,-45.0222015381,0.8321380615,-73.1079406739
0.6505610943,-0.0381695963,0.0666931966,-0.0456321614,-45.0222015381,0.8321380615,-73.1079406739
0.6531291008,-0.0381695963,0.0666931966,-0.0456321614,-47.9366302490,1.7324066162,-71.2921447754
0.6557002068,-0.0381695963,0.0666931966,-0.0456321614,-47.9366302490,1.7324066162,-71.2921447754
0.6583211422,-0.0381695963,0.0764588216,-0.0353782552,-50.1796722412,2.7700042724,-69.2932434082
0.6608932018,-0.0186383463,0.0764588216,-0.0353782552,-50.1796722412,2.7700042724,-69.2932434082
0.6634600163,-0.0186383463,0.0764588216,-0.0353782552,-52.7278900146,2.8768157959,-67.7978820801
0.6660311222,-0.0186383463,0.0764588216,-0.0353782552,-52.7278900146,2.8768157959,-67.7978820801
0.6686069965,-0.0186383463,0.0920838216,-0.0197532552,-52.7278900146,3.3040618896,-65.7684631348
0.6711790562,-0.0284039713,0.0920838216,-0.0197532552,-55.1540374756,3.3040618896,-65.7684631348
0.6737511158,-0.0284039713,0.0920838216,-0.0197532552,-55.1540374756,3.3040618896,-63.6627502442
0.6763241291,-0.0284039713,0.0920838216,-0.0197532552,-56.7867279053,3.1667327880,-63.6627502442
0.6789121628,-0.0284039713,0.1272400716,-0.0002220052,-56.7867279053,3.1667327880,-61.4807434082
0.6814801693,-0.0259625651,0.1272400716,-0.0002220052,-57.2902679443,3.1972503662,-61.4807434082
0.6840519905,-0.0259625651,0.1272400716,-0.0002220052,-57.2902679443,3.1972503662,-57.5744934082
0.6866211891,-0.0259625651,0.1272400716,-0.0002220052,-56.2068939209,3.5024261474,-59.3750305176
0.6894960403,-0.0152203776,0.1384705403,0.0075904948,-56.2068939209,3.5024261474,-55.4687805176
0.6920821667,-0.0152203776,0.1384705403,0.0075904948,-53.7807464600,3.7923431396,-56.3537902832
0.6946570873,-0.0152203776,0.1384705403,0.0075904948,-53.7807464600,3.7923431396,-56.3537902832
0.6972332001,-0.0152203776,0.1384705403,0.0075904948,-50.6832122803,3.4566497802,-53.1647033692
0.6999511719,-0.0044781901,0.1208924153,0.0183326823,-50.6832122803,3.4566497802,-53.1647033692
0.7025220394,-0.0044781901,0.1208924153,0.0183326823,-47.3567962646,3.1362152099,-49.9908752442
0.7051041126,-0.0044781901,0.1208924153,0.0183326823,-47.3567962646,3.1362152099,-49.9908752442
0.7077331543,-0.0044781901,0.1208924153,0.0183326823,-43.9235687256,3.0446624755,-46.4660949707
0.7104361057,-0.0103375651,0.1052674153,0.0178444010,-43.9235687256,3.0446624755,-46.4660949707
0.7131361961,-0.0103375651,0.1052674153,0.0178444010,-41.5279388428,2.5716400146,-42.9565734863
0.7158420086,-0.0103375651,0.1052674153,0.0178444010,-41.5279388428,2.5716400146,-42.9565734863
0.7185621262,-0.0103375651,0.1052674153,0.0027076823,-38.6898040771,2.0986175537,-39.3402404785
0.7212672234,-0.0088727213,0.0881775716,0.0027076823,-38.6898040771,2.0986175537,-39.3402404785
0.7239720821,-0.0088727213,0.0881775716,0.0027076823,-36.1415863037,2.4343109130,-36.0748596192
0.7266800404,-0.0088727213,0.0881775716,0.0027076823,-36.1415863037,2.4343109130,-36.0748596192
0.7293970585,-0.0088727213,0.0872010091,0.0002662760,-33.3339691162,2.2512054443,-32.9468078613
0.7321040630,-0.0186383463,0.0872010091,0.0002662760,-33.3339691162,2.2512054443,-32.9468078613
0.7348151207,-0.0186383463,0.0872010091,0.0002662760,-30.5263519287,1.9307708740,-29.5746154785
0.7378630638,-0.0186383463,0.0872010091,0.0002662760,-30.5263519287,1.9307708740,-29.5746154785
0.7404441833,-0.0367047526,0.0872010091,0.0163795573,-28.1002044678,1.1830902099,-26.5838928223
0.7438111305,-0.0367047526,0.0872010091,0.0163795573,-28.1002044678,1.1830902099,-26.5838928223
0.7463951111,-0.0367047526,0.0872010091,0.0163795573,-26.1013031006,1.0762786865,-23.1354064942
0.7490580082,-0.0367047526,0.0872010091,0.0271217448,-26.1013031006,1.0762786865,-23.1354064942
0.7517671585,-0.0616070963,0.0603455403,0.0271217448,-26.2691497803,1.1220550537,-19.7021789551
0.7545771599,-0.0616070963,0.0603455403,0.0271217448,-26.2691497803,1.1220550537,-19.7021789551
0.7572841644,-0.0616070963,0.0603455403,0.0271217448,-27.5203704834,0.8473968505,-16.3605041504
0.7600021362,-0.0464703776,0.1121033529,0.0144264323,-27.5203704834,0.8473968505,-16.3605041504
0.7627069950,-0.0464703776,0.1121033529,0.0144264323,-27.6424407959,0.6642913818,-12.0880432129
0.7654161453,-0.0464703776,0.1121033529,0.0144264323,-27.6424407959,0.6642913818,-12.0880432129
0.7681300640,-0.0464703776,0.1121033529,0.0144264323,-27.3067474365,-1.2735748291,-7.5256652832
0.7708420753,-0.3116070963,0.4485291341,0.2199928386,-27.3067474365,-1.2735748291,-7.5256652832
0.7735462189,-0.3116070963,0.4485291341,0.2199928386,-32.5557708740,-9.2386627198,-0.3540344239
0.7762460709,-0.3116070963,0.4485291341,0.2199928386,-32.5557708740,-9.2386627198,-0.3540344239
0.7788929939,-0.3116070963,0.4485291341,0.0949928386,-36.7977142334,-11.2223052979,11.7767028808
0.7814671993,-0.5288922526,1.1023377279,0.1789772136,-36.7977142334,-11.2223052979,11.7767028808
0.7840361595,-0.5288922526,1.1023377279,0.1789772136,-22.2560882568,-5.6070709229,39.6087341308
0.7866082191,-0.5288922526,1.1023377279,0.1789772136,-22.2560882568,-5.6070709229,39.6087341308
0.7892231941,-0.5288922526,1.1023377279,0.1574928386,-5.0136566162,-4.7678375245,60.9100036621
0.7917881012,-0.4576031901,1.4006775716,0.1574928386,-5.0136566162,-4.7678375245,60.9100036621
0.7943592072,-0.4576031901,1.4006775716,0.1574928386,6.3694000244,-6.0800933838,62.7105407715
0.7969291210,-0.4576031901,1.4006775716,0.1574928386,6.3694000244,-6.0800933838,62.7105407715
0.7996830940,-0.4576031901,0.4236267903,-0.0973899740,24.4663238526,-0.7089996338,60.8947448730
0.8023700714,-0.5039899089,0.4236267903,-0.0973899740,24.4663238526,-0.7089996338,60.8947448730
0.8050601482,-0.5039899089,0.4236267903,-0.0973899740,31.3785552979,0.2980804443,63.7481384277
0.8077580929,-0.5039899089,0.4236267903,-0.0973899740,31.3785552979,0.2980804443,63.7481384277
0.8104472160,-0.3238141276,-0.2951232097,-0.2463157552,28.1284332276,-2.3264312745,66.9677429199
0.8131380081,-0.3238141276,-0.2951232097,-0.2463157552,28.1284332276,-2.3264312745,66.9677429199
0.8158311844,-0.3238141276,-0.2951232097,-0.2463157552,22.6505279541,-2.6621246338,66.9067077637
0.8186461926,-0.3238141276,-0.2951232097,-0.2463157552,22.6505279541,-2.6621246338,66.9067077637
0.8213391304,-0.0840680339,-0.8336974284,-0.1872337240,14.5938873291,0.6795501709,64.4042663574
0.8240230083,-0.0840680339,-0.8336974284,-0.1872337240,14.5938873291,0.6795501709,64.4042663574
0.8267099857,-0.0840680339,-0.8336974284,-0.1872337240,2.3868560791,4.7383880615,61.1236267090
0.8294072151,-0.0840680339,-0.8336974284,-0.0622337240,2.3868560791,4.7383880615,61.1236267090
0.8320920467,-0.1328961589,-0.8332091471,-0.1276634114,-11.2545013428,6.4168548583,59.9792175293
0.8347811699,-0.1328961589,-0.8332091471,-0.1276634114,-11.2545013428,6.4168548583,59.9792175293
0.8374791145,-0.1328961589,-0.8332091471,-0.1276634114,-22.7901458740,7.3323822021,58.7890319824
0.8402390480,-0.1328961589,-0.6061583659,-0.0436790364,-22.7901458740,7.3323822021,58.7890319824
0.8429331779,-0.2071149089,-0.6061583659,-0.0436790364,-30.2822113037,8.2631683349,56.6833190918
0.8456342220,-0.2071149089,-0.6061583659,-0.0436790364,-30.2822113037,8.2631683349,56.6833190918
0.8483440876,-0.2071149089,-0.6061583659,-0.0436790364,-36.4009857178,7.5460052490,57.5530700683
0.8510332108,-0.2593610026,-0.2765685221,0.0442115886,-36.4009857178,7.5460052490,57.5530700683
0.8539791107,-0.2593610026,-0.2765685221,0.0442115886,-42.8401947021,4.1585540771,61.5050964355
0.8566720486,-0.2593610026,-0.2765685221,0.0442115886,-42.8401947021,4.1585540771,61.5050964355
0.8601620197,-0.2593610026,-0.0265685221,0.0935279948,-45.6630706787,1.3356781005,65.1214294433
0.8627340794,-0.1905133463,-0.0475646159,0.0935279948,-45.6630706787,1.3356781005,65.1214294433
0.8653070927,-0.1905133463,-0.0475646159,0.0935279948,-43.6336517334,0.1454925537,66.1590270996
0.8679621220,-0.1905133463,-0.0475646159,0.0935279948,-43.6336517334,0.1454925537,66.1590270996
0.8705360889,-0.1905133463,0.0164002279,0.0554420573,-39.8799896240,-0.9836578370,65.8385925293
0.8731021881,-0.1358258463,0.0164002279,0.0554420573,-39.8799896240,-0.9836578370,65.8385925293
0.8756701946,-0.1358258463,0.0164002279,0.0554420573,-35.7143402100,-2.3569488526,65.4113464355
0.8782989979,-0.1358258463,0.0164002279,0.0554420573,-35.7143402100,-2.3569488526,65.4113464355
0.8809661865,-0.0664899089,-0.0016661784,0.0061256510,-31.8080902100,-3.6844635010,63.7939147949
0.8836491108,-0.0664899089,-0.0016661784,0.0061256510,-30.4805755615,-3.6844635010,63.7939147949
0.8862171173,-0.0664899089,-0.0016661784,0.0061256510,-30.4805755615,-4.4779205323,61.7644958496
0.8887941837,-0.0664899089,-0.0016661784,0.0061256510,-25.2925872803,-4.4779205323,61.7644958496
0.8913590908,-0.0269391276,-0.0641661784,-0.0192649740,-25.2925872803,-4.4779205323,59.6893005371
0.8939290047,-0.0269391276,-0.0641661784,-0.0192649740,-20.5623626709,-4.9051666260,59.6893005371
0.8964951038,-0.0269391276,-0.0641661784,-0.0192649740,-20.5623626709,-4.9051666260,58.0413513183
0.8991050720,-0.0269391276,-0.0641661784,-0.0192649740,-18.2277679443,-4.8899078370,58.0413513183
0.9016780853,-0.0210797526,-0.1022521159,-0.0290305990,-18.2277679443,-4.8899078370,58.0413513183
0.9042491913,-0.0210797526,-0.1022521159,-0.0290305990,-17.8768157959,-4.2337799073,57.3852233887
0.9068150520,-0.0210797526,-0.1022521159,-0.0290305990,-17.8768157959,-4.2337799073,57.3852233887
0.9095761776,-0.0210797526,-0.1022521159,-0.0290305990,-18.1667327881,-4.1269683838,57.1563415527
0.9121470451,-0.0249860026,-0.0876036784,-0.0383079427,-18.1667327881,-4.1269683838,57.1563415527
0.9147231579,-0.0249860026,-0.0876036784,-0.0383079427,-18.7007904053,-4.0659332276,57.6903991699
0.9173011780,-0.0249860026,-0.0876036784,-0.0383079427,-18.7007904053,-4.0659332276,57.6903991699
0.9201250076,-0.0249860026,-0.0876036784,0.0866920573,-19.1280364990,-4.1574859620,57.9955749511
0.9228320122,-0.0669781901,-0.0656310221,-0.0314720052,-19.1280364990,-4.1574859620,57.9955749511
0.9255421162,-0.0669781901,-0.0656310221,-0.0314720052,-20.1503753662,-4.1422271729,58.4380798340
0.9282522202,-0.0669781901,-0.0656310221,-0.0314720052,-20.1503753662,-4.1422271729,58.4380798340
0.9309601784,-0.0669781901,-0.0758849284,-0.0285423177,-21.8135833740,-4.4931793213,59.0789489746
0.9336690903,-0.0909039713,-0.0758849284,-0.0285423177,-21.8135833740,-4.4931793213,59.0789489746
0.9363679886,-0.0909039713,-0.0758849284,-0.0285423177,-24.1634368896,-4.2795562745,60.3454284668
0.9389991760,-0.0909039713,-0.0758849284,-0.0285423177,-24.1634368896,-4.2795562745,60.3454284668
0.9417262077,-0.1079938151,-0.1105528971,-0.0109641927,-27.0931243896,-4.7830963135,61.8713073730
0.9443089962,-0.1079938151,-0.1105528971,-0.0109641927,-27.0931243896,-4.7830963135,61.8713073730
0.9469962120,-0.1079938151,-0.1105528971,-0.0109641927,-29.9617767334,-5.6681060791,62.8478698730
0.9498531818,-0.1079938151,-0.1105528971,-0.0109641927,-29.9617767334,-5.6681060791,62.8478698730
0.9525220394,-0.1192242839,-0.1427794597,-0.0099876302,-31.5792083740,-5.8206939698,62.5274353027
0.9557590485,-0.1192242839,-0.1427794597,-0.0099876302,-31.5792083740,-5.8206939698,62.5274353027
0.9583680630,-0.1192242839,-0.1427794597,-0.0099876302,-32.9219818115,-6.5073394776,62.5426940918
0.9609370232,-0.1192242839,-0.1427794597,-0.0075462240,-32.9219818115,-6.5073394776,62.5426940918
0.9635109901,-0.1304547526,-0.1584044597,-0.0075462240,-33.8680267334,-6.9956207276,63.4582214355
0.9660811424,-0.1304547526,-0.1584044597,-0.0075462240,-33.8680267334,-6.9956207276,63.4582214355
0.9686992168,-0.1304547526,-0.1584044597,-0.0075462240,-34.6157073974,-7.4381256104,63.6565856933
0.9712750912,-0.1304547526,-0.1584044597,-0.0041282552,-34.6157073974,-7.4381256104,63.6565856933
0.9738471508,-0.1314313151,-0.1544982097,-0.0041282552,-35.8211517334,-7.8806304932,64.0227966308
0.9764151573,-0.1314313151,-0.1544982097,-0.0041282552,-35.8211517334,-7.8806304932,64.0227966308
0.9789981842,-0.1314313151,-0.1544982097,-0.0041282552,-35.9737396240,-8.7961578370,64.3127136230
0.9815711975,-0.1314313151,-0.1012755534,-0.0002220052,-35.9737396240,-8.7961578370,64.3127136230
0.9841461182,-0.1148297526,-0.1012755534,-0.0002220052,-35.9737396240,-8.9792633057,64.4958190918
0.9867150784,-0.1148297526,-0.1012755534,-0.0002220052,-34.4631195068,-8.9792633057,64.4958190918
0.9892899990,-0.1148297526,-0.1012755534,-0.0002220052,-34.4631195068,-8.9792633057,65.0603942871
0.9918692112,-0.1148297526,0.0095642903,-0.0217063802,-31.0909271240,-9.9710845948,65.0603942871
0.9944381714,-0.1338727213,0.0095642903,-0.0217063802,-31.0909271240,-9.9710845948,65.0603942871
0.9970080853,-0.1338727213,0.0095642903,-0.0217063802,-26.8184661865,-10.7187652588,65.4723815918
0.9997820854,-0.1338727213,0.0095642903,-0.0217063802,-26.8184661865,-10.7187652588,65.4723815918
1.0023570061,-0.1358258463,0.0754822591,-0.0246360677,-23.5530853271,-10.9629058838,66.1132507324
1.0049409866,-0.1358258463,0.0754822591,-0.0246360677,-23.5530853271,-10.9629058838,66.1132507324
1.0076432228,-0.1358258463,0.0754822591,-0.0246360677,-18.3498382568,-10.8103179932,65.7928161621
1.0104742050,-0.1358258463,0.0754822591,-0.0246360677,-18.3498382568,-10.8103179932,65.7928161621
1.0131890774,-0.1280133463,0.2278260091,-0.0378196614,-9.0877532959,-11.0391998291,66.0064392090
1.0158941746,-0.1280133463,0.2278260091,-0.0378196614,-9.0877532959,-11.0391998291,66.0064392090
1.0186071396,-0.1280133463,0.2278260091,-0.0378196614,-3.7166595459,-11.7411041260,65.0756530761
1.0213160515,-0.1280133463,0.2278260091,-0.0241477864,-3.7166595459,-11.7411041260,65.0756530761
1.0240261555,-0.0889508463,0.0554627279,-0.0241477864,-1.5804290771,-11.2985992432,62.0696716308
1.0267350674,-0.0889508463,0.0554627279,-0.0241477864,-1.5804290771,-11.2985992432,62.0696716308
1.0293591022,-0.0889508463,0.0554627279,-0.0241477864,-2.6638031006,-9.7269439698,60.4827575683
1.0319271088,-0.0889508463,-0.0763732097,-0.0588157552,-2.6638031006,-9.7269439698,60.4827575683
1.0345060825,-0.0122906901,-0.0763732097,-0.0588157552,-5.5019378662,-8.7198638917,61.3677673340
1.0370831490,-0.0122906901,-0.0763732097,-0.0588157552,-5.5019378662,-8.7198638917,61.3677673340
1.0397901535,-0.0122906901,-0.0763732097,-0.0588157552,-7.7297210693,-9.4675445557,62.6952819824
1.0424590111,-0.0166852213,-0.0705138347,-0.0085227864,-7.7297210693,-9.4675445557,62.6952819824
1.0451710224,-0.0166852213,-0.0705138347,-0.0085227864,-5.3340911865,-9.7269439698,62.1307067871
1.0479171276,-0.0166852213,-0.0705138347,-0.0085227864,-5.3340911865,-9.7269439698,62.1307067871
1.0505771637,-0.0166852213,-0.0705138347,-0.0085227864,-2.1144866943,-9.5896148682,61.3525085449
1.0537102222,0.0033343099,-0.0548888347,0.0168678386,-2.1144866943,-9.5896148682,61.3525085449
1.0562829971,0.0033343099,-0.0548888347,0.0168678386,-2.2518157959,-11.4817047120,60.6353454590
1.0589230061,0.0033343099,-0.0548888347,0.0168678386,-2.2518157959,-11.4817047120,60.6353454590
1.0614850521,0.0033343099,-0.0548888347,0.0168678386,-5.0441741943,-13.8010406495,59.8266296387
1.0640540123,-0.0108258463,-0.1046935221,0.0237037760,-5.0441741943,-13.8010406495,59.8266296387
1.0666501522,-0.0108258463,-0.1046935221,0.0237037760,-5.2883148193,-15.6931304932,59.0636901855
1.0692729950,-0.0108258463,-0.1046935221,0.0237037760,-5.2883148193,-15.6931304932,59.0636901855
1.0718441010,-0.0108258463,-0.1046935221,-0.0055930990,-4.5101165771,-17.2953033448,56.5307312011
1.0745160580,-0.1050641276,-0.0553771159,-0.0055930990,-4.5101165771,-17.2953033448,56.5307312011
1.0770931244,-0.1050641276,-0.0553771159,-0.0055930990,-3.3351898193,-17.9972076417,54.1808776855
1.0796790123,-0.1050641276,-0.0553771159,-0.0055930990,-3.3351898193,-17.9972076417,54.1808776855
1.0822510719,-0.1050641276,0.0696228841,-0.0363548177,-3.3351898193,-18.6991119385,53.1737976074
1.0848240852,-0.1490094401,0.1355408529,-0.0363548177,-1.5041351318,-18.6991119385,53.1737976074
1.0874431133,-0.1490094401,0.1355408529,-0.0363548177,-1.5041351318,-18.6991119385,52.0446472168
1.0900352001,-0.1490094401,0.1355408529,-0.0363548177,0.1132965088,-19.3857574463,52.0446472168
1.0926001072,-0.1490094401,0.0867127279,-0.0744407552,0.1132965088,-19.3857574463,50.7018737793
1.0951731205,-0.1202008463,0.0867127279,-0.0744407552,0.9372711182,-19.3247222901,50.7018737793
1.0978810787,-0.1202008463,0.0867127279,-0.0744407552,0.9372711182,-19.3247222901,46.7956237793
1.1004571915,-0.1202008463,0.0867127279,-0.0744407552,1.1814117432,-19.2179107667,47.8179626465
1.1030340195,-0.0962750651,0.0207947591,-0.0475852864,1.1814117432,-19.2179107667,47.8179626465
1.1056160927,-0.0962750651,0.0207947591,-0.0475852864,0.9525299072,-20.7590484620,44.5678405761
1.1083230972,-0.0962750651,0.0207947591,-0.0475852864,0.9525299072,-20.7590484620,44.5678405761
1.1110281944,-0.0962750651,0.0207947591,-0.0475852864,-0.2071380615,-21.7203521729,43.5607604980
1.1137371063,-0.0664899089,0.1404236653,-0.0026634114,-0.2071380615,-21.7203521729,43.5607604980
1.1164410114,-0.0664899089,0.1404236653,-0.0026634114,0.8304595947,-22.3612213135,42.2332458496
1.1190750599,-0.0664899089,0.1404236653,-0.0026634114,0.8304595947,-22.3612213135,42.2332458496
1.1216452122,-0.0664899089,0.1404236653,-0.0026634114,2.1884918213,-23.3072662354,39.7918395996
1.1242170334,-0.0240094401,0.1238221029,0.0324928386,2.1884918213,-23.3072662354,39.7918395996
1.1267921925,-0.0240094401,0.1238221029,0.0324928386,0.7999420166,-24.1770172120,37.3809509277
1.1294569969,-0.0240094401,0.1238221029,0.0324928386,0.7999420166,-24.1770172120,37.3809509277
1.1321451664,-0.0240094401,0.1238221029,0.0324928386,-1.9618988037,-23.4903717041,35.9313659668
1.1348321438,-0.0459820963,0.0310486653,0.0388404948,-1.9618988037,-23.4903717041,35.9313659668
1.1375269890,-0.0459820963,0.0310486653,0.0388404948,-4.0218353271,-23.3835601807,34.6954040527
1.1403341293,-0.0459820963,0.0310486653,0.0388404948,-4.0218353271,-23.3835601807,34.6954040527
1.1430201530,-0.0459820963,0.0339783529,0.0700904948,-5.6087493896,-23.9023590088,33.8103942871
1.1458220482,-0.1358258463,0.0339783529,0.0700904948,-5.6087493896,-23.9023590088,33.8103942871
1.1485331059,-0.1358258463,0.0339783529,0.0700904948,-7.3940277100,-24.0396881104,31.7504577637
1.1512041092,-0.1358258463,0.0339783529,0.0700904948,-7.3940277100,-24.0396881104,31.7504577637
1.1544251442,-0.2661969401,0.0984314779,0.0451881510,-8.3705902100,-23.1699371338,30.4382019043
1.1570022106,-0.2661969401,0.0984314779,0.0451881510,-8.3705902100,-23.1699371338,30.4382019043
1.1596760750,-0.2661969401,0.0984314779,0.0451881510,-8.4468841553,-22.1018218995,29.7973327637
1.1622450352,-0.2661969401,0.0984314779,0.0451881510,-8.4468841553,-22.1018218995,29.7973327637
1.1648111343,-0.2647320963,0.1081971029,0.0290748698,-7.5923919678,-21.0642242432,27.9662780761
1.1673920155,-0.2647320963,0.1081971029,0.0290748698,-7.5923919678,-21.0642242432,27.9662780761
1.1700119972,-0.2647320963,0.1081971029,0.0290748698,-5.4409027100,-19.2789459229,26.3335876465
1.1725831032,-0.2647320963,0.1081971029,0.0290748698,-5.4409027100,-19.2789459229,26.3335876465
1.1751580238,-0.1753766276,0.0818299153,0.0227272136,-4.8915863037,-17.9361724854,25.2349548340
1.1777720451,-0.1753766276,0.0818299153,0.0227272136,-4.8915863037,-17.9361724854,25.2349548340
1.1803460121,-0.1753766276,0.0818299153,0.0227272136,-4.8915863037,-18.1497955323,23.8769226074
1.1829211712,-0.1753766276,0.0818299153,0.0554420573,-5.9597015381,-18.1497955323,23.8769226074
1.1854860783,-0.0923688151,0.1247986653,0.0554420573,-5.9597015381,-18.1497955323,21.5423278808
1.1881279945,-0.0923688151,0.1247986653,0.0554420573,-5.7460784912,-17.6309967041,21.5423278808
1.1906991005,-0.0923688151,0.1247986653,0.0554420573,-5.7460784912,-17.6309967041,19.5281677246
1.1932690144,-0.0923688151,0.1247986653,0.0407936198,-4.6932220459,-16.5781402588,19.5281677246
1.1958501339,-0.0635602213,0.1282166341,0.0407936198,-4.6932220459,-16.5781402588,17.4377136230
1.1984782219,-0.0635602213,0.1282166341,0.0407936198,-4.3270111084,-16.1051177979,17.4377136230
1.2010481358,-0.0635602213,0.1282166341,0.0407936198,-4.3270111084,-16.1051177979,17.4377136230
1.2037270069,-0.0635602213,0.1086853841,0.0661842448,-4.9373626709,-15.4489898682,15.8050231933
1.2062940598,-0.0474469401,0.1086853841,0.0661842448,-4.9373626709,-15.4489898682,15.8050231933
1.2090120316,-0.0474469401,0.1086853841,0.0661842448,-4.8763275146,-14.4876861573,13.7603454590
1.2115771770,-0.0474469401,0.1086853841,0.0661842448,-4.8763275146,-14.4876861573,13.7603454590
1.2141430378,-0.0679547526,0.1033142903,0.0730201823,-5.0441741943,-14.0451812745,11.5173034668
1.2167160511,-0.0679547526,0.1033142903,0.0730201823,-5.0441741943,-14.0451812745,11.5173034668
1.2192890644,-0.0679547526,0.1033142903,0.0730201823,-3.9608001709,-13.4348297120,10.1440124511
1.2218611240,-0.0679547526,0.1033142903,0.0730201823,-3.9608001709,-13.4348297120,10.1440124511
1.2244281769,-0.1040875651,0.0642517903,0.0549537760,-3.4877777100,-13.0686187745,8.8317565918
1.2269961834,-0.1040875651,0.0642517903,0.0549537760,-3.4877777100,-13.0686187745,8.8317565918
1.2297041416,-0.1040875651,0.0642517903,0.0549537760,-3.7624359131,-12.9770660401,7.6415710449
1.2323901653,-0.1040875651,0.0642517903,0.0549537760,-3.7624359131,-12.9770660401,7.6415710449
1.2350761890,-0.1319195963,0.0803650716,0.0613014323,-4.2201995850,-12.5650787354,6.6802673340
1.2377719879,-0.1319195963,0.0803650716,0.0613014323,-4.2201995850,-12.5650787354,6.6802673340
1.2404551506,-0.1319195963,0.0803650716,0.0613014323,-4.3117523193,-12.1988677979,5.0628356933
1.2431490421,-0.1319195963,0.0803650716,0.0613014323,-4.3117523193,-12.1988677979,5.0628356933
1.2458322048,-0.1089703776,0.1013611653,0.0505592448,-3.6708831787,-10.8255767823,3.4911804199
1.2485601902,-0.1089703776,0.1013611653,0.0505592448,-3.6708831787,-10.8255767823,3.4911804199
1.2512440681,-0.1089703776,0.1013611653,0.0505592448,-3.2894134521,-10.1847076417,1.9958190918
1.2539250851,-0.1089703776,0.1013611653,0.0495826823,-3.2894134521,-10.1847076417,1.9958190918
1.2566041946,-0.0699078776,0.0872010091,0.0495826823,-3.5335540771,-8.9945220948,0.8971862793
1.2593162060,-0.0699078776,0.0872010091,0.0495826823,-3.5335540771,-8.9945220948,0.8971862793
1.2619731426,-0.0699078776,0.0872010091,0.0495826823,-3.5335540771,-8.2163238526,-0.4913635254
1.2647612095,-0.0337750651,0.1081971029,0.0769264323,-3.5640716553,-8.2163238526,-0.4913635254
1.2684249878,-0.0337750651,0.1081971029,0.0769264323,-3.6708831787,-8.3231353760,-2.7954406739
1.2709991932,-0.0337750651,0.1081971029,0.0769264323,-3.6708831787,-8.3231353760,-2.7954406739
1.2735700607,-0.0337750651,0.1081971029,0.0769264323,-2.6027679443,-7.7280426026,-5.0232238770
1.2761380672,-0.0264508463,0.1189392903,0.0735084636,-2.6027679443,-7.7280426026,-5.0232238770
1.2787811756,-0.0264508463,0.1189392903,0.0735084636,-1.5041351318,-7.7127838135,-6.6711730957
1.2814841270,-0.0264508463,0.1189392903,0.0735084636,-1.5041351318,-7.7127838135,-6.6711730957
1.2841870785,-0.0264508463,0.1189392903,0.0569069010,-0.3597259521,-8.7961578370,-9.0057678223
1.2868890762,-0.0503766276,0.0823181966,0.0569069010,-0.3597259521,-8.7961578370,-9.0057678223
1.2896010876,-0.0503766276,0.0823181966,0.0569069010,0.8914947510,-8.8419342041,-10.3790588379
1.2923040390,-0.0503766276,0.0823181966,0.0569069010,0.8914947510,-8.8419342041,-10.3790588379
1.2950119972,-0.0967633463,0.0774353841,0.0359108073,1.5476226807,-8.8724517823,-11.4013977051
1.2977430820,-0.0967633463,0.0774353841,0.0359108073,1.5476226807,-8.8724517823,-11.4013977051
1.3003170490,-0.0967633463,0.0774353841,0.0359108073,2.0053863526,-8.8877105713,-12.4847717285
1.3028850555,-0.0967633463,0.0774353841,0.0359108073,2.0053863526,-8.8877105713,-12.4847717285
1.3054530621,-0.1114117839,0.0676697591,0.0134498698,2.0053863526,-8.5214996338,-13.1408996582
1.3080320358,-0.1114117839,0.0676697591,0.0134498698,1.7154693604,-8.5214996338,-13.1408996582
1.3106031418,-0.1114117839,0.0676697591,0.0134498698,1.7154693604,-8.5214996338,-13.3392639160
1.3131761551,-0.1114117839,0.0676697591,0.0134498698,0.4184722900,-8.0484771729,-13.3392639160
1.3157491684,-0.1065289713,0.0515564779,0.0339576823,0.4184722900,-8.0484771729,-13.4613342285
1.3184511662,-0.1065289713,0.0515564779,0.0339576823,-1.3057708740,-7.6517486573,-13.4613342285
1.3210210800,-0.1065289713,0.0515564779,0.0339576823,-1.3057708740,-7.6517486573,-13.4613342285
1.3235921860,-0.1065289713,0.0515564779,0.0339576823,-2.2670745850,-6.7362213135,-14.0259094239
1.3261570930,-0.0830914713,0.0662049153,0.0613014323,-2.2670745850,-6.7362213135,-14.0259094239
1.3289220333,-0.0830914713,0.0662049153,0.0613014323,-3.0300140381,-6.4005279541,-14.6057434082
1.3317151070,-0.0830914713,0.0662049153,0.0613014323,-3.0300140381,-6.4005279541,-14.6057434082
1.3343980312,-0.0830914713,0.0662049153,0.0588600260,-2.6180267334,-6.4463043213,-15.3686828613
1.3370890617,-0.0684430339,0.0691346029,0.0588600260,-2.6180267334,-6.4463043213,-15.3686828613
1.3397781849,-0.0684430339,0.0691346029,0.0588600260,-2.0229339600,-6.0648345948,-16.9403381348
1.3424651623,-0.0684430339,0.0691346029,0.0588600260,-2.0229339600,-6.0648345948,-16.9403381348
1.3451490402,-0.0684430339,0.0486267903,0.0617897136,-0.9090423584,-6.4768218995,-17.7795715332
1.3478410244,-0.1040875651,0.0486267903,0.0617897136,-0.9090423584,-6.4768218995,-17.7795715332
1.3506991863,-0.1040875651,0.0486267903,0.0617897136,-0.3749847412,-6.0800933838,-18.6035461426
1.3532721996,-0.1040875651,0.0486267903,0.0617897136,-0.3749847412,-6.0800933838,-18.6035461426
1.3558402061,-0.1216656901,0.0354431966,0.0720436198,0.8914947510,-5.7749176026,-19.2749328613
1.3584821224,-0.1216656901,0.0354431966,0.0720436198,0.8914947510,-5.7749176026,-19.2749328613
1.3611462116,-0.1216656901,0.0354431966,0.0720436198,2.0359039307,-5.9885406495,-20.3277893067
1.3639512062,-0.1216656901,0.0354431966,0.0720436198,2.0359039307,-5.9885406495,-20.3277893067
1.3665661812,-0.1285016276,0.0188416341,0.0705787760,2.8293609619,-5.7138824463,-20.7245178223
1.3692190647,-0.1285016276,0.0188416341,0.0705787760,2.8293609619,-5.7138824463,-20.7245178223
1.3717880249,-0.1285016276,0.0188416341,0.0705787760,3.3329010010,-5.8664703370,-21.1365051270
1.3743510246,-0.1285016276,0.0188416341,0.0705787760,3.3329010010,-5.8664703370,-21.1365051270
1.3769171238,-0.1079938151,0.0344666341,0.0578834636,3.8364410400,-5.8664703370,-21.2585754395
1.3794860840,-0.1079938151,0.0344666341,0.0578834636,3.8364410400,-5.8664703370,-21.2585754395
1.3820509911,-0.1079938151,0.0344666341,0.0578834636,4.2484283447,-5.9427642823,-21.6705627442
1.3846161366,-0.1079938151,0.0344666341,0.0578834636,4.2484283447,-5.9427642823,-21.6705627442
1.3871810436,-0.0830914713,0.0505799153,0.0442115886,4.2484283447,-6.0953521729,-22.2503967285
1.3897500038,-0.0830914713,0.0505799153,0.0442115886,4.7061920166,-6.0953521729,-22.2503967285
1.3923161030,-0.0830914713,0.0505799153,0.0442115886,4.7061920166,-6.0953521729,-22.8760070801
1.3949921131,-0.0830914713,0.0505799153,0.0520240886,5.5454254150,-6.3394927979,-22.8760070801
1.3975560665,-0.0811383463,0.0486267903,0.0520240886,5.5454254150,-6.3394927979,-23.1811828613
1.4001221657,-0.0811383463,0.0486267903,0.0520240886,6.5525054932,-6.5531158448,-23.1811828613
1.4026901722,-0.0811383463,0.0486267903,0.0520240886,6.5525054932,-6.5531158448,-23.1811828613
1.4052550793,-0.0811383463,0.0486267903,0.0437233073,7.0560455322,-5.8359527588,-23.4253234863
1.4079020023,-0.1001813151,0.0173767903,0.0437233073,7.0560455322,-5.8359527588,-23.4253234863
1.4104740620,-0.1001813151,0.0173767903,0.0437233073,7.3917388916,-5.3781890870,-23.7152404785
1.4130401611,-0.1001813151,0.0173767903,0.0437233073,7.3917388916,-5.3781890870,-23.7152404785
1.4156141281,-0.1001813151,-0.0070372721,0.0774147136,8.1241607666,-5.6070709229,-23.4863586426
1.4182732105,-0.1109235026,-0.0070372721,0.0774147136,8.1241607666,-5.6070709229,-23.4863586426
1.4208450317,-0.1109235026,-0.0070372721,0.0774147136,8.0173492432,-5.1645660401,-23.1354064942
1.4234139919,-0.1109235026,-0.0070372721,0.0774147136,8.0173492432,-5.1645660401,-23.1354064942
1.4259841442,-0.1109235026,-0.0207091471,0.0681373698,8.7650299072,-4.7830963135,-22.6471252442
1.4286191463,-0.1573102213,-0.0207091471,0.0681373698,8.7650299072,-4.7830963135,-22.6471252442
1.4313240051,-0.1573102213,-0.0207091471,0.0681373698,8.8718414307,-4.7373199463,-21.7621154785
1.4340209961,-0.1573102213,-0.0207091471,0.0681373698,8.8718414307,-4.7373199463,-21.7621154785
1.4367251396,-0.1612164713,-0.0255919597,0.0515358073,9.0396881104,-4.9662017823,-20.9533996582
1.4394381046,-0.1612164713,-0.0255919597,0.0515358073,9.0396881104,-4.9662017823,-20.9533996582
1.4421370029,-0.1612164713,-0.0255919597,0.0515358073,9.3448638916,-4.8593902588,-19.9920959473
1.4448330402,-0.1612164713,-0.0255919597,0.0515358073,9.3448638916,-4.8593902588,-19.9920959473
1.4475491047,-0.1167828776,0.0154236653,0.0544654948,9.1922760010,-5.0577545167,-18.8476867676
1.4502470493,-0.1167828776,0.0154236653,0.0544654948,9.1922760010,-5.0577545167,-18.8476867676
1.4529430866,-0.1167828776,0.0154236653,0.0544654948,9.3143463135,-5.1493072510,-18.2678527832
1.4557130337,-0.1167828776,0.0154236653,0.0627662760,9.3143463135,-5.1493072510,-18.2678527832
1.4586241245,-0.0791852213,0.0281189779,0.0627662760,10.1230621338,-5.2561187745,-18.5577697754
1.4613041878,-0.0791852213,0.0281189779,0.0627662760,10.1230621338,-5.2561187745,-18.5577697754
1.4646019936,-0.0791852213,0.0281189779,0.0627662760,11.3895416260,-5.2256011963,-19.1833801270
1.4671790600,-0.0699078776,0.0310486653,0.0549537760,11.3895416260,-5.2256011963,-19.1833801270
1.4697561264,-0.0699078776,0.0310486653,0.0549537760,12.7017974854,-5.1950836182,-19.4122619629
1.4723269939,-0.0699078776,0.0310486653,0.0549537760,12.7017974854,-5.1950836182,-19.4122619629
1.4748990536,-0.0699078776,0.0310486653,0.0549537760,13.9225006104,-5.0882720948,-19.5190734863
1.4774880409,-0.0835797526,0.0261658529,0.0642311198,13.9225006104,-5.0882720948,-19.5190734863
1.4800601006,-0.0835797526,0.0261658529,0.0642311198,15.2500152588,-5.3934478760,-19.3512268067
1.4826371670,-0.0835797526,0.0261658529,0.0642311198,15.2500152588,-5.3934478760,-19.3512268067
1.4852080345,-0.0835797526,0.0261658529,0.0642311198,15.2500152588,-5.3476715088,-19.2138977051
1.4877891541,-0.1035992839,-0.0011778971,0.0490944010,17.1726226807,-5.3476715088,-19.2138977051
1.4903612137,-0.1035992839,-0.0011778971,0.0490944010,17.1726226807,-9.2539215088,-19.0002746582
1.4929301739,-0.1035992839,-0.0011778971,0.0490944010,19.2020416260,-5.6375885010,-19.0002746582
1.4955050945,-0.1035992839,-0.0011778971,0.0490944010,19.2020416260,-5.6375885010,-18.2373352051
1.4982311726,-0.1402203776,-0.0255919597,0.0486061198,19.9802398682,-5.6070709229,-18.2373352051
1.5008080006,-0.1402203776,-0.0255919597,0.0486061198,19.9802398682,-5.6070709229,-17.3523254395
1.5033822060,-0.1402203776,-0.0255919597,0.0486061198,21.3382720947,-5.1493072510,-17.3523254395
1.5059530735,-0.1402203776,-0.0255919597,0.0486061198,21.3382720947,-5.1493072510,-17.3523254395
1.5086591244,-0.1377789713,-0.0421935221,0.0378639323,22.8336334229,-4.7068023682,-15.2160949707
1.5112321377,-0.1377789713,-0.0421935221,0.0378639323,22.8336334229,-4.7068023682,-15.2160949707
1.5138001442,-0.1377789713,-0.0421935221,0.0378639323,24.5731353760,-4.3558502198,-13.5528869629
1.5163722038,-0.1377789713,-0.0421935221,0.0471412760,24.5731353760,-4.3558502198,-13.5528869629
1.5190830231,-0.1436383463,-0.0338927409,0.0471412760,24.2832183838,-3.7912750245,-11.9507141113
1.5217630863,-0.1436383463,-0.0338927409,0.0471412760,24.2832183838,-3.7912750245,-11.9507141113
1.5243380070,-0.1436383463,-0.0338927409,0.0471412760,23.1693267822,-3.5318756104,-10.3943176270
1.5269050598,-0.1436383463,-0.0270568034,0.0661842448,23.1693267822,-3.5318756104,-10.3943176270
1.5294890404,-0.1162945963,-0.0270568034,0.0661842448,22.7573394776,-2.4485015870,-8.1817932129
1.5320570469,-0.1162945963,-0.0270568034,0.0661842448,22.7573394776,-2.4485015870,-8.1817932129
1.5346250534,-0.1162945963,-0.0270568034,0.0661842448,22.9709625244,-2.0975494385,-6.8542785645
1.5371990204,-0.1162945963,-0.0099669597,0.0613014323,22.9709625244,-2.0975494385,-6.8542785645
1.5398139954,-0.0928570963,-0.0099669597,0.0613014323,22.3300933838,-1.6092681885,-6.1371154785
1.5423810482,-0.0928570963,-0.0099669597,0.0613014323,22.3300933838,-1.6092681885,-6.1371154785
1.5449540615,-0.0928570963,-0.0099669597,0.0613014323,22.3300933838,-0.7700347901,-4.8248596192
1.5475301743,-0.1148297526,-0.0509825847,0.0754615886,21.4908599854,-0.7700347901,-4.8248596192
1.5502350330,-0.1148297526,-0.0509825847,0.0754615886,21.4908599854,0.0691986083,-3.7262268067
1.5529341698,-0.1148297526,-0.0509825847,0.0754615886,21.6892242432,0.0691986083,-3.7262268067
1.5556840897,-0.1148297526,-0.0509825847,0.0754615886,21.6892242432,0.5117034912,-2.3224182129
1.5584771633,-0.1416852213,-0.0646544597,0.0822975260,21.7044830322,0.5117034912,-2.3224182129
1.5611391068,-0.1416852213,-0.0646544597,0.0822975260,21.7044830322,0.9999847412,-1.0406799317
1.5641171932,-0.1416852213,-0.0646544597,0.0822975260,21.9181060791,0.9999847412,-1.0406799317
1.5666952133,-0.1416852213,-0.0646544597,0.0754615886,21.9181060791,1.2593841552,0.4241638183
1.5693180561,-0.1660992839,-0.0685607097,0.0754615886,21.9486236572,1.2593841552,0.4241638183
1.5718882084,-0.1660992839,-0.0685607097,0.0754615886,21.9486236572,1.2593841552,2.1026306152
1.5744521618,-0.1660992839,-0.0685607097,0.0754615886,22.2690582276,1.2136077880,2.1026306152
1.5770180225,-0.1660992839,-0.0685607097,0.0710670573,22.2690582276,1.2136077880,3.7505798340
1.5796530247,-0.1402203776,-0.0431700847,0.0710670573,23.0014801026,0.5269622802,3.7505798340
1.5822210312,-0.1402203776,-0.0431700847,0.0710670573,23.0014801026,0.5269622802,3.7505798340
1.5849041939,-0.1402203776,-0.0431700847,0.0710670573,23.8864898682,0.1912689209,4.2846374511
1.5874710083,-0.1402203776,-0.0119200847,0.0315162760,23.8864898682,0.1912689209,4.2846374511
1.5900402069,-0.1241070963,-0.0119200847,0.0315162760,25.8548736572,0.2217864990,5.8257751465
1.5926070213,-0.1241070963,-0.0119200847,0.0315162760,25.8548736572,0.2217864990,5.8257751465
1.5951731205,-0.1241070963,-0.0119200847,0.0315162760,29.4406890869,0.5269622802,7.5195007324
1.5977630615,-0.1241070963,-0.0124083659,0.0217506510,29.4406890869,0.5269622802,7.5195007324
1.6003341675,-0.1309430339,-0.0124083659,0.0217506510,29.5169830322,1.2593841552,7.2448425293
1.6029031277,-0.1309430339,-0.0124083659,0.0217506510,29.5169830322,1.2593841552,7.2448425293
1.6054701805,-0.1309430339,-0.0124083659,0.0217506510,29.1202545166,2.1443939209,9.0301208496
1.6081120968,-0.1060406901,-0.0221739909,0.0139381510,29.1202545166,2.1443939209,9.0301208496
1.6106801033,-0.1060406901,-0.0221739909,0.0139381510,27.7164459229,2.6326751709,10.7085876465
1.6132490635,-0.1060406901,-0.0221739909,0.0139381510,27.7164459229,2.6326751709,10.7085876465
1.6158161163,-0.1060406901,-0.0221739909,0.0139381510,23.8101959229,2.6021575927,11.5173034668
1.6185181141,-0.1114117839,-0.0578185221,0.0129615886,25.8701324463,2.6021575927,11.5173034668
1.6210892200,-0.1114117839,-0.0578185221,0.0129615886,25.8701324463,2.0528411865,11.9750671387
1.6236491203,-0.1114117839,-0.0578185221,0.0129615886,24.0543365479,2.0528411865,11.9750671387
1.6262130737,-0.1114117839,-0.0578185221,0.0129615886,24.0543365479,2.0528411865,12.8905944824
1.6287841797,-0.1499860026,-0.0319396159,0.0183326823,23.1082916260,1.7934417724,12.8905944824
1.6313490868,-0.1499860026,-0.0319396159,0.0183326823,23.1082916260,1.7934417724,12.8905944824
1.6339230537,-0.1499860026,-0.0319396159,0.0183326823,22.7268218994,1.7171478271,14.4622497558
1.6364901066,-0.1499860026,-0.0319396159,0.0183326823,22.7268218994,1.7171478271,14.4622497558
1.6391201019,-0.1641461589,-0.0329161784,0.0188209636,23.1082916260,1.4577484130,15.9118347168
1.6416850090,-0.1641461589,-0.0329161784,0.0188209636,23.1082916260,1.4577484130,15.9118347168
1.6442530155,-0.1641461589,-0.0329161784,0.0188209636,22.9862213135,1.0152435302,17.2698669433
1.6469361782,-0.1641461589,-0.0329161784,0.0188209636,22.9862213135,1.0152435302,17.2698669433
1.6496241093,-0.1582867839,-0.0377989909,0.0432350260,22.6963043213,0.7100677490,18.5058288574
1.6521961689,-0.1582867839,-0.0377989909,0.0432350260,22.6963043213,0.7100677490,18.5058288574
1.6547651291,-0.1582867839,-0.0377989909,0.0432350260,22.2232818604,0.1149749755,19.3298034668
1.6573359966,-0.1582867839,-0.0377989909,0.0432350260,22.2232818604,0.1149749755,19.3298034668
1.6599130630,-0.1465680339,-0.0065489909,0.0349342448,21.7960357666,0.1912689209,20.1690368652
1.6624832153,-0.1465680339,-0.0065489909,0.0349342448,21.7960357666,0.1912689209,20.1690368652
1.6650512218,-0.1465680339,-0.0065489909,0.0349342448,22.1164703369,0.2217864990,20.7793884277
1.6676859856,-0.1465680339,-0.0065489909,0.0266334636,22.1164703369,0.2217864990,20.7793884277
1.6702570915,-0.1514508463,-0.0143614909,0.0266334636,22.1164703369,0.8168792724,21.2371520996
1.6728260517,-0.1514508463,-0.0143614909,0.0266334636,22.6657867432,0.8168792724,21.2371520996
1.6755480766,-0.1514508463,-0.0143614909,0.0266334636,22.6657867432,1.8239593505,22.1069030761
1.6784210205,-0.2764508463,-0.0280333659,0.0251686198,22.2690582276,1.8239593505,22.1069030761
1.6811280251,-0.1685406901,-0.0280333659,0.0251686198,22.2690582276,2.7089691162,22.8240661621
1.6838390827,-0.1685406901,-0.0280333659,0.0251686198,21.2772369385,2.7089691162,22.8240661621
1.6865429878,-0.1685406901,-0.0280333659,0.0251686198,21.2772369385,3.2735443115,23.2055358887
1.6892561913,-0.1753766276,-0.0197325847,0.0227272136,19.1257476807,3.2735443115,23.2055358887
1.6919651031,-0.1753766276,-0.0197325847,0.0227272136,15.2194976807,3.7770843505,22.7782897949
1.6946740150,-0.1753766276,-0.0197325847,0.0227272136,17.6151275635,3.7770843505,22.7782897949
1.6973750591,-0.1753766276,-0.0197325847,0.0227272136,17.6151275635,4.8451995849,22.4425964355
1.7000820637,-0.1939313151,0.0007752279,-0.0002220052,15.3110504150,4.8451995849,22.4425964355
1.7027871609,-0.1939313151,0.0007752279,-0.0002220052,11.4048004150,6.0506439209,22.2594909668
1.7054932117,-0.1939313151,0.0007752279,-0.0002220052,14.7159576416,6.0506439209,22.2594909668
1.7081911564,-0.1939313151,0.0007752279,0.0183326823,14.7159576416,7.3934173583,21.5575866699
1.7108671665,-0.2119977213,0.0349549153,0.0183326823,14.0293121338,7.3934173583,21.5575866699
1.7134451866,-0.2119977213,0.0349549153,0.0183326823,14.0293121338,7.3934173583,20.2911071777
1.7160181999,-0.2119977213,0.0349549153,0.0183326823,14.0140533447,8.4462738037,20.2911071777
1.7186040878,-0.2119977213,0.0359314779,0.0188209636,14.0140533447,8.4462738037,19.4213562011
1.7211840153,-0.2207867839,0.0359314779,0.0188209636,14.5328521729,8.9650726318,19.4213562011
1.7237610817,-0.2207867839,0.0359314779,0.0188209636,14.5328521729,8.9650726318,19.4213562011
1.7263381481,-0.2207867839,0.0359314779,0.0188209636,14.5175933838,8.8887786865,17.8649597168
1.7290110588,-0.2207867839,0.0393494466,0.0217506510,14.5175933838,8.8887786865,17.8649597168
1.7315881252,-0.2251813151,0.0393494466,0.0217506510,14.1971588135,9.2397308349,16.1101989746
1.7341639996,-0.2251813151,0.0393494466,0.0217506510,14.1971588135,9.2397308349,16.1101989746
1.7367391586,-0.2251813151,0.0393494466,0.0217506510,14.6396636963,10.1094818115,14.6911315918
1.7394931316,-0.2515485026,0.0539978841,-0.0134055990,14.6396636963,10.1094818115,14.6911315918
1.7422020435,-0.2515485026,0.0539978841,-0.0134055990,16.1045074463,11.1623382568,14.0044860840
1.7449049950,-0.2515485026,0.0539978841,-0.0134055990,16.1045074463,11.1623382568,14.0044860840
1.7476551533,-0.2515485026,0.0539978841,-0.0134055990,16.1808013916,11.9100189209,13.1042175293
1.7502222061,-0.2906110026,0.0222596029,-0.0221946614,16.1808013916,11.9100189209,13.1042175293
1.7527971268,-0.2906110026,0.0222596029,-0.0221946614,16.1960601807,13.3596038818,12.7990417480
1.7553679943,-0.2906110026,0.0222596029,-0.0221946614,16.1960601807,13.3596038818,12.7990417480
1.7579810619,-0.2906110026,0.0222596029,-0.0221946614,15.4941558838,14.0157318115,12.0818786621
1.7607951164,-0.3589703776,-0.0016661784,0.0051490886,15.4941558838,14.0157318115,12.0818786621
1.7633681297,-0.3589703776,-0.0016661784,0.0051490886,15.4026031494,13.6647796630,11.7156677246
1.7659461498,-0.3589703776,-0.0016661784,0.0051490886,15.4026031494,13.6647796630,11.7156677246
1.7686982155,-0.3589703776,-0.0016661784,0.0251686198,17.0200347900,12.0320892333,10.8916931152
1.7713670731,-0.3545758463,0.0027283529,0.0251686198,17.0200347900,12.0320892333,10.8916931152
1.7742781639,-0.3545758463,0.0027283529,0.0251686198,21.4145660400,10.5825042724,11.2121276855
1.7769551277,-0.3545758463,0.0027283529,0.0251686198,21.4145660400,10.5825042724,11.2121276855
1.7796552181,-0.3892438151,-0.0138732097,0.0031959636,26.6330718994,9.1786956787,11.6241149902
1.7822220325,-0.3892438151,-0.0138732097,0.0031959636,26.6330718994,9.1786956787,11.6241149902
1.7847890854,-0.3892438151,-0.0138732097,0.0031959636,31.7295074463,7.8816986083,11.6698913574
1.7873630524,-0.3892438151,-0.0138732097,0.0031959636,31.7295074463,7.8816986083,11.6698913574
1.7899370193,-0.4619977213,-0.0553771159,-0.0427024740,35.6357574463,6.5694427490,12.9821472168
1.7925000191,-0.4619977213,-0.0553771159,-0.0427024740,35.8951568604,6.5694427490,12.9821472168
1.7950651646,-0.4619977213,-0.0553771159,-0.0427024740,35.8951568604,2.6631927490,14.5080261230
1.7976992130,-0.4619977213,-0.0553771159,-0.0427024740,39.9845123291,4.8299407959,14.5080261230
1.8002660275,-0.5215680339,-0.0797911784,-0.0446555990,39.9845123291,4.8299407959,15.9728698730
1.8028330803,-0.5215680339,-0.0797911784,-0.0446555990,43.8602447510,3.6397552490,15.9728698730
1.8054051399,-0.5215680339,-0.0797911784,-0.0446555990,43.8602447510,3.6397552490,19.8791198730
1.8080711365,-0.5215680339,-0.0797911784,-0.0446555990,47.3239898682,1.7934417724,16.7510681152
1.8106441498,-0.5577008463,-0.1276427409,-0.0510032552,47.3239898682,1.7934417724,16.7510681152
1.8132162094,-0.5577008463,-0.1276427409,-0.0510032552,50.7419586182,-0.3733062745,18.2922058105
1.8157851696,-0.5577008463,-0.1276427409,-0.0510032552,50.7419586182,-0.3733062745,18.2922058105
1.8184571266,-0.5577008463,-0.1276427409,-0.0510032552,51.5048980713,-2.0975494385,21.3287048340
1.8210351467,-0.5508649089,-0.2257872721,-0.0510032552,51.5048980713,-2.0975494385,21.3287048340
1.8236072063,-0.5508649089,-0.2257872721,-0.0510032552,48.4989166260,-4.3100738526,23.3276062011
1.8261802197,-0.5508649089,-0.2257872721,-0.0510032552,48.4989166260,-4.3100738526,23.3276062011
1.8288471699,-0.5508649089,-0.2257872721,-0.0510032552,41.6019439697,-6.1106109620,24.3804626465
1.8314101696,-0.5611188151,-0.3068419597,-0.0905540364,41.6019439697,-6.1106109620,24.3804626465
1.8339800835,-0.5611188151,-0.3068419597,-0.0905540364,35.8188629150,-7.7433013917,26.8218688965
1.8365540504,-0.5611188151,-0.3068419597,-0.0905540364,35.8188629150,-7.7433013917,26.8218688965
1.8393220901,-0.5611188151,-0.3068419597,-0.0929954427,32.2940826416,-8.7656402588,31.2469177246
1.8419020176,-0.5235211589,-0.2516661784,-0.0929954427,32.2940826416,-8.7656402588,31.2469177246
1.8444671631,-0.5235211589,-0.2516661784,-0.0929954427,28.3878326416,-7.8348541260,36.9231872558
1.8470301628,-0.5235211589,-0.2516661784,-0.0929954427,28.0826568604,-7.8348541260,36.9231872558
1.8497571945,-0.5235211589,-0.2277403971,-0.0558860677,20.2701568604,-6.3852691651,44.4610290527
1.8524479866,-0.4776227213,-0.2277403971,-0.0558860677,22.7268218994,-6.3852691651,44.4610290527
1.8551402092,-0.4776227213,-0.2277403971,-0.0558860677,22.7268218994,-5.0882720948,52.3498229980
1.8578381538,-0.4776227213,-0.2277403971,-0.0558860677,15.6162261963,-5.0882720948,52.3498229980
1.8605279922,-0.4497906901,-0.1794005534,0.0261451823,15.6162261963,-4.6305084229,60.2538757324
1.8632230759,-0.4497906901,-0.1794005534,0.0261451823,8.3988189697,-4.6305084229,60.2538757324
1.8659110069,-0.4497906901,-0.1794005534,0.0261451823,8.3988189697,-4.7525787354,67.3797302246
1.8686110973,-0.4497906901,-0.1794005534,0.0261451823,3.2566070557,-4.7525787354,67.3797302246
1.8712940216,-0.4429547526,-0.0255919597,0.1975319010,3.2566070557,-8.6588287354,75.6194763183
1.8739831448,-0.4429547526,-0.0255919597,0.1975319010,0.4489898682,-5.8969879151,75.6194763183
1.8766732216,-0.4429547526,-0.0255919597,0.1975319010,0.4489898682,-5.8969879151,85.6597595215
1.8793561459,-0.4429547526,-0.0255919597,0.1975319010,-2.1450042724,-6.4005279541,85.6597595215
1.8821539879,-0.5757672526,0.3625916341,0.2800514323,-2.1450042724,-7.4076080323,96.8444519043
1.8849880695,-0.5757672526,0.3625916341,0.2800514323,-1.3362884521,-7.4076080323,96.8444519043
1.8881402016,-0.5757672526,0.3625916341,0.2800514323,1.3797760010,-9.5438385010,108.1054382324
1.8908431530,-0.6553570963,0.7795838216,0.2907936198,1.3797760010,-9.5438385010,108.1054382324
1.8935461044,-0.6553570963,0.7795838216,0.2907936198,7.8342437744,-13.1143951417,118.6034851074
1.8962531090,-0.6553570963,0.7795838216,0.2907936198,7.8342437744,-13.1143951417,118.6034851074
1.8989090919,-0.6553570963,0.7795838216,0.2907936198,19.5529937744,-15.5100250245,129.2083435058
1.9014801979,-0.7217633463,0.9470642903,0.2932350260,20.1938629150,-15.5100250245,129.2083435058
1.9041640759,-0.7217633463,0.9470642903,0.2932350260,20.1938629150,-17.1274566651,138.8061218261
1.9067471027,-0.7217633463,0.9470642903,0.2932350260,35.0711822510,-17.1274566651,138.8061218261
1.9094371796,-0.7217633463,0.9470642903,0.2932350260,35.0711822510,-21.0337066651,150.0823669433
1.9121441841,-0.7500836589,1.0203064779,0.3581764323,47.3392486572,-20.4386138917,150.0823669433
1.9148621559,-0.7500836589,1.0203064779,0.3581764323,47.3392486572,-24.3448638917,159.0087585449
1.9175791740,-0.7500836589,1.0203064779,0.3581764323,55.5637359619,-21.9644927979,159.0087585449
1.9201560020,-0.7500836589,1.0203064779,0.2756569010,55.5637359619,-21.9644927979,160.5651550293
1.9227311611,-0.8228375651,0.6902283529,0.2756569010,60.1261138916,-20.3012847901,160.5651550293
1.9253041744,-0.8228375651,0.6902283529,0.2756569010,60.1261138916,-20.3012847901,168.3776550293
1.9279351234,-0.8228375651,0.6902283529,0.2756569010,63.6356353760,-20.4386138917,168.8659362793
1.9305090904,-0.8228375651,0.4402283529,0.2043678386,63.6356353760,-20.4386138917,168.8659362793
1.9330852032,-0.7886578776,0.5080994466,0.2043678386,65.6040191650,-21.4609527588,174.7405700683
1.9356610775,-0.7886578776,0.5080994466,0.2043678386,65.6040191650,-21.4609527588,174.7405700683
1.9382710457,-0.7886578776,0.5080994466,0.2043678386,64.4596099854,-22.4069976807,178.3416442871
1.9408581257,-0.7886578776,0.3625916341,0.1604225260,64.4596099854,-22.4069976807,178.3416442871
1.9434411526,-0.6538922526,0.3625916341,0.1604225260,64.3222808838,-21.9950103760,178.2348327637
1.9460182190,-0.6538922526,0.3625916341,0.1604225260,64.3222808838,-21.9950103760,178.2348327637
1.9486842155,-0.6538922526,0.3625916341,0.1604225260,63.6661529541,-19.9961090088,178.6468200683
1.9512631893,-0.5489117839,0.2751892903,0.0915748698,63.6661529541,-19.9961090088,178.6468200683
1.9538362026,-0.5489117839,0.2751892903,0.0915748698,64.4290924072,-19.2636871338,178.2806091308
1.9564161301,-0.5489117839,0.2751892903,0.0915748698,64.4290924072,-19.2636871338,178.2806091308
1.9590761662,-0.5489117839,0.2751892903,0.0915748698,64.0781402588,-19.5230865479,177.4413757324
1.9617850780,-0.4502789713,0.2385681966,0.0627662760,64.0781402588,-19.5230865479,177.4413757324
1.9644939899,-0.4502789713,0.2385681966,0.0627662760,64.2307281494,-18.6075592041,175.5340270996
1.9675860405,-0.4502789713,0.2385681966,0.0627662760,64.2307281494,-18.6075592041,175.5340270996
1.9702570438,-0.4502789713,0.2385681966,0.0627662760,66.0770416260,-16.9443511963,172.8484802246
1.9734621048,-0.3819195963,0.1711853841,0.0461647136,66.0770416260,-16.9443511963,172.8484802246
1.9767160416,-0.3819195963,0.1711853841,0.0461647136,65.6040191650,-14.3198394776,169.4305114746
1.9793272018,-0.3819195963,0.1711853841,0.0461647136,65.6040191650,-14.3198394776,169.4305114746
1.9819030762,-0.3286969401,0.0979431966,0.0149147136,63.1778717041,-11.3138580323,166.0888366699
1.9844760895,-0.3286969401,0.0979431966,0.0149147136,63.1778717041,-11.3138580323,166.0888366699
1.9870431423,-0.3286969401,0.0979431966,0.0149147136,58.6154937744,-9.3759918213,162.7776794433
1.9896709919,-0.3286969401,0.0979431966,0.0149147136,58.6154937744,-9.3759918213,162.7776794433
1.9922420979,-0.2720563151,0.0456971029,-0.0036399740,53.7631988526,-8.0179595948,159.3902282715
1.9948091507,-0.2720563151,0.0456971029,-0.0036399740,53.7631988526,-8.0179595948,159.3902282715
1.9973850250,-0.2720563151,0.0456971029,-0.0036399740,50.5741119385,-6.2479400635,155.0719909668
2.0000040531,-0.2720563151,0.0456971029,-0.0036399740,50.5741119385,-6.2479400635,155.0719909668
2.0025751591,-0.2046735026,0.0061463216,-0.0060813802,44.7299957276,-3.9133453370,150.7842712402
2.0051481724,-0.2046735026,0.0061463216,-0.0060813802,44.7299957276,-3.9133453370,150.7842712402
2.0077571869,-0.2046735026,0.0061463216,-0.0060813802,36.9174957276,-2.5247955323,147.3968200683
2.0103302002,-0.2046735026,0.0061463216,-0.0060813802,38.0313873291,-2.5247955323,147.3968200683
2.0129032135,-0.1202008463,-0.0534239909,-0.0182884114,38.0313873291,-2.5247955323,142.7581481933
2.0154712200,-0.1202008463,-0.0534239909,-0.0182884114,31.2259674072,-2.2043609620,142.7581481933
2.0182411671,-0.1202008463,-0.0534239909,-0.0182884114,31.2259674072,1.7018890380,136.8987731933
2.0208170414,-0.1202008463,-0.0534239909,-0.1432884114,24.2984771729,-1.3956451417,136.8987731933
2.0233941078,-0.0503766276,-0.1252013347,-0.0387962240,24.2984771729,-1.3956451417,131.7260437011
2.0259821415,-0.0503766276,-0.1252013347,-0.0387962240,16.3486480713,0.0844573974,131.7260437011
2.0286931992,-0.0503766276,-0.1252013347,-0.0387962240,16.3486480713,0.0844573974,127.8197937011
2.0315170288,-0.0503766276,-0.1676818034,-0.0529563802,7.5595855713,1.4730072021,126.4922790527
2.0342121124,0.0311663411,-0.1676818034,-0.0529563802,7.5595855713,1.4730072021,120.1446228027
2.0368981361,0.0311663411,-0.1676818034,-0.0529563802,-0.8022308350,2.2206878662,120.1446228027
2.0395841599,0.0311663411,-0.1676818034,-0.0529563802,-0.8022308350,2.2206878662,112.3321228027
2.0422492027,0.1542132161,-0.1720763347,-0.0568626302,-7.8212738037,2.1443939209,112.6220397949
2.0449120998,0.1542132161,-0.1720763347,-0.0568626302,-7.8212738037,2.1443939209,104.8095397949
2.0475780964,0.1542132161,-0.1720763347,-0.0568626302,-13.3144378662,2.1291351318,105.5114440918
2.0501580238,0.1542132161,-0.1720763347,-0.0568626302,-13.3144378662,2.1291351318,105.5114440918
2.0527381897,0.2118304037,-0.1720763347,-0.0607688802,-17.7242279053,3.2125091552,98.2482604980
2.0553071499,0.2118304037,-0.1720763347,-0.0607688802,-17.7242279053,3.2125091552,98.2482604980
2.0579521656,0.2118304037,-0.1720763347,-0.0607688802,-22.0729827881,4.0975189209,90.2984313965
2.0606679916,0.2118304037,-0.1720763347,-0.0607688802,-22.0729827881,4.0975189209,90.2984313965
2.0633749962,0.2840960287,-0.2414122721,-0.0661399740,-26.8795013428,3.9296722412,80.9142761230
2.0660851002,0.2840960287,-0.2414122721,-0.0661399740,-26.8795013428,3.9296722412,80.9142761230
2.0689311028,0.2840960287,-0.2414122721,-0.0661399740,-30.8467864990,4.5247650146,71.6216735840
2.0716011524,0.2840960287,-0.2414122721,-0.0676048177,-30.8467864990,4.5247650146,71.6216735840
2.0743501186,0.3119280599,-0.2707091471,-0.0676048177,-33.3644866943,5.3182220459,62.7410583496
2.0769240856,0.3119280599,-0.2707091471,-0.0676048177,-33.3644866943,5.3182220459,62.7410583496
2.0795881748,0.3119280599,-0.2707091471,-0.0676048177,-33.8985443115,5.6539154052,54.0130310058
2.0821561813,0.3119280599,-0.2809630534,-0.0661399740,-33.8985443115,5.6539154052,54.0130310058
2.0847220421,0.3334124349,-0.2809630534,-0.0661399740,-36.2331390381,6.2337493896,44.9035339355
2.0872921944,0.3334124349,-0.2809630534,-0.0661399740,-36.2331390381,6.2337493896,44.9035339355
2.0898840427,0.3334124349,-0.2809630534,-0.0661399740,-38.2472991943,6.7220306396,36.4196472168
2.0924491882,0.4584124349,-0.2472716471,-0.0583274740,-38.2472991943,6.7220306396,36.4196472168
2.0951352119,0.3412249349,-0.2472716471,-0.0583274740,-40.3377532959,6.9661712646,28.4087829590
2.0977520943,0.3412249349,-0.2472716471,-0.0583274740,-40.3377532959,6.9661712646,28.4087829590
2.1003141403,0.3412249349,-0.2472716471,-0.0583274740,-40.3377532959,5.6386566162,20.6420593261
2.1028840542,0.3656389974,-0.2252989909,-0.0412376302,-43.1301116943,5.6386566162,20.6420593261
2.1054530144,0.3656389974,-0.2252989909,-0.0412376302,-43.1301116943,5.6386566162,13.0889587402
2.1080272198,0.3656389974,-0.2252989909,-0.0412376302,-44.9459075928,4.7841644287,13.0889587402
2.1105980873,0.3656389974,-0.2252989909,-0.0412376302,-44.9459075928,4.7841644287,6.0851745605
2.1131629944,0.3885882161,-0.2096739909,-0.0378196614,-44.8696136474,4.7078704833,6.0851745605
2.1157321930,0.3885882161,-0.2096739909,-0.0378196614,-44.8696136474,4.7078704833,-1.7273254395
2.1184501648,0.3885882161,-0.2096739909,-0.0378196614,-43.2521820068,5.0740814209,-1.0406799317
2.1210160255,0.3885882161,-0.2096739909,-0.0378196614,-43.2521820068,5.0740814209,-1.0406799317
2.1235849857,0.4169085287,-0.1911193034,-0.0383079427,-40.1393890381,5.3334808349,-9.2499084473
2.1261551380,0.4169085287,-0.1911193034,-0.0383079427,-40.1393890381,5.3334808349,-9.2499084473
2.1289141178,0.4169085287,-0.1911193034,-0.0383079427,-36.5840911865,4.5400238037,-17.7490539551
2.1316220760,0.4169085287,-0.1911193034,-0.0383079427,-36.5840911865,4.5400238037,-17.7490539551
2.1343321800,0.4398577474,-0.2204161784,-0.0397727864,-33.7001800537,3.8533782959,-25.5768127442
2.1370401382,0.4398577474,-0.2204161784,-0.0397727864,-33.7001800537,3.8533782959,-25.5768127442
2.1397571564,0.4398577474,-0.2204161784,-0.0397727864,-30.4805755615,4.2043304443,-34.1064758301
2.1424651146,0.4398577474,-0.3454161784,-0.0290305990,-30.4805755615,4.2043304443,-34.1064758301
2.1451711655,0.4213030599,-0.2619200847,-0.0290305990,-27.3067474365,4.4179534912,-42.1936340332
2.1478641033,0.4213030599,-0.2619200847,-0.0290305990,-27.3067474365,4.4179534912,-42.1936340332
2.1504340172,0.4213030599,-0.2619200847,-0.0290305990,-24.9568939209,4.6468353271,-48.5870666504
2.1530070305,0.4213030599,-0.2462950847,-0.0285423177,-24.9568939209,4.6468353271,-48.5870666504
2.1555831432,0.3876116537,-0.2462950847,-0.0285423177,-24.3007659912,4.6620941162,-54.2633361817
2.1583161354,0.3876116537,-0.2462950847,-0.0285423177,-24.3007659912,4.6620941162,-54.2633361817
2.1610240936,0.3876116537,-0.2462950847,-0.0285423177,-22.4239349365,4.5552825927,-60.3210754395
2.1637320518,0.4032366537,-0.2448302409,-0.0261009114,-22.4239349365,4.5552825927,-60.3210754395
2.1664412022,0.4032366537,-0.2448302409,-0.0261009114,-21.5999603271,5.0588226318,-66.6839904785
2.1692061424,0.4032366537,-0.2448302409,-0.0261009114,-21.5999603271,5.0588226318,-66.6839904785
2.1719090939,0.4032366537,-0.2448302409,-0.0261009114,-22.8664398193,5.3487396240,-71.8262023926
2.1746110916,0.4076311849,-0.2262755534,-0.0373313802,-22.8664398193,5.3487396240,-71.8262023926
2.1773200035,0.4076311849,-0.2262755534,-0.0373313802,-25.1552581787,5.9438323974,-77.1667785645
2.1800370216,0.4076311849,-0.2262755534,-0.0373313802,-25.1552581787,5.9438323974,-77.1667785645
2.1827430725,0.4076311849,-0.1012755534,-0.0441673177,-27.7492523193,5.8980560302,-82.6141662598
2.1855580807,0.4149554037,-0.1935607097,-0.0441673177,-27.7492523193,5.8980560302,-82.6141662598
2.1885700226,0.4149554037,-0.1935607097,-0.0441673177,-29.2293548584,5.4097747802,-87.1612854004
2.1912791729,0.4149554037,-0.1935607097,-0.0441673177,-29.2293548584,5.4097747802,-87.1612854004
2.1939880848,0.4315569661,-0.2067443034,-0.0456321614,-30.6026458740,5.6844329833,-92.8528137207
2.1966969967,0.4315569661,-0.2067443034,-0.0456321614,-30.6026458740,5.6844329833,-92.8528137207
2.1993200779,0.4315569661,-0.2067443034,-0.0456321614,-34.0816497803,6.2337493896,-98.0102844239
2.2018980980,0.4315569661,-0.2067443034,-0.0456321614,-34.0816497803,6.2337493896,-98.0102844239
2.2044742107,0.3866350911,-0.2199278971,-0.0534446614,-37.0876312256,6.3863372802,-103.4881896973
2.2070491314,0.3866350911,-0.2199278971,-0.0534446614,-37.0876312256,6.3863372802,-103.4881896973
2.2097821236,0.3866350911,-0.2199278971,-0.0534446614,-40.1241302490,6.9051361083,-108.2336730957
2.2124969959,0.3866350911,-0.2199278971,-0.0534446614,-40.1241302490,6.9051361083,-108.2336730957
2.2152040005,0.3783343099,-0.2018614909,-0.0475852864,-43.5420989990,7.2103118896,-112.2925109863
2.2179391384,0.3783343099,-0.2018614909,-0.0475852864,-43.5420989990,7.2103118896,-112.2925109863
2.2205140591,0.3783343099,-0.2018614909,-0.0475852864,-46.1513519287,7.8511810302,-116.3055725098
2.2231941223,0.3783343099,-0.2018614909,-0.0348899740,-46.1513519287,7.8511810302,-116.3055725098
2.2257661819,0.3636858724,-0.1408263347,-0.0348899740,-49.2031097412,8.5836029052,-119.5404357910
2.2283561230,0.3636858724,-0.1408263347,-0.0348899740,-49.2031097412,8.5836029052,-119.5404357910
2.2309319973,0.3636858724,-0.1408263347,-0.0348899740,-49.2031097412,8.2631683349,-123.4772033692
2.2335031033,0.3636858724,-0.0719786784,-0.0168235677,-49.5540618896,8.2631683349,-123.4772033692
2.2360780239,0.3768694661,-0.0719786784,-0.0168235677,-49.5540618896,8.1868743896,-127.0172424317
2.2388021946,0.3768694661,-0.0719786784,-0.0168235677,-47.9976654053,8.1868743896,-127.0172424317
2.2413752079,0.3768694661,-0.0719786784,-0.0168235677,-47.9976654053,8.1868743896,-129.8858947754
2.2439520359,0.3768694661,-0.0085021159,-0.0041282552,-46.2886810303,8.3394622802,-129.8858947754
2.2465231419,0.3509905599,-0.0085021159,-0.0041282552,-46.2886810303,8.3394622802,-132.5104064942
2.2491970062,0.3509905599,-0.0085021159,-0.0041282552,-45.7851409912,8.5530853271,-132.5104064942
2.2517731190,0.3509905599,-0.0085021159,-0.0041282552,-45.7851409912,8.5530853271,-132.5104064942
2.2543430328,0.3080218099,0.0295838216,0.0105201823,-45.9835052490,8.7209320068,-134.3719787598
2.2569200993,0.3080218099,0.0295838216,0.0105201823,-45.9835052490,8.7209320068,-134.3719787598
2.2596120834,0.3080218099,0.0295838216,0.0105201823,-45.9377288818,8.6751556396,-136.1267395020
2.2623231411,0.3080218099,0.0295838216,0.0105201823,-45.9377288818,8.6751556396,-136.1267395020
2.2650301456,0.3080218099,0.0720642903,0.0183326823,-46.0597991943,8.6598968505,-136.9659729004
2.2677512169,0.3080218099,0.0720642903,0.0183326823,-46.0597991943,8.6598968505,-136.9659729004
2.2704591751,0.3080218099,0.0720642903,0.0183326823,-46.7769622803,8.4157562255,-138.1103820801
2.2733001709,0.3080218099,0.0720642903,0.0183326823,-46.7769622803,8.4157562255,-138.1103820801
2.2758769989,0.2704241537,0.1208924153,0.0222389323,-46.6854095459,8.4920501709,-138.6291809082
2.2786681652,0.2704241537,0.1208924153,0.0222389323,-46.6854095459,8.4920501709,-138.6291809082
2.2813410759,0.2704241537,0.1208924153,0.0222389323,-45.8919525146,8.4920501709,-138.5681457520
2.2843811512,0.2328264974,0.2043885091,0.0310279948,-45.8919525146,8.4920501709,-138.5681457520
2.2870681286,0.2328264974,0.2043885091,0.0310279948,-44.4728851318,8.8582611083,-139.0869445801
2.2897131443,0.2328264974,0.2043885091,0.0310279948,-44.4728851318,8.8582611083,-139.0869445801
2.2922921181,0.2328264974,0.2043885091,0.0310279948,-42.5502777100,8.9498138427,-138.5681457520
2.2948641777,0.1952288411,0.2458924153,0.0280983073,-42.5502777100,8.9498138427,-138.5681457520
2.2974860668,0.1952288411,0.2458924153,0.0280983073,-40.9328460693,9.4838714599,-137.3932189942
2.3000650406,0.1952288411,0.2458924153,0.0280983073,-40.9328460693,9.4838714599,-137.3932189942
2.3026390076,0.1952288411,0.2458924153,0.0280983073,-43.6031341553,9.4228363037,-135.0128479004
2.3052191734,0.1756975911,0.2590760091,0.0315162760,-43.6031341553,9.4228363037,-135.0128479004
2.3078000546,0.1756975911,0.2590760091,0.0315162760,-47.1431732178,9.0413665771,-132.8003234863
2.3103761673,0.1756975911,0.2590760091,0.0315162760,-47.1431732178,9.0413665771,-132.8003234863
2.3129510880,0.1756975911,0.2590760091,0.0315162760,-48.3028411865,9.3160247802,-131.0455627442
2.3155241013,0.1756975911,0.3464783529,0.0305397136,-48.3028411865,9.3160247802,-131.0455627442
2.3181400299,0.1756975911,0.3464783529,0.0305397136,-47.9366302490,9.7737884521,-129.0161437989
2.3207180500,0.1756975911,0.3464783529,0.0305397136,-47.9366302490,9.7737884521,-129.0161437989
2.3232960701,0.1756975911,0.3464783529,0.0305397136,-47.9366302490,9.2244720459,-126.2695617676
2.3258759975,0.1659319661,0.4119080403,0.0515358073,-47.2805023193,9.2244720459,-126.2695617676
2.3286402225,0.1659319661,0.4119080403,0.0515358073,-47.2805023193,9.2244720459,-123.5687561035
2.3312110901,0.1659319661,0.4119080403,0.0515358073,-46.2123870850,8.7056732177,-123.5687561035
2.3337922096,0.1659319661,0.4119080403,0.0515358073,-46.2123870850,8.7056732177,-120.4254455567
2.3363690376,0.1244280599,0.4641541341,0.0696022136,-43.8625335693,8.6141204833,-120.4254455567
2.3390741348,0.1244280599,0.4641541341,0.0696022136,-43.8625335693,8.6141204833,-112.6129455567
2.3416521549,0.1244280599,0.4641541341,0.0696022136,-41.1769866943,8.0648040771,-115.9851379395
2.3442270756,0.1244280599,0.4641541341,0.0813209636,-41.1769866943,8.0648040771,-115.9851379395
2.3468000889,0.0638811849,0.4924744466,0.0813209636,-38.4609222412,8.6293792724,-110.8887023926
2.3494861126,0.0638811849,0.4924744466,0.0813209636,-38.4609222412,8.6293792724,-110.8887023926
2.3520591259,0.0638811849,0.4924744466,0.0813209636,-37.2554779053,8.6904144287,-104.9072570801
2.3546390533,0.0638811849,0.5076111653,0.0520240886,-37.2554779053,8.6904144287,-104.9072570801
2.3572142124,0.0165179037,0.5076111653,0.0520240886,-36.9503021240,8.9650726318,-98.8800354004
2.3598351479,0.0165179037,0.5076111653,0.0520240886,-36.9503021240,8.9650726318,-98.8800354004
2.3624141216,0.0165179037,0.5076111653,0.0520240886,-37.0113372803,9.8500823974,-92.9443664551
2.3649880886,0.0165179037,0.5671814779,0.0261451823,-37.0113372803,9.8500823974,-92.9443664551
2.3675711155,0.0257952474,0.5671814779,0.0261451823,-36.0347747803,9.8958587646,-87.8174133301
2.3702840805,0.0257952474,0.5671814779,0.0261451823,-36.0347747803,9.8958587646,-87.8174133301
2.3730001450,0.0257952474,0.5671814779,0.0261451823,-35.5007171631,10.4909515380,-82.5226135254
2.3758060932,0.0018694661,0.6047791341,0.0388404948,-35.5007171631,10.4909515380,-82.5226135254
2.3784940243,0.0018694661,0.6047791341,0.0388404948,-34.6004486084,10.8113861083,-76.7242736817
2.3811671734,0.0018694661,0.6047791341,0.0388404948,-34.6004486084,10.8113861083,-76.7242736817
2.3843832016,0.0018694661,0.6047791341,0.0388404948,-33.9748382568,11.1470794677,-70.6054992676
2.3869550228,-0.0332867839,0.5598572591,0.0334694010,-33.9748382568,11.1470794677,-70.6054992676
2.3896260262,-0.0332867839,0.5598572591,0.0334694010,-33.3492279053,11.6353607177,-64.1662902832
2.3921999931,-0.0332867839,0.5598572591,0.0334694010,-33.3492279053,11.6353607177,-64.1662902832
2.3947710991,-0.0332867839,0.5598572591,0.0212623698,-33.6544036865,11.6201019287,-57.5744934082
2.3973410130,-0.0166852213,0.5139588216,0.0212623698,-33.6544036865,11.6201019287,-57.5744934082
2.3999261856,-0.0166852213,0.5139588216,0.0212623698,-34.0969085693,11.5743255615,-50.4791564942
2.4024980068,-0.0166852213,0.5139588216,0.0212623698,-34.0969085693,11.5743255615,-50.4791564942
2.4050722122,-0.0166852213,0.5139588216,0.0363990886,-34.0969085693,11.2233734130,-44.0094299317
2.4077031612,0.0189593099,0.4695252279,0.0363990886,-34.2037200928,11.2233734130,-44.0094299317
2.4102799892,0.0189593099,0.4695252279,0.0363990886,-34.2037200928,11.2233734130,-39.2792053223
2.4129521847,0.0189593099,0.4695252279,0.0363990886,-34.2647552490,10.5977630615,-39.2792053223
2.4155271053,-0.2310406901,0.5203064779,0.3498756510,-34.2647552490,10.5977630615,-33.8165588379
2.4181561470,-0.1758649089,0.5203064779,0.3498756510,-45.1900482178,1.5645599365,-33.8165588379
2.4207251072,-0.1758649089,0.5203064779,0.3498756510,-45.1900482178,1.5645599365,-26.0040588379
2.4232921600,-0.1758649089,0.5203064779,0.3498756510,-69.2531585693,-12.1988677979,-23.0591125489
2.4258642197,-0.3311383463,1.3635681966,0.6985084636,-69.2531585693,-12.1988677979,4.2846374511
2.4285960197,-0.3311383463,1.3635681966,0.6985084636,-62.5545501709,-11.5122222901,1.1565856933
2.4311621189,-0.3311383463,1.3635681966,0.6985084636,-62.5545501709,-11.5122222901,1.1565856933
2.4337291718,-0.3311383463,1.3635681966,0.6985084636,-16.3509368896,-11.0849761963,28.1951599121
2.4362981319,-0.6265485026,2.4973572591,0.4250709636,-16.3509368896,-11.0849761963,28.1951599121
2.4390110970,-0.6265485026,2.4973572591,0.4250709636,24.3747711182,-13.2364654541,36.1602478027
2.4415810108,-0.6265485026,2.4973572591,0.4250709636,24.3747711182,-13.2364654541,36.1602478027
2.4441530704,-0.6265485026,2.4973572591,0.4250709636,43.4940338135,-7.0871734620,32.9406433105
2.4467191696,-0.3531110026,0.9338806966,-0.1559837240,43.4940338135,-7.0871734620,32.9406433105
2.4492959976,-0.3531110026,0.9338806966,-0.1559837240,38.9011383057,0.5269622802,35.7482604980
2.4518661499,-0.3531110026,0.9338806966,-0.1559837240,38.9011383057,0.5269622802,35.7482604980
2.4544351101,-0.3531110026,0.9338806966,-0.1559837240,14.5938873291,2.8768157959,44.8424987793
2.4570062160,-0.1958844401,-0.0163146159,-0.4084251302,14.5938873291,2.8768157959,44.8424987793
2.4597420692,-0.1958844401,-0.0163146159,-0.4084251302,3.6685943604,-0.4801177979,54.6081237793
2.4624471664,-0.1958844401,-0.0163146159,-0.4084251302,3.6685943604,-0.4801177979,54.6081237793
2.4651432037,-0.1958844401,-0.0163146159,-0.0334251302,11.0996246338,-8.3689117432,61.0625915527
2.4678502083,-0.0933453776,-0.0866271159,-0.0094993490,11.0996246338,-8.3689117432,61.0625915527
2.4705572128,-0.0933453776,-0.0866271159,-0.0094993490,15.4483795166,-9.0860748291,62.7257995605
2.4732680321,-0.0933453776,-0.0866271159,-0.0094993490,15.4483795166,-9.0860748291,62.7257995605
2.4759712219,-0.0933453776,-0.0734435221,0.0471412760,14.8685455322,-3.9591217041,58.4533386230
2.4790210724,-0.0161969401,-0.0734435221,0.0471412760,14.8685455322,-3.9591217041,58.4533386230
2.4816951752,-0.0161969401,-0.0734435221,0.0471412760,13.4037017822,-2.6773834229,52.4718933105
2.4849040508,-0.0161969401,-0.0734435221,0.0471412760,13.4037017822,-2.6773834229,52.4718933105
2.4875040054,0.0204241537,-0.2311583659,-0.0436790364,11.9998931885,-4.3405914307,48.9471130371
2.4900732040,0.0204241537,-0.2311583659,-0.0436790364,11.9998931885,-4.3405914307,48.9471130371
2.4926431179,0.0204241537,-0.2311583659,-0.0436790364,8.3835601807,-4.7678375245,46.1089782715
2.4952151775,0.0204241537,-0.2311583659,-0.0436790364,8.3835601807,-4.7678375245,46.1089782715
2.4977900982,0.0311663411,-0.3908263347,-0.0329368490,0.5710601807,-3.7607574463,42.6299743652
2.5003631115,0.0311663411,-0.3908263347,-0.0329368490,3.2108306885,-3.7607574463,42.6299743652
2.5029320717,0.0311663411,-0.3908263347,-0.0329368490,3.2108306885,-2.8147125245,39.3645935058
2.5054981709,0.0311663411,-0.3908263347,-0.1579368490,0.3726959229,-2.8147125245,39.3645935058
2.5081369877,0.0492327474,-0.2585021159,-0.0617454427,0.3726959229,-2.8147125245,39.7155456543
2.5107040405,0.0492327474,-0.2585021159,-0.0617454427,0.4337310791,-5.6223297120,39.7155456543
2.5132741928,0.0492327474,-0.2585021159,-0.0617454427,0.4337310791,-5.6223297120,43.6217956543
2.5158441067,0.0492327474,-0.2585021159,0.0832740886,0.0980377197,-12.2446441651,41.0735778808
2.5184180737,0.1473772787,0.1316346029,0.0832740886,0.0980377197,-12.2446441651,41.0735778808
2.5209960938,0.1473772787,0.1316346029,0.0832740886,0.8152008057,-15.4947662354,39.2882995605
2.5235631466,0.1473772787,0.1316346029,0.0832740886,0.8152008057,-15.4947662354,39.2882995605
2.5261311531,0.1473772787,0.3816346029,0.0822975260,6.0031890869,-16.1356353760,35.7787780761
2.5288591385,0.0814593099,0.3303650716,0.0822975260,6.0031890869,-16.1356353760,35.7787780761
2.5314271450,0.0814593099,0.3303650716,0.0822975260,6.8881988526,-16.1508941651,33.3831481933
2.5339970589,0.0814593099,0.3303650716,0.0822975260,6.8881988526,-16.1508941651,33.3831481933
2.5365722179,0.0814593099,0.2747010091,-0.0246360677,5.1334381104,-15.3574371338,33.5204772949
2.5392310619,0.0052874349,0.2747010091,-0.0246360677,5.1334381104,-15.3574371338,33.5204772949
2.5419201851,0.0052874349,0.2747010091,-0.0246360677,2.0511627197,-12.8397369385,33.5357360840
2.5444910526,0.0052874349,0.2747010091,-0.0246360677,2.0511627197,-12.8397369385,33.5357360840
2.5470561981,-0.0025250651,0.1345642903,-0.1232688802,2.4173736572,-10.5814361573,33.6883239746
2.5496871471,-0.0025250651,0.1345642903,-0.1232688802,2.4173736572,-10.5814361573,33.6883239746
2.5522511005,-0.0025250651,0.1345642903,-0.1232688802,4.2179107666,-9.8947906495,33.2000427246
2.5548160076,-0.0025250651,0.1345642903,-0.1232688802,4.2179107666,-9.8947906495,33.2000427246
2.5573861599,-0.0137555339,0.0583924153,-0.1305930990,4.2179107666,-8.2163238526,32.3455505371
2.5599930286,-0.0137555339,0.0583924153,-0.1305930990,5.2097320557,-8.2163238526,32.3455505371
2.5625631809,-0.0137555339,0.0583924153,-0.1305930990,5.2097320557,-8.2163238526,30.8044128418
2.5651249886,-0.0137555339,0.0583924153,-0.1305930990,6.2168121338,-7.0108795167,30.8044128418
2.5677480698,-0.1675641276,0.0735291341,-0.0114524740,6.2168121338,-7.0108795167,29.0191345215
2.5704741478,-0.1675641276,0.0735291341,-0.0114524740,1.1966705322,-4.8746490479,29.0191345215
2.5731761456,-0.1675641276,0.0735291341,-0.0114524740,1.1966705322,-4.8746490479,29.0649108887
2.5758759975,-0.1675641276,0.0735291341,-0.0114524740,-2.7553558350,-2.5247955323,29.0649108887
2.5786001682,-0.2246930339,0.0632752279,0.0603248698,-2.7553558350,-2.5247955323,29.0191345215
2.5815010071,-0.2246930339,0.0632752279,0.0603248698,-7.5618743896,-2.9520416260,29.0191345215
2.5841910839,-0.2246930339,0.0632752279,0.0603248698,-7.5618743896,-2.9520416260,28.2409362793
2.5868830681,-0.2246930339,0.0818299153,0.0749733073,-11.9411468506,-2.2043609620,28.2409362793
2.5895800591,-0.1934430339,0.0818299153,0.0749733073,-11.9411468506,-2.2043609620,26.5624694824
2.5921680927,-0.1934430339,0.0818299153,0.0749733073,-9.9422454834,-2.4485015870,26.5624694824
2.5948851109,-0.1934430339,0.0818299153,0.0749733073,-9.9422454834,-2.4485015870,22.6562194824
2.5982160568,-0.2193219401,0.1667908529,0.0754615886,-9.3776702881,-3.4708404541,24.4262390137
2.6009662151,-0.2193219401,0.1667908529,0.0754615886,-9.3776702881,-3.3945465088,21.8932800293
2.6035330296,-0.2193219401,0.1667908529,0.0754615886,-8.1722259521,-3.3945465088,21.8932800293
2.6062099934,-0.2193219401,0.1667908529,0.0754615886,-8.1722259521,-3.3945465088,18.7957458496
2.6087841988,-0.1675641276,0.1990174153,0.0705787760,-6.7836761474,-3.1504058838,18.7957458496
2.6114900112,-0.1675641276,0.1990174153,0.0705787760,-6.7836761474,-3.1504058838,15.8202819824
2.6140530109,-0.1675641276,0.1990174153,0.0705787760,-6.0359954834,-3.3182525635,15.8202819824
2.6166121960,-0.1675641276,0.1990174153,0.0705787760,-6.0359954834,-3.3182525635,11.9140319824
2.6191790104,-0.0782086589,0.2092713216,0.0549537760,-6.0054779053,-3.0435943604,12.4175720215
2.6219260693,-0.0782086589,0.2092713216,0.0549537760,-6.0054779053,-3.0435943604,12.4175720215
2.6244840622,-0.0782086589,0.2092713216,0.0549537760,-5.0746917724,-3.9591217041,9.3047790527
2.6270470619,-0.0782086589,0.2092713216,0.0622779948,-5.0746917724,-3.9591217041,9.3047790527
2.6296470165,-0.0337750651,0.2190369466,0.0622779948,-3.8997650146,-5.0424957276,6.4056091308
2.6323339939,-0.0337750651,0.2190369466,0.0622779948,-3.8997650146,-5.0424957276,6.4056091308
2.6348960400,-0.0337750651,0.2190369466,0.0622779948,-3.4877777100,-5.4087066651,3.6742858887
2.6374862194,-0.0337750651,0.1853455403,0.0622779948,-3.4877777100,-5.4087066651,3.6742858887
2.6400511265,-0.0410992839,0.1853455403,0.0622779948,-2.9384613037,-5.8817291260,1.2939147949
2.6426160336,-0.0410992839,0.1853455403,0.0622779948,-2.9384613037,-5.8817291260,1.2939147949
2.6451752186,-0.0410992839,0.1853455403,0.0622779948,-3.2741546631,-6.3089752198,-0.0183410645
2.6478691101,-0.0410992839,0.1384705403,0.0827858073,-3.2741546631,-6.3089752198,-0.0183410645
2.6504290104,-0.0772320963,0.1384705403,0.0827858073,-4.2812347412,-6.5988922120,-1.3611145020
2.6529932022,-0.0772320963,0.1384705403,0.0827858073,-4.2812347412,-6.5988922120,-1.3611145020
2.6555531025,-0.0772320963,0.1384705403,0.0827858073,-8.1874847412,-6.9193267823,-1.8951721192
2.6582410336,-0.0923688151,0.1086853841,0.1042701823,-5.3340911865,-6.9193267823,-1.8951721192
2.6608071327,-0.0923688151,0.1086853841,0.1042701823,-5.3340911865,-6.6751861573,-2.3529357910
2.6633679867,-0.0923688151,0.1086853841,0.1042701823,-6.0359954834,-6.6751861573,-2.3529357910
2.6659300327,-0.0923688151,0.1086853841,0.1042701823,-6.0359954834,-6.6751861573,-3.2684631348
2.6686270237,-0.0718610026,0.1335877279,0.1037819010,-6.4479827881,-6.4615631104,-3.2684631348
2.6713221073,-0.0718610026,0.1335877279,0.1037819010,-6.4479827881,-6.4615631104,-4.3976135254
2.6738851070,-0.0718610026,0.1335877279,0.1037819010,-5.7460784912,-6.1869049073,-4.3976135254
2.6764461994,-0.0718610026,0.1335877279,0.1037819010,-5.7460784912,-6.1869049073,-4.3976135254
2.6791470051,-0.0821149089,0.1467713216,0.0725319010,-5.4714202881,-5.4697418213,-6.2134094239
2.6818521023,-0.0821149089,0.1467713216,0.0725319010,-5.4714202881,-5.4697418213,-10.1196594239
2.6845550537,-0.0821149089,0.1467713216,0.0725319010,-5.7003021240,-4.7983551026,-7.9681701660
2.6872510910,-0.0821149089,0.1467713216,0.0725319010,-5.7003021240,-4.7983551026,-7.9681701660
2.6899681091,-0.0616070963,0.1575135091,0.0544654948,-5.7155609131,-4.2032623291,-9.0515441895
2.6926691532,-0.0616070963,0.1575135091,0.0544654948,-5.7155609131,-4.2032623291,-12.9577941895
2.6953761578,-0.0616070963,0.1575135091,0.0544654948,-5.9597015381,-3.5166168213,-11.2488098145
2.6981379986,-0.0616070963,0.1311463216,0.0720436198,-5.9597015381,-3.5166168213,-11.2488098145
2.7008371353,-0.0669781901,0.1311463216,0.0720436198,-6.5090179443,-2.2653961182,-12.2558898926
2.7035460472,-0.0669781901,0.1311463216,0.0720436198,-6.5090179443,-2.2653961182,-12.2558898926
2.7062439919,-0.0669781901,0.1311463216,0.0720436198,-6.9667816162,-1.6703033448,-12.6221008301
2.7089600563,-0.0928570963,0.0818299153,0.0666725260,-6.9667816162,-1.6703033448,-12.6221008301
2.7116692066,-0.0928570963,0.0818299153,0.0666725260,-8.2790374756,-1.2430572510,-13.0340881348
2.7144892216,-0.0928570963,0.0818299153,0.0666725260,-8.2790374756,-1.2430572510,-13.0340881348
2.7176201344,-0.0928570963,0.0818299153,0.0666725260,-8.9504241943,-0.6784820557,-13.2324523926
2.7201981544,-0.1192242839,0.0872010091,0.0617897136,-8.9504241943,-0.6784820557,-13.5071105957
2.7227680683,-0.1192242839,0.0872010091,0.0617897136,-8.7368011474,-0.4343414307,-13.5071105957
2.7253420353,-0.1192242839,0.0872010091,0.0617897136,-8.7368011474,-0.4343414307,-13.5071105957
2.7279720306,-0.1192242839,0.0872010091,0.0407936198,-7.8365325928,-0.0681304932,-14.2242736817
2.7306761742,-0.1343610026,0.0730408529,0.0407936198,-7.8365325928,-0.0681304932,-14.2242736817
2.7334921360,-0.1343610026,0.0730408529,0.0407936198,-6.9972991943,0.0844573974,-14.8346252442
2.7361881733,-0.1343610026,0.0730408529,0.0407936198,-6.9972991943,0.0844573974,-10.9283752442
2.7389440536,-0.1040875651,0.0872010091,0.0354225260,-6.5700531006,-0.2817535401,-14.2395324707
2.7416441441,-0.1040875651,0.0872010091,0.0354225260,-6.5700531006,-0.2817535401,-14.2395324707
2.7443470955,-0.1040875651,0.0872010091,0.0354225260,-6.1733245850,-1.1972808838,-14.3005676270
2.7470560074,-0.1040875651,0.0872010091,0.0354225260,-6.1733245850,-1.1972808838,-14.3005676270
2.7496562004,-0.0747906901,0.1311463216,0.0539772136,-5.6240081787,-1.3651275635,-15.2313537598
2.7522351742,-0.0747906901,0.1311463216,0.0539772136,-5.6240081787,-1.3651275635,-15.2313537598
2.7548041344,-0.0747906901,0.1311463216,0.0539772136,-4.4795989990,-1.3803863526,-16.8487854004
2.7573730946,-0.0747906901,0.1311463216,0.0539772136,-4.4795989990,-1.3803863526,-16.8487854004
2.7599530220,-0.0572125651,0.1208924153,0.0476295573,-3.9760589600,-1.1362457276,-18.0389709473
2.7625260353,-0.0572125651,0.1208924153,0.0476295573,-3.9760589600,-1.1362457276,-18.0389709473
2.7650921345,-0.0572125651,0.1208924153,0.0476295573,-4.5253753662,-1.1362457276,-19.5953674317
2.7678401470,-0.0572125651,0.1208924153,0.0476295573,-4.5253753662,-1.1362457276,-19.5953674317
2.7704491615,-0.0469586589,0.0852478841,0.0588600260,-4.4185638428,-1.4566802979,-20.9686584473
2.7730231285,-0.0469586589,0.0852478841,0.0588600260,-4.4185638428,-1.4566802979,-20.9686584473
2.7755939960,-0.0469586589,0.0852478841,0.0588600260,-4.2659759521,-1.7771148682,-22.1741027832
2.7785379887,-0.0469586589,0.0852478841,0.0759498698,-4.2659759521,-1.7771148682,-22.1741027832
2.7824440002,-0.0464703776,0.1189392903,0.0759498698,-3.3962249756,-1.6550445557,-23.5473937989
2.7852430344,-0.0464703776,0.1189392903,0.0759498698,-3.3962249756,-1.6550445557,-23.5473937989
2.7879531384,-0.0464703776,0.1189392903,0.0759498698,-2.8469085693,-1.2125396729,-25.2868957520
2.7906460762,-0.0567242839,0.1301697591,0.0539772136,-2.8469085693,-1.2125396729,-25.2868957520
2.7933320999,-0.0567242839,0.1301697591,0.0539772136,-2.0839691162,-1.5787506104,-26.6907043457
2.7960240841,-0.0567242839,0.1301697591,0.0539772136,-2.0839691162,-1.5787506104,-26.6907043457
2.7988810539,-0.0567242839,0.1301697591,0.0280983073,-1.7177581787,-1.6092681885,-27.6062316895
2.8015720844,-0.0743024089,0.1042908529,0.0280983073,-1.7177581787,-1.6092681885,-27.6062316895
2.8042590618,-0.0743024089,0.1042908529,0.0280983073,-1.6872406006,-1.3803863526,-28.4302062989
2.8069372177,-0.0743024089,0.1042908529,0.0280983073,-1.6872406006,-1.3803863526,-28.4302062989
2.8096351624,-0.0743024089,0.0842713216,0.0627662760,-1.6262054443,-1.0141754151,-29.0100402832
2.8123281002,-0.0743024089,0.0842713216,0.0627662760,-1.6262054443,-1.0141754151,-29.0100402832
2.8150150776,-0.0743024089,0.0842713216,0.0627662760,-1.3362884521,-1.4566802979,-29.9560852051
2.8177480698,-0.0743024089,0.0842713216,0.0627662760,-1.3362884521,-1.4566802979,-29.9560852051
2.8204309940,-0.0913922526,0.0735291341,0.0847389323,-0.7411956787,-1.4109039307,-30.0476379395
2.8231101036,-0.0913922526,0.0735291341,0.0847389323,-0.7411956787,-1.4109039307,-30.0476379395
2.8257980347,-0.0913922526,0.0735291341,0.0847389323,-0.2071380615,-1.5787506104,-30.6122131348
2.8285400867,-0.0913922526,0.0735291341,0.0847389323,-0.2071380615,-1.5787506104,-30.6122131348
2.8312470913,-0.1167828776,0.0388611653,0.0788795573,0.0370025635,-1.8839263917,-30.7342834473
2.8341891766,-0.1167828776,0.0388611653,0.0788795573,0.0370025635,-1.8839263917,-30.7342834473
2.8368740082,-0.1167828776,0.0388611653,0.0788795573,1.4713287354,-1.8839263917,-30.7495422363
2.8398621082,-0.0933453776,0.0627869466,0.0652076823,1.4713287354,-1.8839263917,-31.1615295410
2.8425660133,-0.0933453776,0.0627869466,0.0652076823,2.3868560791,-2.0212554932,-31.1615295410
2.8452680111,-0.0933453776,0.0627869466,0.0652076823,2.3868560791,-2.0212554932,-31.1615295410
2.8479862213,-0.0933453776,0.0627869466,0.0652076823,3.1345367432,-2.1128082276,-31.8329162598
2.8506882191,-0.0874860026,0.0779236653,0.0622779948,3.1345367432,-2.1128082276,-31.8329162598
2.8533961773,-0.0874860026,0.0779236653,0.0622779948,4.8740386963,-2.0822906495,-32.2143859863
2.8560991287,-0.0874860026,0.0779236653,0.0622779948,4.8740386963,-2.0822906495,-32.2143859863
2.8588161469,-0.0874860026,0.0779236653,0.0622779948,6.1405181885,-2.3569488526,-32.3822326660
2.8615231514,-0.0855328776,0.0579041341,0.0617897136,6.1405181885,-2.3569488526,-32.3822326660
2.8643331528,-0.0855328776,0.0579041341,0.0617897136,7.2696685791,-1.9754791260,-32.6111145020
2.8670341969,-0.0855328776,0.0579041341,0.0617897136,7.2696685791,-1.9754791260,-32.6111145020
2.8696410656,-0.0855328776,0.0710877279,0.0471412760,9.3448638916,-1.1972808838,-32.1228332520
2.8722140789,-0.0835797526,0.0710877279,0.0471412760,9.3448638916,-1.1972808838,-32.1228332520
2.8747870922,-0.0835797526,0.0710877279,0.0471412760,12.0914459229,-0.1749420167,-31.9855041504
2.8773581982,-0.0835797526,0.0710877279,0.0471412760,12.0914459229,-0.1749420167,-31.9855041504
2.8799381256,-0.0835797526,0.0237244466,0.0515358073,11.8625640869,-0.2970123291,-32.9925842285
2.8825471401,-0.0948102213,0.0237244466,0.0515358073,11.8625640869,-0.2970123291,-32.9925842285
2.8851242065,-0.0948102213,0.0237244466,0.0515358073,11.8320465088,-0.2207183838,-32.5195617676
2.8878672123,-0.0948102213,0.0237244466,0.0515358073,11.8320465088,-0.2207183838,-32.5195617676
2.8904471397,-0.0869977213,0.0144471029,0.0476295573,10.4129791260,-0.1749420167,-32.3364562989
2.8930211067,-0.0869977213,0.0144471029,0.0476295573,10.4129791260,-0.1749420167,-32.3364562989
2.8956019878,-0.0869977213,0.0144471029,0.0476295573,9.2533111572,-0.0070953370,-32.1533508301
2.8983130455,-0.0869977213,0.0144471029,0.0476295573,9.2533111572,-0.0070953370,-32.1533508301
2.9010159969,-0.0713727213,0.0583924153,0.0642311198,8.6277008057,0.4811859130,-32.4432678223
2.9037280083,-0.0713727213,0.0583924153,0.0642311198,8.6277008057,0.4811859130,-32.4432678223
2.9064280987,-0.0713727213,0.0583924153,0.0642311198,8.9633941650,0.8168792724,-32.2449035645
2.9091410637,-0.0713727213,0.0583924153,0.0642311198,8.9633941650,0.8168792724,-32.2449035645
2.9118461609,-0.0992047526,0.0442322591,0.0813209636,9.6042633057,0.9236907959,-32.5958557129
2.9145491123,-0.0992047526,0.0442322591,0.0813209636,9.6042633057,0.9236907959,-32.5958557129
2.9172601700,-0.0992047526,0.0442322591,0.0813209636,10.7639312744,0.4506683349,-32.3364562989
2.9198560715,-0.0992047526,0.0442322591,0.0710670573,10.7639312744,0.4506683349,-32.3364562989
2.9224250317,-0.0992047526,-0.0031310221,0.0710670573,12.6407623291,0.5879974365,-31.6040344239
2.9250040054,-0.0992047526,-0.0031310221,0.0710670573,12.6407623291,0.5879974365,-31.6040344239
2.9277679920,-0.0992047526,-0.0031310221,0.0710670573,16.5470123291,0.0997161865,-31.1310119629
2.9304730892,-0.0992047526,0.0183533529,0.0510475260,15.1126861572,0.0997161865,-31.1310119629
2.9331860542,-0.1172711589,0.0183533529,0.0510475260,15.1126861572,-0.6632232667,-29.9713439942
2.9358870983,-0.1172711589,0.0183533529,0.0510475260,17.2031402588,-0.6632232667,-29.9713439942
2.9386091232,-0.1172711589,0.0183533529,0.0510475260,21.1093902588,-1.1515045167,-28.8574523926
2.9413151741,-0.1397320963,0.0120056966,0.0344459636,19.5224761963,-1.1515045167,-28.8574523926
2.9440209866,-0.1397320963,0.0120056966,0.0344459636,19.5224761963,-1.5634918213,-27.1026916504
2.9467310905,-0.1397320963,0.0120056966,0.0344459636,21.8265533447,-1.5634918213,-27.1026916504
2.9494431019,-0.1397320963,0.0120056966,0.0344459636,25.7328033447,-1.7771148682,-25.3326721192
2.9521510601,-0.1465680339,-0.0397521159,0.0246803386,23.0319976807,-1.7771148682,-25.3326721192
2.9550971985,-0.1465680339,-0.0397521159,0.0246803386,24.0695953369,-2.0059967041,-22.6929016113
2.9581789970,-0.1465680339,-0.0397521159,0.0246803386,24.0695953369,-2.0059967041,-22.6929016113
2.9607610703,-0.1465680339,-0.0309630534,0.0481178386,23.6423492432,-2.3722076417,-20.9839172363
2.9633359909,-0.1216656901,-0.0309630534,0.0481178386,23.6423492432,-2.3722076417,-20.9839172363
2.9659101963,-0.1216656901,-0.0309630534,0.0481178386,23.6423492432,-2.1280670167,-19.9310607910
2.9685862064,-0.1216656901,-0.0309630534,0.0481178386,23.2456207276,-2.1280670167,-19.9310607910
2.9712910652,-0.1275250651,-0.0119200847,0.0783912760,23.2456207276,-1.4871978760,-18.0542297363
2.9740090370,-0.1275250651,-0.0119200847,0.0783912760,23.4592437744,-1.4871978760,-18.0542297363
2.9767169952,-0.1275250651,-0.0119200847,0.0783912760,23.4592437744,-1.0752105713,-16.1468811035
2.9794380665,-0.1275250651,-0.0119200847,0.0783912760,23.5813140869,-1.0752105713,-16.1468811035
2.9821519852,-0.1275250651,-0.0592833659,0.0573951823,19.6750640869,-0.9226226807,-13.8885803223
2.9848580360,-0.1275250651,-0.0592833659,0.0573951823,22.3148345947,-0.9226226807,-13.8885803223
2.9875791073,-0.1275250651,-0.0592833659,0.0573951823,22.3148345947,-0.3122711182,-12.3321838379
2.9910190105,-0.1275250651,-0.0402403971,0.0588600260,22.2232818604,-0.3122711182,-12.3321838379
2.9939861298,-0.1245953776,-0.0402403971,0.0588600260,21.8265533447,0.4964447021,-11.8286437989
2.9965610504,-0.1245953776,-0.0402403971,0.0588600260,21.8265533447,0.4964447021,-11.8286437989
2.9992361069,-0.1245953776,-0.0402403971,0.0588600260,22.1164703369,1.3509368896,-11.0351867676
3.0018110275,-0.1245953776,0.0037049153,0.0578834636,22.1164703369,1.3509368896,-11.0351867676
3.0043821335,-0.1245953776,0.0037049153,0.0578834636,22.1012115479,1.4272308349,-9.7992248535
3.0069520473,-0.1245953776,0.0037049153,0.0578834636,22.1012115479,1.4272308349,-9.7992248535
3.0095300674,-0.1245953776,0.0037049153,0.0578834636,22.6352691650,1.4882659912,-8.2886047363
3.0121002197,-0.1114117839,-0.0031310221,0.0617897136,22.6352691650,1.4882659912,-8.2886047363
3.0146691799,-0.1114117839,-0.0031310221,0.0617897136,22.6352691650,1.4577484130,-7.8766174317
3.0172350407,-0.1114117839,-0.0031310221,0.0617897136,23.2151031494,1.4577484130,-7.8766174317
3.0198490620,-0.1114117839,-0.0031310221,0.0617897136,23.2151031494,1.4577484130,-7.3425598145
3.0224161148,-0.0996930339,-0.0148497721,0.0554420573,23.7949371338,1.4730072021,-7.3425598145
3.0249860287,-0.0996930339,-0.0148497721,0.0554420573,23.7949371338,1.4730072021,-3.4363098145
3.0275452137,-0.0996930339,-0.0148497721,0.0554420573,23.4897613526,2.2664642333,-5.8319396973
3.0301191807,-0.0996930339,-0.0148497721,0.0554420573,23.4897613526,2.2664642333,-5.8319396973
3.0326890945,-0.1021344401,-0.0255919597,0.0495826823,24.5426177979,2.8920745849,-4.4281311035
3.0352511406,-0.1021344401,-0.0255919597,0.0495826823,24.5426177979,2.8920745849,-4.4281311035
3.0379080772,-0.1021344401,-0.0255919597,0.0495826823,24.9240875244,3.2735443115,-2.6428527832
3.0404820442,-0.1021344401,-0.0255919597,0.0495826823,24.9240875244,3.2735443115,-2.6428527832
3.0430550575,-0.1206891276,-0.0627013347,0.0442115886,24.0085601807,3.6855316162,-0.4303283692
3.0456221104,-0.1206891276,-0.0627013347,0.0442115886,24.0085601807,3.6855316162,-0.4303283692
3.0483880043,-0.1206891276,-0.0627013347,0.0442115886,22.3911285400,4.2348480224,1.1260681152
3.0510962009,-0.1206891276,-0.0627013347,0.0432350260,22.3911285400,4.2348480224,1.1260681152
3.0537950993,-0.1358258463,-0.0749083659,0.0432350260,20.3922271729,4.5858001709,3.0791931152
3.0566120148,-0.1358258463,-0.0749083659,0.0432350260,20.3922271729,4.5858001709,3.0791931152
3.0592391491,-0.1358258463,-0.0749083659,0.0432350260,18.1644439697,4.7231292724,5.2306823730
3.0618131161,-0.1358258463,-0.0500060221,0.0227272136,18.1644439697,4.7231292724,5.2306823730
3.0643820763,-0.1387555339,-0.0500060221,0.0227272136,17.2489166260,5.2419281005,7.2448425293
3.0669500828,-0.1387555339,-0.0500060221,0.0227272136,17.2489166260,5.2419281005,7.2448425293
3.0696461201,-0.1387555339,-0.0500060221,0.0227272136,17.6609039307,5.6844329833,9.2284851074
3.0723550320,-0.1626813151,-0.0275450847,0.0095436198,17.6609039307,5.6844329833,9.2284851074
3.0750582218,-0.1626813151,-0.0275450847,0.0095436198,18.9884185791,6.4473724365,10.9679870605
3.0777761936,-0.1626813151,-0.0275450847,0.0095436198,18.9884185791,6.4473724365,10.9679870605
3.0804760456,-0.1626813151,-0.0275450847,0.0095436198,20.0870513916,6.9661712646,12.6311950683
3.0831761360,-0.1870953776,-0.0514708659,0.0046608073,20.0870513916,6.9661712646,12.6311950683
3.0858790874,-0.1870953776,-0.0514708659,0.0046608073,20.5448150635,6.9661712646,13.9281921387
3.0885961056,-0.1870953776,-0.0514708659,0.0046608073,20.5448150635,6.9661712646,13.9281921387
3.0912961960,-0.1870953776,-0.0514708659,0.0046608073,21.3840484619,6.6609954833,15.1946716308
3.0940060616,-0.1748883463,-0.0265685221,0.0237037760,21.3840484619,6.6609954833,15.1946716308
3.0967090130,-0.1748883463,-0.0265685221,0.0237037760,21.8570709229,6.3253021240,16.3390808105
3.0994331837,-0.1748883463,-0.0265685221,0.0237037760,21.8570709229,6.3253021240,16.3390808105
3.1021370888,-0.1748883463,-0.0221739909,0.0158912760,22.2843170166,6.2337493896,17.1477966308
3.1048932076,-0.1690289713,-0.0221739909,0.0158912760,22.2843170166,6.2337493896,17.1477966308
3.1079690456,-0.1690289713,-0.0221739909,0.0158912760,23.1388092041,6.4168548583,18.3837585449
3.1105442047,-0.1690289713,-0.0221739909,0.0158912760,23.1388092041,6.4168548583,18.3837585449
3.1131172180,-0.1538922526,-0.0241271159,0.0071022136,23.3371734619,5.2877044677,19.2382507324
3.1156899929,-0.1538922526,-0.0241271159,0.0071022136,23.3371734619,5.2877044677,19.2382507324
3.1183531284,-0.1538922526,-0.0241271159,0.0071022136,23.8559722900,4.7383880615,20.6420593261
3.1211612225,-0.1538922526,-0.0241271159,0.0071022136,23.8559722900,4.7383880615,20.6420593261
3.1238641739,-0.1407086589,-0.0216857097,0.0061256510,24.4205474854,3.8228607177,22.1374206543
3.1265690327,-0.1407086589,-0.0216857097,0.0061256510,24.4205474854,3.8228607177,22.1374206543
3.1292819977,-0.1407086589,-0.0216857097,0.0061256510,24.1916656494,3.9754486083,22.3357849121
3.1319880486,-0.1407086589,-0.0216857097,-0.0031516927,24.1916656494,3.9754486083,22.3357849121
3.1346960068,-0.1651227213,-0.0197325847,-0.0031516927,23.3676910400,5.0435638427,22.8545837402
3.1374402046,-0.1651227213,-0.0197325847,-0.0031516927,23.3676910400,5.0435638427,22.8545837402
3.1400160789,-0.1651227213,-0.0197325847,-0.0031516927,19.4614410400,5.3182220459,23.0376892090
3.1425940990,-0.1651227213,-0.0011778971,0.0222389323,22.4826812744,5.3182220459,23.0376892090
3.1451652050,-0.1744000651,-0.0011778971,0.0222389323,22.4826812744,5.3182220459,23.0529479980
3.1477730274,-0.1744000651,-0.0011778971,0.0222389323,21.8723297119,5.3945159912,23.0529479980
3.1503531933,-0.1744000651,-0.0011778971,0.0222389323,21.8723297119,5.3945159912,22.8545837402
3.1529271603,-0.1534039713,0.0515564779,0.0212623698,21.1551666260,5.4402923583,22.8545837402
3.1555039883,-0.1534039713,0.0515564779,0.0212623698,21.1551666260,5.4402923583,22.8545837402
3.1582360268,-0.1534039713,0.0515564779,0.0212623698,20.8805084229,5.0130462646,22.4120788574
3.1608099937,-0.1534039713,0.0515564779,0.0212623698,20.8805084229,5.0130462646,22.4120788574
3.1633810997,-0.1607281901,0.0715760091,0.0066139323,20.8652496338,5.1808929443,21.2218933105
3.1659510136,-0.1607281901,0.0715760091,0.0066139323,20.8652496338,5.1808929443,21.2218933105
3.1686840057,-0.1607281901,0.0715760091,0.0066139323,22.7115631104,5.7607269287,18.9025573730
3.1713910103,-0.1607281901,0.0715760091,0.0066139323,22.7115631104,5.7607269287,18.9025573730
3.1740942001,-0.1792828776,0.1008728841,-0.0011985677,24.6646881104,5.6691741943,16.6595153808
3.1768021584,-0.1792828776,0.1008728841,-0.0011985677,24.6646881104,5.6691741943,16.6595153808
3.1795461178,-0.1792828776,0.1008728841,-0.0011985677,25.9464263916,6.1574554443,14.5843200683
3.1822400093,-0.1792828776,0.1008728841,-0.0412376302,25.9464263916,6.1574554443,14.5843200683
3.1849420071,-0.2061383463,0.0901306966,-0.0412376302,27.4570465088,7.8664398193,12.6311950683
3.1878020763,-0.2061383463,0.0901306966,-0.0412376302,27.4570465088,7.8664398193,12.6311950683
3.1905031204,-0.2061383463,0.0901306966,-0.0412376302,26.7551422119,9.2702484130,11.2884216308
3.1933000088,-0.2788922526,0.0369080403,-0.0773704427,26.7551422119,9.2702484130,11.2884216308
3.1958930492,-0.2788922526,0.0369080403,-0.0773704427,24.8630523682,10.2162933349,10.3118591308
3.1986820698,-0.2788922526,0.0369080403,-0.0773704427,24.8630523682,10.2162933349,10.3118591308
3.2013540268,-0.2788922526,0.0369080403,-0.0773704427,22.6810455322,12.1541595459,10.0524597168
3.2043011189,-0.3340680339,0.0237244466,-0.0358665364,22.6810455322,12.1541595459,10.0524597168
3.2069110870,-0.3340680339,0.0237244466,-0.0358665364,21.1551666260,13.3748626709,8.6944274902
3.2095870972,-0.3340680339,0.0237244466,-0.0358665364,21.1551666260,13.3748626709,8.6944274902
3.2121610641,-0.3340680339,0.0237244466,-0.0358665364,20.3922271729,13.3596038818,6.0241394043
3.2147281170,-0.3452985026,0.0491150716,-0.0026634114,20.3922271729,13.3596038818,6.0241394043
3.2173001766,-0.3452985026,0.0491150716,-0.0026634114,21.9181060791,12.6729583740,4.2236022949
3.2198760509,-0.3452985026,0.0491150716,-0.0026634114,21.9181060791,12.6729583740,4.2236022949
3.2224462032,-0.3452985026,0.0491150716,-0.0026634114,25.3208160400,12.4440765380,2.6214294433
3.2250192165,-0.3736188151,0.0500916341,-0.0256126302,25.3208160400,12.4440765380,2.6214294433
3.2275910378,-0.3736188151,0.0500916341,-0.0256126302,29.4712066650,11.9863128662,0.1342468261
3.2301661968,-0.3736188151,0.0500916341,-0.0256126302,29.4712066650,11.9863128662,0.1342468261
3.2327420712,-0.3736188151,0.0500916341,-0.1506126302,33.3011627197,10.5519866943,-2.2919006348
3.2353100777,-0.4019391276,0.0447205403,-0.0446555990,33.3011627197,10.5519866943,-2.2919006348
3.2379372120,-0.4019391276,0.0447205403,-0.0446555990,33.3011627197,8.5530853271,-3.7109680176
3.2405130863,-0.4019391276,0.0447205403,-0.0446555990,37.2226715088,8.5530853271,-3.7109680176
3.2430779934,-0.4019391276,0.0447205403,-0.0783470052,37.2226715088,8.5530853271,-4.8248596192
3.2456500530,-0.4058453776,0.0481385091,-0.0783470052,40.4117584229,6.0048675537,-4.8248596192
3.2482662201,-0.4058453776,0.0481385091,-0.0783470052,40.4117584229,6.0048675537,-4.8401184082
3.2509419918,-0.4058453776,0.0481385091,-0.0783470052,44.0433502197,3.8381195068,-4.8401184082
3.2535150051,-0.4058453776,-0.0041075847,-0.0988548177,44.0433502197,3.8381195068,-4.8401184082
3.2560820580,-0.4307477213,-0.0041075847,-0.0988548177,47.4308013916,2.4648284912,-4.3976135254
3.2587950230,-0.4307477213,-0.0041075847,-0.0988548177,47.4308013916,2.4648284912,-4.3976135254
3.2613601685,-0.4307477213,-0.0041075847,-0.0988548177,50.1926422119,1.3051605224,-3.7414855957
3.2639231682,-0.4307477213,-0.0836974284,-0.1115501302,50.1926422119,1.3051605224,-3.7414855957
3.2664890289,-0.4790875651,-0.0836974284,-0.1115501302,51.8863677979,0.2675628662,-2.2919006348
3.2690961361,-0.4790875651,-0.0836974284,-0.1115501302,51.8863677979,0.2675628662,-2.2919006348
3.2716522217,-0.4790875651,-0.0836974284,-0.1115501302,52.1762847900,-0.0070953370,-0.7202453613
3.2742180824,-0.5210797526,-0.2096739909,-0.0866477864,52.1762847900,-0.0070953370,-0.7202453613
3.2767810822,-0.5210797526,-0.2096739909,-0.0866477864,51.2302398682,-0.6021881104,-0.4455871582
3.2794601917,-0.5210797526,-0.2096739909,-0.0866477864,51.2302398682,-0.6021881104,-0.4455871582
3.2821600437,-0.5210797526,-0.2096739909,-0.0866477864,48.6820220947,-0.9226226807,0.5462341308
3.2848570347,-0.5440289713,-0.2814513347,-0.0959251302,48.6820220947,-0.9226226807,0.5462341308
3.2875661850,-0.5440289713,-0.2814513347,-0.0959251302,41.4493560791,-0.1444244385,4.0252380371
3.2902669907,-0.5440289713,-0.2814513347,-0.0959251302,41.4493560791,-0.1444244385,4.0252380371
3.2929730415,-0.5440289713,-0.2814513347,-0.0959251302,32.6755523682,0.6032562255,6.5887145996
3.2956700325,-0.5660016276,-0.3849669597,-0.1198509114,32.6755523682,0.6032562255,6.5887145996
3.2983841896,-0.5660016276,-0.3849669597,-0.1198509114,25.0156402588,1.4577484130,11.2579040527
3.3010911942,-0.5660016276,-0.3849669597,-0.1198509114,25.0156402588,1.4577484130,11.2579040527
3.3037960529,-0.5660016276,-0.2599669597,-0.0798118490,17.6151275635,2.7852630615,20.4894714355
