# time_stamp before, Acceleration x, Acceleration y, Acceleration z, Gyro x, Gyro y, Gyro z
0.0000000000,-0.0703763021,0.0035735678,0.0312791341,1.3721669515,6.0431315104,-15.1608632405
0.0025601387,-0.0703763021,0.0035735678,0.0312791341,1.3721669515,6.0431315104,-15.0235341390
0.0051200390,-0.0703763021,0.0035735678,0.0312791341,3.9356435140,5.1428629557,-15.0235341390
0.0076780319,-0.0703763021,0.0035735678,0.0312791341,3.9356435140,4.8682047526,-14.4894765218
0.0109980106,-0.0850247395,0.0084563802,0.0210252279,6.4533437093,4.8682047526,-14.4894765218
0.0136880875,-0.0850247395,0.0084563802,0.0210252279,6.4533437093,4.5325113932,-14.4131825765
0.0163879395,-0.0850247395,0.0084563802,0.0210252279,7.8113759359,4.5325113932,-14.4131825765
0.0190250874,-0.0850247395,0.0084563802,0.0522752279,7.8113759359,8.4387613932,-13.8180898030
0.0215899944,-0.0908841145,-0.0169342448,0.0522752279,9.4745839437,4.6240641276,-13.8180898030
0.0241470337,-0.0908841145,-0.0169342448,0.0522752279,9.4745839437,4.6240641276,-12.5210927327
0.0267059803,-0.0908841145,-0.0169342448,0.0522752279,10.3901112874,5.2649332682,-12.5210927327
0.0292949677,-0.0908841145,-0.0144928385,0.0512986654,10.3901112874,5.2649332682,-8.6148427327
0.0318629742,-0.0874661458,-0.0144928385,0.0512986654,10.7715810140,5.0818277994,-11.7886708577
0.0344290733,-0.0874661458,-0.0144928385,0.0512986654,10.7715810140,5.0818277994,-11.7886708577
0.0369980335,-0.0874661458,-0.0144928385,0.0512986654,11.4582265218,5.3107096354,-10.7205556233
0.0396380424,-0.0874661458,-0.0208404948,0.0556931967,11.4582265218,5.3107096354,-10.7205556233
0.0422129631,-0.0811184895,-0.0208404948,0.0556931967,11.9617665609,6.0126139323,-9.6219228109
0.0447800159,-0.0811184895,-0.0208404948,0.0556931967,11.9617665609,6.0126139323,-9.6219228109
0.0473399162,-0.0811184895,-0.0208404948,0.0556931967,10.7715810140,6.4856363932,-9.0573476155
0.0500979424,-0.1030911458,-0.0579498698,0.0576463217,10.7715810140,6.4856363932,-9.0573476155
0.0528221130,-0.1030911458,-0.0579498698,0.0576463217,9.4135487874,7.6300455729,-7.9892323812
0.0553901196,-0.1030911458,-0.0579498698,0.0576463217,9.4135487874,7.6300455729,-7.9892323812
0.0580921173,-0.1030911458,-0.0579498698,0.0576463217,8.9710439046,8.9117838541,-7.0737050374
0.0607991219,-0.1084622395,-0.0320709635,0.0649705404,8.9710439046,8.9117838541,-7.0737050374
0.0635061264,-0.1084622395,-0.0320709635,0.0649705404,8.8184560140,9.4458414713,-6.5243886312
0.0661990643,-0.1084622395,-0.0320709635,0.0649705404,8.8184560140,9.4458414713,-6.5243886312
0.0689039230,-0.1084622395,-0.0320709635,0.0649705404,9.6424306233,10.0867106119,-6.4938710530
0.0716040134,-0.1060208333,0.0089446615,0.0356736654,9.6424306233,10.0867106119,-6.4938710530
0.0743160248,-0.1060208333,0.0089446615,0.0356736654,9.8865712483,10.0561930338,-6.7837880452
0.0768799782,-0.1060208333,0.0089446615,0.0356736654,9.8865712483,10.0561930338,-6.7837880452
0.0795660019,-0.1060208333,0.0089446615,0.0180955404,10.1764882405,10.6818033854,-6.9211171468
0.0821409225,-0.0957669271,0.0055266928,0.0180955404,10.1764882405,10.6818033854,-6.9211171468
0.0855259895,-0.0957669271,0.0055266928,0.0180955404,10.0239003499,10.8954264323,-7.5314687093
0.0881350040,-0.0957669271,0.0055266928,0.0180955404,10.0239003499,10.8954264323,-7.5314687093
0.0906970501,-0.0855130208,0.0128509115,0.0205369467,8.1318105062,10.7580973307,-8.1265614827
0.0932600498,-0.0855130208,0.0128509115,0.0205369467,8.1318105062,10.7580973307,-8.1265614827
0.0959579945,-0.0855130208,0.0128509115,0.0205369467,6.5754140218,10.8954264323,-8.4012196859
0.0985260010,-0.0855130208,0.0128509115,0.0205369467,6.5754140218,10.8954264323,-8.4012196859
0.1010890007,-0.0874661458,0.0094329428,0.0141892904,4.8053944905,10.5902506510,-8.5995839437
0.1036500931,-0.0874661458,0.0094329428,0.0141892904,4.8053944905,10.5902506510,-8.5995839437
0.1062090397,-0.0874661458,0.0094329428,0.0141892904,4.8053944905,10.7580973307,-8.6148427327
0.1088230610,-0.0874661458,0.0094329428,0.0141892904,2.5165761312,10.7580973307,-8.6148427327
0.1113889217,-0.0801419271,0.0138274740,0.0278611654,2.5165761312,10.7580973307,-8.7674306233
0.1139490604,-0.0801419271,0.0138274740,0.0278611654,-0.0011240641,10.8801676432,-8.7674306233
0.1166219711,-0.0801419271,0.0138274740,0.0278611654,-0.0011240641,10.8801676432,-8.9047597249
0.1192269325,-0.0801419271,0.0138274740,0.0278611654,-0.9471689860,11.6736246744,-8.9047597249
0.1217849255,-0.0562161458,0.0216399740,0.0361619467,-0.9471689860,11.6736246744,-8.9047597249
0.1243469715,-0.0562161458,0.0216399740,0.0361619467,-0.4436289470,10.7733561197,-8.4164784749
0.1269080639,-0.0562161458,0.0216399740,0.0361619467,-0.4436289470,10.7733561197,-8.4164784749
0.1295540333,-0.0562161458,0.0216399740,0.0361619467,0.0446523030,10.6360270182,-8.4164784749
0.1321260929,-0.0650052083,0.0201751302,0.0224900717,0.0446523030,10.6360270182,-8.4164784749
0.1346960068,-0.0650052083,0.0201751302,0.0224900717,0.4718983968,10.8038736979,-8.9352773030
0.1372609138,-0.0650052083,0.0201751302,0.0224900717,0.4718983968,10.8038736979,-8.9352773030
0.1400320530,-0.0650052083,0.0201751302,0.0307908529,1.1738026937,10.9717203776,-9.2862294515
0.1427159309,-0.0571927083,0.0240813802,0.0307908529,1.1738026937,10.9717203776,-9.2862294515
0.1454000473,-0.0571927083,0.0240813802,0.0307908529,1.2806142171,11.1090494791,-9.5456288655
0.1480960846,-0.0571927083,0.0240813802,0.0307908529,1.2806142171,11.1090494791,-9.5456288655
0.1507830620,-0.0571927083,0.0431243490,0.0400681967,2.4250233968,10.1630045573,-9.9118398030
0.1534669399,-0.0503567708,0.0431243490,0.0400681967,2.4250233968,10.1630045573,-9.9118398030
0.1561489105,-0.0503567708,0.0431243490,0.0400681967,3.7372792562,9.2627360026,-10.7052968343
0.1588759422,-0.0503567708,0.0431243490,0.0400681967,3.7372792562,9.2627360026,-10.7052968343
0.1615619659,-0.0513333333,0.0411712240,0.0220017904,4.7596181233,9.4000651041,-11.0409901937
0.1642489433,-0.0513333333,0.0411712240,0.0220017904,4.7596181233,9.4000651041,-11.0409901937
0.1669330597,-0.0513333333,0.0411712240,0.0220017904,5.3852284749,9.4458414713,-11.1935780843
0.1696970463,-0.0513333333,0.0411712240,0.0220017904,5.3852284749,9.4458414713,-11.1935780843
0.1722640991,-0.0586575521,0.0284759115,0.0049119467,5.2173817952,9.4763590494,-11.3766835530
0.1748321056,-0.0586575521,0.0284759115,0.0049119467,5.2173817952,9.4763590494,-11.3766835530
0.1774060726,-0.0586575521,0.0284759115,0.0049119467,5.4767812093,9.6442057291,-11.6360829671
0.1803181171,-0.0586575521,0.0284759115,0.0063767904,5.4767812093,9.6442057291,-11.6360829671
0.1835241318,-0.0615872395,0.0211516928,0.0063767904,5.8735097249,9.6594645182,-11.4377187093
0.1862161160,-0.0615872395,0.0211516928,0.0063767904,5.8735097249,9.6594645182,-11.4377187093
0.1888971329,-0.0615872395,0.0211516928,0.0063767904,6.1481679280,9.2627360026,-11.3003896077
0.1915609837,-0.0703763021,0.0221282552,0.0097947591,6.1481679280,9.2627360026,-11.3003896077
0.1942179203,-0.0703763021,0.0221282552,0.0097947591,6.5296376546,9.2322184244,-11.1325429280
0.1970279217,-0.0703763021,0.0221282552,0.0097947591,6.5296376546,9.2322184244,-11.1325429280
0.1997349262,-0.0703763021,0.0221282552,0.0097947591,6.8348134359,9.0338541666,-10.9036610921
0.2024281025,-0.0923489583,-0.0052154948,0.0122361654,6.8348134359,9.0338541666,-10.9036610921
0.2051310539,-0.0923489583,-0.0052154948,0.0122361654,6.8958485921,9.3237711588,-11.2546132405
0.2078659534,-0.0923489583,-0.0052154948,0.0122361654,6.8958485921,9.3237711588,-11.2546132405
0.2105610371,-0.0923489583,-0.0052154948,0.0097947591,5.3241933187,9.2169596354,-11.1478017171
0.2132630348,-0.0899075521,0.0108977865,0.0097947591,5.3241933187,9.2169596354,-11.1478017171
0.2159600258,-0.0899075521,0.0108977865,0.0097947591,4.7443593343,9.0033365885,-10.9189198812
0.2186250687,-0.0899075521,0.0108977865,0.0097947591,4.7443593343,9.0033365885,-10.9189198812
0.2211880684,-0.0899075521,0.0338470052,0.0097947591,5.2631581624,9.0185953776,-10.9952138265
0.2237460613,-0.0728177083,0.0338470052,0.0097947591,5.2631581624,9.0185953776,-10.9952138265
0.2263131142,-0.0728177083,0.0338470052,0.0097947591,5.6141103109,8.9880777994,-11.1172841390
0.2289879322,-0.0728177083,0.0338470052,0.0097947591,5.6141103109,8.9880777994,-11.1172841390
0.2315540314,-0.0728177083,0.0353118490,0.0171189779,5.6141103109,8.8812662760,-11.5445302327
0.2341251373,-0.0601223958,0.0353118490,0.0171189779,5.8582509359,8.8812662760,-11.5445302327
0.2366819382,-0.0601223958,0.0353118490,0.0171189779,5.8582509359,8.6371256510,-11.4682362874
0.2394220829,-0.0601223958,0.0353118490,0.0171189779,6.1786855062,8.6371256510,-11.4682362874
0.2421009541,-0.0493802083,0.0382415365,0.0234666341,6.1786855062,4.7308756510,-11.4834950765
0.2448880672,-0.0493802083,0.0382415365,0.0234666341,6.8805898030,8.4692789713,-11.4834950765
0.2475819588,-0.0493802083,0.0382415365,0.0234666341,6.8805898030,8.4692789713,-11.6208241780
0.2502579689,-0.0493802083,0.0382415365,0.0234666341,7.4909413655,8.2861735026,-11.6208241780
0.2529330254,-0.0464505208,0.0353118490,0.0273728841,7.4909413655,8.2861735026,-12.2311757405
0.2556219101,-0.0464505208,0.0353118490,0.0273728841,9.4440663655,7.8894449869,-12.2311757405
0.2583119869,-0.0464505208,0.0353118490,0.0273728841,9.4440663655,7.8894449869,-12.6889394124
0.2609930038,-0.0464505208,0.0353118490,0.0273728841,11.1377919515,7.6910807291,-12.6889394124
0.2636890411,-0.0464505208,0.0382415365,0.0322556967,11.1377919515,7.6910807291,-13.2077382405
0.2663750648,-0.0464505208,0.0382415365,0.0322556967,12.8162587483,7.4927164713,-13.2077382405
0.2690839767,-0.0464505208,0.0382415365,0.0322556967,12.8162587483,7.4927164713,-13.6960194905
0.2717690468,-0.0464505208,0.0328704428,0.0254197591,14.6778310140,7.0044352213,-13.6960194905
0.2744569778,-0.0645169271,0.0328704428,0.0254197591,14.6778310140,7.0044352213,-14.4131825765
0.2771470547,-0.0645169271,0.0328704428,0.0254197591,15.6391347249,7.0349527994,-14.4131825765
0.2798910141,-0.0645169271,0.0328704428,0.0254197591,15.6391347249,7.0349527994,-15.2066396077
0.2825849056,-0.0737942708,0.0270110678,0.0166306967,15.8374989827,7.1265055338,-15.2066396077
0.2852749825,-0.0737942708,0.0270110678,0.0166306967,15.8374989827,7.1265055338,-15.4965565999
0.2879691124,-0.0737942708,0.0270110678,0.0166306967,15.8832753499,6.7602945963,-15.4965565999
0.2906389236,-0.0737942708,0.0270110678,0.0166306967,15.8832753499,6.7602945963,-15.4965565999
0.2933049202,-0.0698880208,0.0358001302,0.0029588217,15.3187001546,6.8060709635,-15.2218983968
0.2962760925,-0.0698880208,0.0358001302,0.0029588217,15.3187001546,6.8060709635,-15.6338857015
0.2990720272,-0.0698880208,0.0358001302,0.0029588217,14.9372304280,6.6229654947,-15.6338857015
0.3017940521,-0.0698880208,0.0358001302,-0.0043653971,14.9372304280,6.6229654947,-15.8169911702
0.3045060635,-0.0645169271,0.0309173178,-0.0043653971,14.4947255452,6.3635660807,-15.8169911702
0.3072080612,-0.0645169271,0.0309173178,-0.0043653971,14.4947255452,6.3635660807,-15.3897450765
0.3100299835,-0.0645169271,0.0309173178,-0.0043653971,13.9606679280,6.1804606119,-15.3897450765
0.3127400875,-0.0640286458,0.0226165365,-0.0287794596,13.9606679280,6.1804606119,-15.5728505452
0.3154411316,-0.0640286458,0.0226165365,-0.0287794596,12.8772939046,6.6229654947,-15.5728505452
0.3181579113,-0.0640286458,0.0226165365,-0.0287794596,12.8772939046,6.6229654947,-16.1069081624
0.3208649158,-0.0640286458,0.0226165365,-0.0287794596,11.0920155843,6.5466715494,-16.1069081624
0.3235650063,-0.0684231771,0.0187102865,-0.0151075846,11.0920155843,6.5466715494,-15.7559560140
0.3262751102,-0.0684231771,0.0187102865,-0.0151075846,9.7034657796,6.3635660807,-15.7559560140
0.3289251328,-0.0684231771,0.0187102865,-0.0151075846,9.7034657796,6.3635660807,-15.2676747640
0.3314931393,-0.0684231771,0.0187102865,-0.0151075846,8.4675038655,6.0126139323,-15.2676747640
0.3340640068,-0.0713528645,0.0260345052,-0.0058302409,8.4675038655,6.0126139323,-15.2676747640
0.3366310596,-0.0713528645,0.0260345052,-0.0058302409,7.7503407796,5.8600260416,-15.2981923421
0.3392579556,-0.0713528645,0.0260345052,-0.0058302409,7.7503407796,5.8600260416,-15.2981923421
0.3418269157,-0.0713528645,0.0260345052,-0.0058302409,6.2854970296,5.7226969401,-15.5118153890
0.3443899155,-0.0894192708,0.0211516928,0.0054002279,6.2854970296,5.7226969401,-15.5118153890
0.3469579220,-0.0894192708,0.0211516928,0.0054002279,4.5917714437,6.1957194010,-15.9390614827
0.3496980667,-0.0894192708,0.0211516928,0.0054002279,4.5917714437,6.1957194010,-15.9390614827
0.3522629738,-0.0894192708,0.0211516928,0.0122361654,3.4168446859,6.2720133463,-16.0306142171
0.3548369408,-0.0840481771,0.0265227865,0.0122361654,3.4168446859,6.2720133463,-16.0306142171
0.3574080467,-0.0840481771,0.0265227865,0.0122361654,2.6844228109,5.9973551432,-16.0000966390
0.3602230549,-0.0840481771,0.0265227865,0.0122361654,2.6844228109,5.9973551432,-16.0000966390
0.3629190922,-0.0840481771,0.0284759115,0.0034471029,2.3182118733,5.6921793619,-15.7254384359
0.3656079769,-0.0684231771,0.0284759115,0.0034471029,2.3182118733,5.6921793619,-15.7254384359
0.3683190346,-0.0684231771,0.0284759115,0.0034471029,2.3639882405,5.6769205729,-15.6186269124
0.3710079193,-0.0684231771,0.0284759115,0.0034471029,2.3639882405,5.6769205729,-15.6186269124
0.3738009930,-0.0591458333,0.0392180990,0.0093064779,2.8827870687,5.8752848307,-15.8017323812
0.3765070438,-0.0591458333,0.0392180990,0.0093064779,2.8827870687,5.8752848307,-15.8017323812
0.3791320324,-0.0591458333,0.0392180990,0.0093064779,3.6457265218,5.5548502604,-16.2137196859
0.3817040920,-0.0591458333,0.0392180990,0.0093064779,3.6457265218,5.5548502604,-16.2137196859
0.3842720985,-0.0640286458,0.0260345052,0.0039353841,4.4697011312,5.7837320963,-15.9085439046
0.3868439198,-0.0640286458,0.0260345052,0.0039353841,4.4697011312,5.7837320963,-15.9085439046
0.3895330429,-0.0640286458,0.0260345052,0.0039353841,5.5988515218,5.9058024088,-16.0153554280
0.3922319412,-0.0640286458,0.0260345052,0.0039353841,5.5988515218,5.9058024088,-16.0153554280
0.3949251175,-0.0781888021,0.0025970052,0.0293260091,6.5601552327,6.2414957682,-16.3663075765
0.3976349831,-0.0781888021,0.0025970052,0.0293260091,6.5601552327,6.2414957682,-16.3663075765
0.4003319740,-0.0781888021,0.0025970052,0.0293260091,6.5601552327,6.6382242838,-16.3510487874
0.4030411243,-0.0781888021,-0.0125397135,0.0141892904,7.4756825765,6.6382242838,-16.3510487874
0.4057369232,-0.1089505208,-0.0125397135,0.0141892904,7.4756825765,6.3788248697,-16.0000966390
0.4084811211,-0.1089505208,-0.0125397135,0.0141892904,7.7503407796,6.3788248697,-16.0000966390
0.4111859798,-0.1089505208,-0.0125397135,0.0141892904,7.7503407796,6.3330485026,-15.6644032796
0.4140861034,-0.1040677083,0.0108977865,0.0180955404,7.6130116780,6.3330485026,-15.6644032796
0.4167850018,-0.1040677083,0.0108977865,0.0180955404,7.2010243733,6.5161539713,-15.0082753499
0.4196491241,-0.1040677083,0.0108977865,0.0180955404,7.2010243733,6.5161539713,-15.0082753499
0.4223489761,-0.1040677083,0.0108977865,0.0180955404,7.2773183187,6.4093424479,-14.7946523030
0.4250550270,-0.1001614583,0.0304290365,-0.0058302409,7.2773183187,6.4093424479,-14.7946523030
0.4277861118,-0.1001614583,0.0304290365,-0.0058302409,7.1552480062,6.3177897135,-14.9472401937
0.4303541183,-0.1001614583,0.0304290365,-0.0058302409,7.1552480062,6.3177897135,-14.9472401937
0.4329340458,-0.1001614583,0.0304290365,-0.0180372721,7.1552480062,6.2720133463,-15.0235341390
0.4355020523,-0.0894192708,0.0372649740,-0.0180372721,7.4909413655,6.2720133463,-15.0235341390
0.4381349087,-0.0894192708,0.0372649740,-0.0180372721,7.4909413655,6.2720133463,-15.0693105062
0.4408020973,-0.0894192708,0.0372649740,-0.0180372721,7.5214589437,6.1346842447,-15.0693105062
0.4433639050,-0.0894192708,0.0333587240,-0.0160841471,7.5214589437,6.1346842447,-15.2829335530
0.4459309578,-0.0659817708,0.0333587240,-0.0160841471,7.4146474202,5.6158854166,-15.2829335530
0.4486720562,-0.0659817708,0.0333587240,-0.0160841471,7.4146474202,5.6158854166,-15.8475087483
0.4512360096,-0.0659817708,0.0333587240,-0.0160841471,7.7961171468,5.2801920573,-15.8475087483
0.4538059235,-0.0659817708,0.0401946615,-0.0097364909,7.7961171468,5.2801920573,-15.8475087483
0.4563720226,-0.0723294271,0.0401946615,-0.0097364909,8.3454335530,4.7613932291,-15.7712148030
0.4589409828,-0.0723294271,0.0401946615,-0.0097364909,8.3454335530,4.7613932291,-15.7712148030
0.4615020752,-0.0723294271,0.0401946615,-0.0097364909,7.9029286702,4.7461344401,-16.0306142171
0.4640619755,-0.0811184895,0.0328704428,-0.0253614909,7.9029286702,4.7461344401,-16.0306142171
0.4666259289,-0.0811184895,0.0328704428,-0.0253614909,7.5367177327,4.8376871744,-16.9919179280
0.4693479538,-0.0811184895,0.0328704428,-0.0253614909,7.5367177327,4.8376871744,-16.9919179280
0.4719030857,-0.0811184895,0.0328704428,-0.0253614909,5.4004872640,4.9902750651,-17.5412343343
0.4745371342,-0.0996731771,0.0245696615,-0.0038771159,5.4004872640,4.9902750651,-17.5412343343
0.4771029949,-0.0996731771,0.0245696615,-0.0038771159,2.2114003499,4.6240641276,-17.9227040609
0.4797849655,-0.0996731771,0.0245696615,-0.0038771159,2.2114003499,4.6240641276,-17.9227040609
0.4823479652,-0.0996731771,0.0245696615,-0.0038771159,-0.2605234782,4.3036295573,-18.2583974202
0.4849090576,-0.1030911458,0.0240813802,-0.0024122721,-0.2605234782,4.3036295573,-18.2583974202
0.4874649048,-0.1030911458,0.0240813802,-0.0024122721,-2.3204600017,4.6088053385,-18.6398671468
0.4902050495,-0.1030911458,0.0240813802,-0.0024122721,-2.3204600017,4.6088053385,-18.6398671468
0.4936530590,-0.1030911458,0.0240813802,-0.0107130533,-4.1820322673,4.4409586588,-18.5483144124
0.4962260723,-0.0947903645,0.0255462240,-0.0107130533,-4.1820322673,4.4409586588,-18.5483144124
0.4988579750,-0.0947903645,0.0255462240,-0.0107130533,-5.6316172282,4.0442301432,-18.7619374593
0.5014200211,-0.0947903645,0.0255462240,-0.0107130533,-5.6316172282,4.0442301432,-18.7619374593
0.5040891171,-0.0947903645,0.0270110678,-0.0116896159,-6.2877451579,4.3036295573,-18.5788319905
0.5066549778,-0.0928372395,0.0270110678,-0.0116896159,-6.2877451579,4.3036295573,-18.5788319905
0.5092470646,-0.0928372395,0.0270110678,-0.0116896159,-6.2877451579,4.2731119791,-17.6175282796
0.5118110180,-0.0928372395,0.0270110678,-0.0116896159,-6.2419687907,4.2731119791,-17.6175282796
0.5143759251,-0.0928372395,0.0196868490,-0.0219435221,-6.2419687907,4.2731119791,-16.9308827718
0.5169360638,-0.0943020833,0.0196868490,-0.0219435221,-6.3792978923,4.0900065104,-16.9308827718
0.5195081234,-0.0943020833,0.0196868490,-0.0219435221,-6.3792978923,4.0900065104,-16.4426015218
0.5220739841,-0.0943020833,0.0196868490,-0.0219435221,-7.2795664470,3.8458658854,-16.4426015218
0.5246360302,-0.1104153645,0.0069915365,-0.0238966471,-7.2795664470,3.8458658854,-12.5363515218
0.5271990299,-0.1104153645,0.0069915365,-0.0238966471,-9.0190684001,3.8458658854,-15.4965565999
0.5298070908,-0.1104153645,0.0069915365,-0.0238966471,-9.0190684001,3.8458658854,-15.4965565999
0.5323739052,-0.1104153645,0.0069915365,-0.0238966471,-11.6435801188,3.8306070963,-14.5199940999
0.5349419117,-0.1387356771,0.0001555990,-0.0473341471,-11.6435801188,3.8306070963,-14.5199940999
0.5375149250,-0.1387356771,0.0001555990,-0.0473341471,-15.0462900798,4.7308756510,-13.2077382405
0.5401599407,-0.1387356771,0.0001555990,-0.0473341471,-15.0462900798,4.7308756510,-13.2077382405
0.5427279472,-0.1387356771,0.0001555990,-0.0473341471,-17.7776133220,5.7837320963,-12.0328114827
0.5452950001,-0.1655911458,-0.0052154948,-0.0541700846,-17.7776133220,5.7837320963,-12.0328114827
0.5480039120,-0.1655911458,-0.0052154948,-0.0541700846,-18.5710703532,6.3940836588,-10.2933095296
0.5505731106,-0.1655911458,-0.0052154948,-0.0541700846,-18.5710703532,6.3940836588,-10.2933095296
0.5531361103,-0.1655911458,-0.0052154948,-0.0541700846,-16.9994150798,6.6534830729,-8.7521718343
0.5556979179,-0.1753567708,0.0245696615,-0.0610060221,-16.9994150798,6.6534830729,-8.7521718343
0.5582981110,-0.1753567708,0.0245696615,-0.0610060221,-14.4206797282,6.5466715494,-7.1347401937
0.5608639717,-0.1753567708,0.0245696615,-0.0610060221,-14.4206797282,6.5466715494,-7.1347401937
0.5634360313,-0.1753567708,0.0245696615,-0.0610060221,-14.4206797282,7.1722819010,-4.7848866780
0.5661139488,-0.1665677083,0.0187102865,-0.0976271159,-11.9792734782,7.1722819010,-4.7848866780
0.5686991215,-0.1665677083,0.0187102865,-0.0976271159,-11.9792734782,7.1722819010,-2.2519276937
0.5712740421,-0.1665677083,0.0187102865,-0.0976271159,-11.2315928141,7.0502115885,-2.2519276937
0.5738449097,-0.1665677083,0.0187102865,-0.0976271159,-11.2315928141,7.0502115885,0.4183603923
0.5764179230,-0.1787747395,-0.0247467448,-0.1088575846,-13.0931650798,7.3096110026,0.4183603923
0.5792119503,-0.1787747395,-0.0247467448,-0.1088575846,-13.0931650798,7.3096110026,0.4183603923
0.5817890167,-0.1787747395,-0.0247467448,-0.1088575846,-17.1520029704,8.6676432291,3.7295176188
0.5846700668,-0.1787747395,-0.0223053385,-0.1352247721,-17.1520029704,8.6676432291,7.6357676188
0.5872459412,-0.1782864583,-0.0223053385,-0.1352247721,-22.0500742595,9.3085123697,7.5747324626
0.5898740292,-0.1782864583,-0.0223053385,-0.1352247721,-22.0500742595,9.3085123697,7.5747324626
0.5924479961,-0.1782864583,-0.0223053385,-0.1352247721,-26.2920176188,10.1324869791,11.4352060954
0.5950191021,-0.1782864583,0.0338470052,-0.1640333659,-26.2920176188,10.1324869791,11.4352060954
0.5976190567,-0.1577786458,0.0338470052,-0.1640333659,-30.5034434001,10.9717203776,14.8073984782
0.6001899242,-0.1577786458,0.0338470052,-0.1640333659,-30.5034434001,10.9717203776,14.8073984782
0.6027629375,-0.1577786458,0.0338470052,-0.1640333659,-35.4625498454,12.4670817057,17.9354502360
0.6053280830,-0.1411770833,0.0465423178,-0.2157911783,-35.4625498454,12.4670817057,17.9354502360
0.6079170704,-0.1411770833,0.0465423178,-0.2157911783,-39.7197519938,13.5504557291,20.6362559001
0.6104941368,-0.1411770833,0.0465423178,-0.2157911783,-39.7197519938,13.5504557291,20.6362559001
0.6130630970,-0.1411770833,0.0465423178,-0.2157911783,-43.8243662517,14.9237467447,21.8874766032
0.6156380177,-0.1323880208,0.0343352865,-0.3012403971,-43.8243662517,14.9237467447,21.8874766032
0.6182789803,-0.1323880208,0.0343352865,-0.3012403971,-48.7224375407,16.9989420573,22.6809336345
0.6208510399,-0.1323880208,0.0343352865,-0.3012403971,-48.7224375407,16.9989420573,22.6809336345
0.6234250069,-0.1323880208,0.0343352865,-0.3012403971,-52.6286875407,17.9907633463,24.8324228923
0.6259970665,-0.1299466145,-0.0076569010,-0.3129591471,-52.5829111735,17.9907633463,24.8324228923
0.6287200451,-0.1299466145,-0.0076569010,-0.3129591471,-52.5829111735,18.4943033854,26.8313242595
0.6312940121,-0.1299466145,-0.0076569010,-0.3129591471,-54.5207773845,18.4943033854,26.8313242595
0.6338679790,-0.1299466145,-0.0076569010,-0.3129591471,-54.5207773845,18.4943033854,28.2961680095
0.6364440918,-0.1480130208,-0.0511139322,-0.2372755533,-55.6041514079,18.9368082682,28.2961680095
0.6392071247,-0.1480130208,-0.0511139322,-0.2372755533,-55.6041514079,18.9368082682,30.0356699626
0.6417829990,-0.1480130208,-0.0511139322,-0.2372755533,-52.4608408610,19.2419840494,30.0356699626
0.6443591118,-0.1480130208,-0.0511139322,-0.2372755533,-52.4608408610,19.2419840494,30.0356699626
0.6469309330,-0.2241848958,0.0660735678,-0.1987013346,-40.6352793376,20.1269938151,34.4302012126
0.6498119831,-0.2241848958,0.0660735678,-0.1987013346,-40.6352793376,20.1269938151,34.4302012126
0.6523900032,-0.2241848958,0.0660735678,-0.1987013346,-24.4609629313,21.2256266276,34.6896006267
0.6549680233,-0.2241848958,0.0660735678,-0.2460646159,-24.4609629313,21.2256266276,34.6896006267
0.6575319767,-0.1753567708,-0.0081451822,-0.2460646159,-9.1563975017,22.5684000651,31.3021494548
0.6603069305,-0.1753567708,-0.0081451822,-0.2460646159,-9.1563975017,22.5684000651,31.3021494548
0.6630170345,-0.1753567708,-0.0081451822,-0.2460646159,6.3617909749,22.9651285807,27.4874521891
0.6657180786,-0.1753567708,-0.1150787760,-0.2900099283,6.3617909749,22.9651285807,27.4874521891
0.6684639454,-0.1519192708,-0.1150787760,-0.2900099283,22.4750722249,22.8430582682,23.5201670329
0.6711759567,-0.1519192708,-0.1150787760,-0.2900099283,22.4750722249,22.8430582682,23.5201670329
0.6738901138,-0.1519192708,-0.1150787760,-0.2900099283,35.5365956624,23.2550455729,19.1408945720
0.6766009331,-0.1045559895,-0.1263092448,-0.3041700846,35.5365956624,23.2550455729,19.1408945720
0.6792430878,-0.1045559895,-0.1263092448,-0.3041700846,46.8280995687,24.5520426432,13.5104014079
0.6819019318,-0.1045559895,-0.1263092448,-0.3041700846,46.8280995687,24.5520426432,13.5104014079
0.6844730377,-0.1045559895,-0.1263092448,-0.3041700846,58.5163319905,25.6506754557,7.4068857829
0.6870529652,-0.0786770833,-0.1883209635,-0.2939161783,58.5163319905,25.6506754557,7.4068857829
0.6896340847,-0.0786770833,-0.1883209635,-0.2939161783,68.8617909749,26.3678385416,1.3949228923
0.6923251152,-0.0786770833,-0.1883209635,-0.2939161783,68.8617909749,26.3678385416,1.3949228923
0.6950280666,-0.0786770833,-0.1883209635,-0.2939161783,76.0944569905,26.7187906901,-4.2813466390
0.6985769272,-0.0610989583,-0.2952545572,-0.2680372721,76.0944569905,26.7187906901,-4.2813466390
0.7011561394,-0.0610989583,-0.2952545572,-0.2680372721,79.7413075765,26.9171549479,-9.3777821859
0.7037260532,-0.0610989583,-0.2952545572,-0.2680372721,79.7413075765,26.9171549479,-9.3777821859
0.7062981129,-0.0244778645,-0.3323639322,-0.2655958659,80.2448476155,27.3901774088,-13.6960194905
0.7089669704,-0.0244778645,-0.3323639322,-0.2655958659,80.2448476155,27.3901774088,-13.6960194905
0.7115371227,-0.0244778645,-0.3323639322,-0.2655958659,78.8715565999,28.2904459635,-17.5412343343
0.7141079903,-0.0244778645,-0.3323639322,-0.2655958659,78.8715565999,28.2904459635,-17.5412343343
0.7166731358,-0.0274075521,-0.2947662760,-0.2509474283,76.9947255452,29.0076090494,-22.9733632405
0.7192540169,-0.0274075521,-0.2947662760,-0.2509474283,76.9947255452,29.0076090494,-22.9733632405
0.7218270302,-0.0274075521,-0.2947662760,-0.2509474283,73.7903798421,29.4195963541,-28.3139394124
0.7244000435,-0.0274075521,-0.2947662760,-0.2509474283,73.7903798421,29.4195963541,-28.3139394124
0.7269749641,-0.0396145833,-0.2727936198,-0.2265333659,70.2503407796,29.8773600260,-33.5324452718
0.7295980453,-0.0396145833,-0.2727936198,-0.2265333659,70.2503407796,29.8773600260,-33.5324452718
0.7321720123,-0.0396145833,-0.2727936198,-0.2265333659,70.2503407796,30.5792643229,-38.3084462483
0.7347481251,-0.0396145833,-0.2727936198,-0.2265333659,65.9321034749,30.5792643229,-38.3084462483
0.7373249531,-0.0679348958,-0.2356842448,-0.2192091471,65.9321034749,30.5792643229,-42.5961659749
0.7399060726,-0.0679348958,-0.2356842448,-0.2192091471,60.8356679280,31.6626383463,-42.5961659749
0.7424809933,-0.0679348958,-0.2356842448,-0.2192091471,60.8356679280,31.6626383463,-50.4086659749
0.7450549603,-0.0679348958,-0.2356842448,-0.2192091471,55.1288808187,32.3798014323,-47.1127675374
0.7477219105,-0.0835598958,-0.2225006510,-0.1928419596,55.1288808187,32.3798014323,-47.1127675374
0.7502970695,-0.0835598958,-0.2225006510,-0.1928419596,49.4373524983,33.6767985026,-51.6293690999
0.7528700829,-0.0835598958,-0.2225006510,-0.1928419596,49.4373524983,33.6767985026,-51.6293690999
0.7555539608,-0.0835598958,-0.2225006510,-0.1928419596,42.5861562093,35.2026774088,-55.6576894124
0.7582130432,-0.0928372395,-0.2239654948,-0.1601271159,42.5861562093,35.2026774088,-55.6576894124
0.7607901096,-0.0928372395,-0.2239654948,-0.1601271159,34.2243398030,36.0876871744,-58.5568593343
0.7633659840,-0.0928372395,-0.2239654948,-0.1601271159,34.2243398030,36.0876871744,-58.5568593343
0.7659361362,-0.0928372395,-0.2239654948,-0.0351271159,25.3589833577,37.3083902994,-61.1355946859
0.7685160637,-0.0991848958,-0.2146881510,-0.1298536783,25.3589833577,37.3083902994,-61.1355946859
0.7710900307,-0.0991848958,-0.2146881510,-0.1298536783,17.4244130452,38.0865885416,-63.3633778890
0.7736599445,-0.0991848958,-0.2146881510,-0.1298536783,17.4244130452,38.0865885416,-63.3633778890
0.7762300968,-0.0991848958,-0.2146881510,-0.1171583659,9.9628651937,38.5748697916,-64.7977040609
0.7788550854,-0.0840481771,-0.1888092448,-0.1171583659,9.9628651937,38.5748697916,-64.7977040609
0.7814331055,-0.0840481771,-0.1888092448,-0.1171583659,2.1503651937,39.2309977213,-66.5982411702
0.7840120792,-0.0840481771,-0.1888092448,-0.1171583659,3.3710683187,39.2309977213,-66.5982411702
0.7865841389,-0.0840481771,-0.1888092448,-0.0776075846,3.3710683187,39.3530680338,-67.5595448812
0.7892849445,-0.0908841145,-0.1575592448,-0.0776075846,-2.2289072673,39.3530680338,-67.5595448812
0.7919900417,-0.0908841145,-0.1575592448,-0.0776075846,-2.2289072673,38.7732340494,-68.5971425374
0.7946970463,-0.0908841145,-0.1575592448,-0.0776075846,-8.0882822673,38.7732340494,-68.5971425374
0.7974100113,-0.0977200521,-0.1331451822,-0.0483107096,-8.0882822673,39.0631510416,-70.0162099202
0.8001320362,-0.0977200521,-0.1331451822,-0.0483107096,-13.7035166423,39.0631510416,-70.0162099202
0.8028349876,-0.0977200521,-0.1331451822,-0.0483107096,-13.7035166423,39.4293619791,-71.0995839437
0.8055489063,-0.0977200521,-0.1331451822,-0.0483107096,-19.2577158610,39.4293619791,-71.0995839437
0.8083059788,-0.1099270833,-0.0984772135,-0.0292677409,-19.2577158610,40.1465250651,-71.4352773030
0.8110120296,-0.1099270833,-0.0984772135,-0.0292677409,-26.0173594157,40.1465250651,-71.4352773030
0.8137741089,-0.1099270833,-0.0984772135,-0.0292677409,-26.0173594157,41.2756754557,-71.2369130452
0.8164920807,-0.1099270833,-0.0984772135,-0.0146193033,-32.7464853923,41.2756754557,-71.2369130452
0.8196210861,-0.0928372395,-0.0540436198,-0.0146193033,-39.2162119548,42.1454264323,-71.0080312093
0.8223340511,-0.0928372395,-0.0540436198,-0.0146193033,-39.2162119548,42.1454264323,-71.0080312093
0.8250410557,-0.0928372395,-0.0540436198,-0.0146193033,-43.7480723063,43.3203531901,-70.0619862874
0.8277399540,-0.0982083333,-0.0110748698,0.0210252279,-43.7480723063,43.3203531901,-70.0619862874
0.8303151131,-0.0982083333,-0.0110748698,0.0210252279,-47.6543223063,44.1290690104,-69.9093983968
0.8328931332,-0.0982083333,-0.0110748698,0.0210252279,-47.3796641032,44.1290690104,-69.9093983968
0.8354730606,-0.0982083333,-0.0110748698,0.0210252279,-47.3796641032,44.1290690104,-70.4281972249
0.8381130695,-0.0840481771,0.0235930990,0.0464158529,-51.0265146891,44.7089029947,-70.4281972249
0.8408241272,-0.0840481771,0.0235930990,0.0464158529,-51.0265146891,44.7089029947,-69.8941396077
0.8435339928,-0.0840481771,0.0235930990,0.0464158529,-54.2308603923,45.1514078776,-69.8941396077
0.8462460041,-0.0840481771,0.0235930990,0.0464158529,-54.2308603923,45.1514078776,-68.9328358968
0.8489091396,-0.0816067708,0.0636321615,0.0796189779,-55.8788096110,45.0598551432,-68.9328358968
0.8514900208,-0.0816067708,0.0636321615,0.0796189779,-55.8788096110,45.0598551432,-68.3224843343
0.8540680408,-0.0816067708,0.0636321615,0.0796189779,-56.3365732829,44.9683024088,-68.3224843343
0.8566410542,-0.0816067708,0.0636321615,0.0796189779,-56.3365732829,44.9683024088,-68.3224843343
0.8592789173,-0.0830716145,0.0787688802,0.1069627279,-55.6194101970,44.5715738932,-68.1698964437
0.8618590832,-0.0830716145,0.0787688802,0.1069627279,-55.6194101970,44.5715738932,-68.1698964437
0.8644390106,-0.0830716145,0.0787688802,0.1069627279,-55.1921641032,43.8696695963,-68.1088612874
0.8670151234,-0.0830716145,0.0787688802,0.1406541341,-55.1921641032,43.8696695963,-68.1088612874
0.8697659969,-0.0933255208,0.0626555990,0.1406541341,-55.6651865641,43.3050944010,-67.7426503499
0.8723390102,-0.0933255208,0.0626555990,0.1406541341,-55.6651865641,43.3050944010,-67.7426503499
0.8749101162,-0.0933255208,0.0626555990,0.1406541341,-56.3213144938,41.7792154947,-66.9034169515
0.8774881363,-0.0933255208,0.0724212240,0.1455369467,-56.3213144938,41.7792154947,-66.9034169515
0.8801639080,-0.0737942708,0.0724212240,0.1455369467,-56.6264902751,40.2075602213,-65.7590077718
0.8828520775,-0.0737942708,0.0724212240,0.1455369467,-56.6264902751,40.2075602213,-65.7590077718
0.8854300976,-0.0737942708,0.0724212240,0.1455369467,-56.6112314860,38.6359049479,-64.7671864827
0.8880710602,-0.0523098958,0.1002532552,0.1650681967,-56.6112314860,38.6359049479,-64.7671864827
0.8907771111,-0.0523098958,0.1002532552,0.1650681967,-56.6417490641,36.3013102213,-63.2413075765
0.8934900761,-0.0523098958,0.1002532552,0.1650681967,-56.6417490641,36.3013102213,-63.2413075765
0.8961961269,-0.0523098958,0.1002532552,0.1650681967,-56.6112314860,34.6381022135,-61.9290517171
0.8989889622,-0.0347317708,0.1173430990,0.1743455404,-56.6112314860,34.6381022135,-61.9290517171
0.9017000198,-0.0347317708,0.1173430990,0.1743455404,-56.0466562907,32.8986002604,-60.7999013265
0.9044089317,-0.0347317708,0.1173430990,0.1743455404,-56.0466562907,32.8986002604,-60.7999013265
0.9071130753,-0.0347317708,0.1173430990,0.1743455404,-55.2531992595,30.5945231119,-59.9454091390
0.9098279476,-0.0278958333,0.1183196615,0.1958299154,-55.2531992595,30.5945231119,-59.9454091390
0.9125390053,-0.0278958333,0.1183196615,0.1958299154,-55.8635508220,28.0920817057,-58.6941884359
0.9152460098,-0.0278958333,0.1183196615,0.1958299154,-55.8635508220,28.0920817057,-58.6941884359
0.9180719852,-0.0278958333,0.1285735678,0.2016892904,-57.2215830485,25.9100748697,-57.2446034749
0.9206540585,-0.0147122395,0.1285735678,0.2016892904,-57.2215830485,25.9100748697,-57.2446034749
0.9232280254,-0.0147122395,0.1285735678,0.2016892904,-58.6101328532,23.2397867838,-55.7797597249
0.9258050919,-0.0147122395,0.1285735678,0.2016892904,-58.6101328532,23.2397867838,-55.7797597249
0.9283900261,-0.0147122395,0.1412688802,0.2168260091,-58.6101328532,20.8136393229,-54.3606923421
0.9309649467,-0.0093411458,0.1412688802,0.2168260091,-60.5022226970,20.8136393229,-54.3606923421
0.9335451126,-0.0093411458,0.1412688802,0.2168260091,-60.5022226970,18.4637858073,-53.5672353109
0.9363350868,-0.0093411458,0.1412688802,0.2168260091,-62.1196543376,18.4637858073,-53.5672353109
0.9393329620,-0.0098294271,0.1915618490,0.2514939779,-60.7311045329,15.8850504557,-53.0942128499
0.9420509338,-0.0098294271,0.1915618490,0.2514939779,-60.7311045329,15.8850504557,-53.0942128499
0.9447610378,-0.0098294271,0.1915618490,0.2514939779,-59.5714365641,13.7335611979,-50.7138417562
0.9475951195,-0.0098294271,0.1915618490,0.2514939779,-59.5714365641,13.7335611979,-50.7138417562
0.9502980709,-0.0127591145,0.2638274740,0.3032517904,-58.8237559001,10.0256754557,-47.4789784749
0.9530050755,-0.0127591145,0.2638274740,0.3032517904,-58.8237559001,10.0256754557,-47.4789784749
0.9557111263,-0.0127591145,0.2638274740,0.3032517904,-57.1910654704,6.4703776041,-45.2054189046
0.9584181309,-0.0127591145,0.2657805990,0.3081346029,-57.1910654704,6.4703776041,-45.2054189046
0.9611270428,-0.0132473958,0.2657805990,0.3081346029,-54.6275889079,3.7848307291,-43.2675526937
0.9638309479,-0.0132473958,0.2657805990,0.3081346029,-54.6275889079,3.7848307291,-43.2675526937
0.9665410519,-0.0132473958,0.2657805990,0.3081346029,-49.3938242595,2.2894694010,-40.8719228109
0.9692161083,-0.0610989583,0.2823821615,0.2192674154,-49.3938242595,2.2894694010,-40.8719228109
0.9717879295,-0.0610989583,0.2823821615,0.2192674154,-49.3938242595,-0.1214192709,-37.5149892171
0.9743630886,-0.0610989583,0.2823821615,0.2192674154,-47.2881113688,-0.1214192709,-37.5149892171
0.9769380093,-0.0610989583,0.2823821615,0.2192674154,-47.2881113688,-4.0276692709,-33.9596913655
0.9795169830,-0.0239895833,0.3155852865,0.2002244467,-48.5393320720,-4.2718098959,-33.9596913655
0.9820909500,-0.0239895833,0.3155852865,0.2002244467,-48.5393320720,-4.2718098959,-29.9618886312
0.9846630096,-0.0239895833,0.3155852865,0.2002244467,-51.9573008220,-6.5758870443,-29.9618886312
0.9872429371,-0.0239895833,0.3155852865,0.2002244467,-51.9573008220,-6.5758870443,-26.0556386312
0.9899230003,-0.0440091145,0.3678313802,0.1474900717,-55.1921641032,-8.0712483724,-24.7891591390
0.9925000668,-0.0440091145,0.3678313802,0.1474900717,-55.1921641032,-8.0712483724,-24.7891591390
0.9950740337,-0.0440091145,0.3678313802,0.1474900717,-60.1360117595,-8.8189290365,-17.8006337483
0.9979319572,-0.0440091145,0.3678313802,0.1474900717,-60.1360117595,-8.8189290365,-17.8006337483
1.0006411076,-0.0581692708,0.4703704428,0.0625291341,-65.4765879313,-8.4832356771,-9.3472646077
1.0033459663,-0.0581692708,0.4703704428,0.0625291341,-65.4765879313,-8.4832356771,-9.3472646077
1.0060501099,-0.0581692708,0.4703704428,0.0625291341,-68.5741221110,-8.0254720053,2.2646738688
1.0087709427,-0.0581692708,0.5953704428,0.0303025717,-68.5741221110,-8.0254720053,2.2646738688
1.0115909576,-0.0830716145,0.6481048178,0.0303025717,-64.2711435954,-7.1404622396,14.2275644938
1.0143001080,-0.0830716145,0.6481048178,0.0303025717,-64.2711435954,-7.1404622396,14.2275644938
1.0170130730,-0.0830716145,0.6481048178,0.0303025717,-50.6908213298,-6.8200276693,21.9637705485
1.0197360516,-0.0298489583,0.5401946615,-0.0756544596,-50.6908213298,-6.8200276693,21.9637705485
1.0224499702,-0.0298489583,0.5401946615,-0.0756544596,-28.1841074626,-6.6064046224,25.2596689860
1.0251591206,-0.0298489583,0.5401946615,-0.0756544596,-28.1841074626,-6.6064046224,25.2596689860
1.0278720856,-0.0298489583,0.5401946615,-0.0756544596,-3.3885752360,-5.2788899740,20.1327158610
1.0304439068,0.0365572917,0.1051360678,-0.2963575846,-3.3885752360,-5.2788899740,20.1327158610
1.0330109596,0.0365572917,0.1051360678,-0.2963575846,14.1590321859,-4.2412923177,8.1698252360
1.0355799198,0.0365572917,0.1051360678,-0.2963575846,14.1590321859,-4.2412923177,8.1698252360
1.0382449627,0.0365572917,0.1051360678,-0.2963575846,18.0805409749,-4.0581868490,-0.6039784749
1.0408210754,0.0072604167,-0.1438873698,-0.3808302409,18.0805409749,-4.0581868490,-0.6039784749
1.0433959961,0.0072604167,-0.1438873698,-0.3808302409,9.9323476155,-7.0794270834,-4.4186757405
1.0459749699,0.0072604167,-0.1438873698,-0.3808302409,9.9323476155,-7.0794270834,-4.4186757405
1.0486679077,0.0072604167,-0.1438873698,-0.1308302409,-2.8697764079,-14.5562337240,-7.8671620687
1.0513370037,-0.0410794271,-0.1619537760,-0.0668653971,-2.8697764079,-14.5562337240,-7.8671620687
1.0541820526,-0.0410794271,-0.1619537760,-0.0668653971,-10.5907236735,-22.8570149740,-12.0175526937
1.0572710037,-0.0410794271,-0.1619537760,-0.0668653971,-10.5907236735,-22.8570149740,-12.0175526937
1.0599770546,-0.1338528645,0.0250579428,0.0888963217,-10.2245127360,-25.4052327474,-11.9565175374
1.0626699924,-0.1338528645,0.0250579428,0.0888963217,-10.2245127360,-25.4052327474,-11.9565175374
1.0653591156,-0.1338528645,0.0250579428,0.0888963217,-5.6010996501,-23.9861653646,-9.0573476155
1.0680830479,-0.1338528645,0.0250579428,0.0888963217,-5.6010996501,-23.9861653646,-9.0573476155
1.0707669258,-0.2691067708,0.0499602865,-0.0502638346,-6.1961924235,-23.4521077474,-6.9058583577
1.0734560490,-0.2691067708,0.0499602865,-0.0502638346,-6.1961924235,-23.4521077474,-6.9058583577
1.0762450695,-0.2691067708,0.0499602865,-0.0502638346,-12.3912607829,-25.1000569662,-5.6546376546
1.0789511204,-0.2691067708,0.0499602865,-0.0502638346,-12.3912607829,-25.1000569662,-5.6546376546
1.0816431046,-0.2354153645,-0.1487701822,-0.0854200846,-21.4549814860,-26.1376546224,-4.5865224202
1.0843360424,-0.2354153645,-0.1487701822,-0.0854200846,-21.4549814860,-26.1376546224,-4.5865224202
1.0870270729,-0.2354153645,-0.1487701822,-0.0854200846,-29.1148935954,-26.5191243490,-2.8470204671
1.0914759636,-0.1231106771,-0.1238678385,-0.1596388346,-32.4413096110,-26.3512776693,-1.4432118733
1.0944850445,-0.1231106771,-0.1238678385,-0.1596388346,-32.4413096110,-26.3512776693,-1.4432118733
1.0970621109,-0.1231106771,-0.1238678385,-0.1596388346,-33.4636484782,-26.1986897787,-0.8176015218
1.0998439789,-0.1231106771,0.0450774740,-0.1410841471,-33.4636484782,-26.1986897787,-0.8176015218
1.1024160385,-0.0576809895,0.0450774740,-0.1410841471,-33.4636484782,-25.4204915365,-1.5805409749
1.1049880981,-0.0576809895,0.0450774740,-0.1410841471,-31.9377695720,-25.4204915365,-1.5805409749
1.1076009274,-0.0576809895,0.0450774740,-0.1410841471,-31.9377695720,-25.4204915365,-3.7778065999
1.1101739407,-0.0576809895,0.1090423178,0.0019822591,-28.2604014079,-24.4744466146,-3.7778065999
1.1127460003,-0.0059231771,0.1090423178,0.0019822591,-28.2604014079,-24.4744466146,-7.0279286702
1.1153180599,-0.0059231771,0.1090423178,0.0019822591,-24.0947519938,-23.9098714193,-7.0279286702
1.1179220676,-0.0059231771,0.1090423178,0.0019822591,-24.0947519938,-23.9098714193,-7.0279286702
1.1204941273,-0.0396145833,0.0519134115,0.0874314779,-20.6767832438,-23.1164143881,-9.6371815999
1.1230649948,-0.0396145833,0.0519134115,0.0874314779,-20.6767832438,-23.1164143881,-9.6371815999
1.1256370544,-0.0396145833,0.0519134115,0.0874314779,-18.2201182048,-21.3311360677,-10.9341786702
1.1282570362,-0.0396145833,0.0519134115,0.0874314779,-18.2201182048,-21.3311360677,-10.9341786702
1.1308231354,-0.0977200521,-0.0315826822,0.0791306967,-16.5416514079,-19.5458577474,-11.3003896077
1.1333920956,-0.0977200521,-0.0315826822,0.0791306967,-16.5416514079,-19.5458577474,-11.3003896077
1.1359610558,-0.0977200521,-0.0315826822,0.0791306967,-15.0768076579,-17.7910970053,-10.8273671468
1.1387550831,-0.0977200521,-0.0315826822,0.0791306967,-15.0768076579,-17.7910970053,-10.8273671468
1.1413300037,-0.1670559895,-0.0369537760,0.0522752279,-13.8408457438,-15.5633138021,-9.9576161702
1.1440179348,-0.1670559895,-0.0369537760,0.0522752279,-13.8408457438,-15.5633138021,-9.9576161702
1.1465909481,-0.1670559895,-0.0369537760,0.0522752279,-13.7645517985,-13.2287190756,-9.0420888265
1.1494009495,-0.1670559895,-0.0369537760,0.0522752279,-13.7645517985,-13.2287190756,-9.0420888265
1.1521100998,-0.1983059895,-0.0530670572,0.0234666341,-13.9171396891,-11.5349934896,-8.2181142171
1.1548171043,-0.1983059895,-0.0530670572,0.0234666341,-13.9171396891,-11.5349934896,-8.2181142171
1.1575269699,-0.1983059895,-0.0530670572,0.0234666341,-13.3830820720,-9.9938557943,-7.2873280843
1.1602380276,-0.1983059895,-0.0530670572,0.0137010091,-13.3830820720,-9.9938557943,-7.2873280843
1.1629469395,-0.1773098958,-0.0530670572,0.0137010091,-12.9253184001,-8.6358235677,-6.4023183187
1.1656529903,-0.1773098958,-0.0530670572,0.0137010091,-12.9253184001,-8.6358235677,-6.4023183187
1.1683719158,-0.1773098958,-0.0530670572,0.0137010091,-13.2610117595,-7.2167561849,-5.9598134359
1.1710789204,-0.1362942708,-0.0091217448,-0.0141310221,-13.2610117595,-7.2167561849,-5.9598134359
1.1737780571,-0.1362942708,-0.0091217448,-0.0141310221,-13.6119639079,-6.5453694662,-5.7614491780
1.1764891148,-0.1362942708,-0.0091217448,-0.0141310221,-13.6119639079,-6.5453694662,-5.7614491780
1.1791260242,-0.1362942708,-0.0091217448,-0.0141310221,-13.4593760173,-5.6451009115,-5.7614491780
1.1817021370,-0.1270169271,-0.0140045572,-0.0361036783,-13.4593760173,-5.6451009115,-5.7614491780
1.1842811108,-0.1270169271,-0.0140045572,-0.0361036783,-12.8948008220,-4.6837972006,-5.0748036702
1.1868600845,-0.1270169271,-0.0140045572,-0.0361036783,-12.8948008220,-4.6837972006,-5.0748036702
1.1895229816,-0.1270169271,-0.0140045572,-0.0361036783,-12.8948008220,-4.0581868490,-4.6780751546
1.1921911240,-0.1353177083,-0.0467194010,-0.0605177409,-11.7046152751,-4.0581868490,-4.6780751546
1.1948540211,-0.1353177083,-0.0467194010,-0.0605177409,-11.7046152751,-3.3715413412,-3.9914296468
1.1975929737,-0.1353177083,-0.0467194010,-0.0605177409,-10.9569346110,-3.3715413412,-3.9914296468
1.2002990246,-0.1353177083,-0.0467194010,-0.0673536783,-10.9569346110,-3.0816243490,-2.4655507405
1.2030019760,-0.1470364583,-0.0545319010,-0.0673536783,-10.7890879313,-3.0816243490,-2.4655507405
1.2058589458,-0.1470364583,-0.0545319010,-0.0673536783,-10.7890879313,-2.2271321615,-0.5124257405
1.2089929581,-0.1470364583,-0.0545319010,-0.0673536783,-10.6822764079,-2.2271321615,-0.5124257405
1.2117040157,-0.1314114583,-0.0682037760,-0.0546583659,-10.4381357829,-2.3339436849,0.9676767985
1.2144050598,-0.1314114583,-0.0682037760,-0.0546583659,-10.4381357829,-2.3339436849,0.9676767985
1.2171061039,-0.1314114583,-0.0682037760,-0.0546583659,-10.2245127360,-1.7235921224,2.1273447673
1.2198181152,-0.1314114583,-0.0682037760,-0.0546583659,-10.2245127360,-1.7235921224,2.1273447673
1.2225229740,-0.1104153645,-0.0393951822,-0.0234083659,-11.5672861735,-0.8690999349,3.1649424235
1.2252271175,-0.1104153645,-0.0393951822,-0.0234083659,-11.5672861735,-0.8690999349,3.1649424235
1.2279369831,-0.1104153645,-0.0393951822,-0.0234083659,-12.1471201579,-0.6707356771,4.1720225017
1.2305109501,-0.1104153645,-0.0393951822,0.1015916341,-12.1471201579,-0.6707356771,4.1720225017
1.2330861092,-0.0850247395,0.0143157552,-0.0126661783,-12.1471201579,-0.2434895834,4.2635752360
1.2356619835,-0.0850247395,0.0143157552,-0.0126661783,-12.0097910563,-0.2434895834,4.2635752360
1.2382841110,-0.0850247395,0.0143157552,-0.0126661783,-12.0097910563,-0.2434895834,4.2025400798
1.2408571243,-0.0850247395,0.0143157552,0.0073533529,-10.8806406657,0.5041910807,4.2025400798
1.2434310913,-0.0923489583,0.0304290365,0.0073533529,-10.8806406657,0.5041910807,3.8210703532
1.2460010052,-0.0923489583,0.0304290365,0.0073533529,-9.8277842204,1.5265299479,3.8210703532
1.2485749722,-0.0923489583,0.0304290365,0.0073533529,-9.8277842204,1.5265299479,-0.0851796468
1.2511451244,-0.0923489583,0.0304290365,0.0088181967,-8.2866465251,2.2436930338,2.9665781657
1.2537109852,-0.0855130208,0.0372649740,0.0088181967,-8.2866465251,2.2436930338,2.9665781657
1.2562830448,-0.0855130208,0.0372649740,0.0088181967,-6.8218027751,2.9303385416,1.8832041423
1.2589750290,-0.0855130208,0.0372649740,0.0088181967,-6.8218027751,2.9303385416,1.8832041423
1.2615420818,-0.0855130208,0.0265227865,0.0005174154,-4.9602305095,3.5406901041,0.9981943767
1.2641110420,-0.0874661458,0.0265227865,0.0005174154,-4.9602305095,3.5406901041,0.9981943767
1.2666749954,-0.0874661458,0.0265227865,0.0005174154,-3.7853037517,3.6017252604,-0.3293202718
1.2694280148,-0.0874661458,0.0265227865,0.0005174154,-3.7853037517,3.6017252604,-0.3293202718
1.2722299099,-0.0698880208,0.0436126302,-0.0102247721,-1.5575205485,4.1357828776,-1.8246815999
1.2749350071,-0.0698880208,0.0436126302,-0.0102247721,-1.5575205485,4.1357828776,-1.8246815999
1.2776429653,-0.0698880208,0.0436126302,-0.0102247721,0.0599110921,4.2120768229,-3.0301259359
1.2802150249,-0.0698880208,0.0436126302,-0.0102247721,0.0599110921,4.2120768229,-3.0301259359
1.2827780247,-0.0635403645,0.0753509115,-0.0361036783,1.0364735921,4.0747477213,-4.1592763265
1.2853469849,-0.0635403645,0.0753509115,-0.0361036783,1.0364735921,4.0747477213,-4.1592763265
1.2879500389,-0.0635403645,0.0753509115,-0.0361036783,1.8757069905,3.7543131510,-6.6159413655
1.2906420231,-0.0635403645,0.0753509115,-0.0361036783,1.8757069905,3.7543131510,-6.6159413655
1.2933390141,-0.0527981771,0.0514251302,-0.0419630533,2.4707997640,3.6932779947,-8.5385487874
1.2960379124,-0.0527981771,0.0514251302,-0.0419630533,2.4707997640,3.6932779947,-8.5385487874
1.2987439632,-0.0527981771,0.0514251302,-0.0419630533,2.5623524983,3.2812906901,-9.3167470296
1.3014380932,-0.0527981771,0.0514251302,-0.0619825846,2.5623524983,3.2812906901,-9.3167470296
1.3041350842,-0.0547513021,0.0392180990,-0.0619825846,1.7841542562,2.8082682291,-10.4764149983
1.3068330288,-0.0547513021,0.0392180990,-0.0619825846,1.7841542562,2.8082682291,-10.4764149983
1.3095419407,-0.0547513021,0.0392180990,-0.0619825846,0.7465565999,2.2284342447,-11.5597890218
1.3122420311,-0.0547513021,0.0143157552,-0.0497755533,0.7465565999,2.2284342447,-11.5597890218
1.3149349689,-0.0625638021,0.0143157552,-0.0497755533,0.4871571859,2.0453287760,-12.3227284749
1.3176400661,-0.0625638021,0.0143157552,-0.0497755533,0.4871571859,2.0453287760,-12.3227284749
1.3203380108,-0.0625638021,0.0143157552,-0.0497755533,0.4261220296,2.0453287760,-12.8415273030
1.3230381012,-0.0601223958,0.0333587240,-0.0551466471,0.4261220296,2.0453287760,-12.8415273030
1.3258299828,-0.0601223958,0.0333587240,-0.0551466471,0.1972401937,1.6180826823,-13.3298085530
1.3285019398,-0.0601223958,0.0333587240,-0.0551466471,0.1972401937,1.6180826823,-13.3298085530
1.3310611248,-0.0601223958,0.0333587240,-0.0551466471,0.1972401937,0.0922037760,-14.0164540609
1.3336291313,-0.0591458333,0.0460540365,-0.0605177409,0.5634511312,0.0922037760,-14.0164540609
1.3362989426,-0.0591458333,0.0460540365,-0.0605177409,0.5634511312,0.0922037760,-14.4589589437
1.3389430046,-0.0591458333,0.0460540365,-0.0605177409,1.6010487874,-0.8385823568,-14.4589589437
1.3416481018,-0.0591458333,0.0460540365,-0.0400099283,1.6010487874,-0.8385823568,-15.2829335530
1.3443400860,-0.0693997395,0.0323821615,-0.0400099283,2.4097646077,-1.0979817709,-15.2829335530
1.3470430374,-0.0693997395,0.0323821615,-0.0400099283,2.4097646077,-1.0979817709,-15.1761220296
1.3497529030,-0.0693997395,0.0323821615,-0.0400099283,3.2032216390,-1.5710042318,-15.1761220296
1.3524520397,-0.0693997395,0.0025970052,-0.0370802409,3.2032216390,-1.5710042318,-14.9014638265
1.3551509380,-0.0796536458,0.0025970052,-0.0370802409,3.0048573812,-2.0745442709,-14.9014638265
1.3578839302,-0.0796536458,0.0025970052,-0.0370802409,3.0048573812,-2.0745442709,-14.3063710530
1.3604481220,-0.0796536458,0.0025970052,-0.0370802409,2.2419179280,-2.3797200521,-14.3063710530
1.3630161285,-0.0825833333,0.0191985678,-0.0243849283,2.2419179280,-2.3797200521,-14.3063710530
1.3655779362,-0.0825833333,0.0191985678,-0.0243849283,2.3334706624,-2.5933430990,-13.8791249593
1.3682279587,-0.0825833333,0.0191985678,-0.0243849283,2.3334706624,-2.5933430990,-13.8791249593
1.3707900047,-0.0825833333,0.0191985678,-0.0243849283,3.1574452718,-2.7154134115,-13.1924794515
1.3733570576,-0.0693997395,0.0265227865,-0.0307325846,3.1574452718,-2.7154134115,-13.1924794515
1.3759291172,-0.0693997395,0.0265227865,-0.0307325846,3.6304677327,-2.6086018881,-13.4061024983
1.3786730766,-0.0693997395,0.0265227865,-0.0307325846,3.6304677327,-2.6086018881,-13.4061024983
1.3812429905,-0.0693997395,0.0265227865,-0.0307325846,3.5236562093,-2.4254964193,-13.8333485921
1.3838150501,-0.0928372395,0.0162688802,-0.0258497721,3.5236562093,-2.4254964193,-13.8333485921
1.3863871098,-0.0928372395,0.0162688802,-0.0258497721,3.9051259359,-3.0358479818,-13.6502431233
1.3890829086,-0.0928372395,0.0162688802,-0.0258497721,3.9051259359,-3.0358479818,-13.6502431233
1.3917839527,-0.0928372395,0.0162688802,-0.0258497721,4.3934071859,-2.9290364584,-13.3298085530
1.3944790363,-0.0947903645,0.0128509115,-0.0258497721,4.3934071859,-2.9290364584,-13.3298085530
1.3972549438,-0.0947903645,0.0128509115,-0.0258497721,4.9579823812,-2.6391194662,-13.3908437093
1.4000430107,-0.0947903645,0.0128509115,-0.0258497721,4.9579823812,-2.6391194662,-13.3908437093
1.4027011395,-0.0947903645,0.0289641928,-0.0307325846,5.4310048421,-3.0968831381,-13.4518788655
1.4054610729,-0.0820950521,0.0289641928,-0.0307325846,5.4310048421,-3.0968831381,-13.4518788655
1.4089190960,-0.0820950521,0.0289641928,-0.0307325846,5.5225575765,-3.4325764974,-13.4366200765
1.4114849567,-0.0820950521,0.0289641928,-0.0307325846,5.5225575765,-3.4325764974,-13.4366200765
1.4140419960,-0.0640286458,0.0284759115,-0.0424513346,5.5378163655,-3.7530110677,-13.0551503499
1.4166021347,-0.0640286458,0.0284759115,-0.0424513346,5.5378163655,-3.7530110677,-13.0551503499
1.4192340374,-0.0640286458,0.0284759115,-0.0424513346,5.4462636312,-4.1802571615,-13.3603261312
1.4217960835,-0.0640286458,0.0284759115,-0.0424513346,5.4462636312,-4.1802571615,-13.3603261312
1.4243531227,-0.0635403645,0.0353118490,-0.0326857096,5.9498036702,-4.3786214193,-13.6044667562
1.4269130230,-0.0635403645,0.0353118490,-0.0326857096,5.9498036702,-4.3786214193,-13.6044667562
1.4294850826,-0.0635403645,0.0353118490,-0.0326857096,7.0179189046,-4.5006917318,-13.1467030843
1.4320499897,-0.0635403645,0.0353118490,-0.0326857096,7.0179189046,-4.5006917318,-13.1467030843
1.4346139431,-0.0708645833,0.0245696615,-0.0370802409,7.0179189046,-4.9126790365,-12.5973866780
1.4371759892,-0.0708645833,0.0245696615,-0.0370802409,7.5824940999,-4.9126790365,-12.5973866780
1.4397859573,-0.0708645833,0.0245696615,-0.0370802409,7.5824940999,-5.1568196615,-12.4447987874
1.4423439503,-0.0708645833,0.0245696615,-0.0370802409,8.3759511312,-5.1568196615,-12.4447987874
1.4449019432,-0.0947903645,0.0045501302,-0.0126661783,8.3759511312,-5.1568196615,-11.5903065999
1.4474670887,-0.0947903645,0.0045501302,-0.0126661783,9.1541493733,-4.4396565756,-11.5903065999
1.4500360489,-0.0947903645,0.0045501302,-0.0126661783,9.1541493733,-4.4396565756,-11.5903065999
1.4526050091,-0.0947903645,0.0045501302,-0.0126661783,9.6882069905,-4.2565511068,-10.0949452718
1.4551649094,-0.1040677083,0.0011321615,0.0014939779,9.6882069905,-4.2565511068,-10.0949452718
1.4578421116,-0.1040677083,0.0011321615,0.0014939779,10.8631337483,-3.9971516927,-8.6148427327
1.4604279995,-0.1040677083,0.0011321615,0.0014939779,10.8631337483,-3.9971516927,-8.6148427327
1.4631059170,-0.1040677083,0.0011321615,0.0215135091,12.2974599202,-3.0968831381,-7.0431874593
1.4656789303,-0.1128567708,0.0118743490,0.0215135091,12.2974599202,-3.0968831381,-7.0431874593
1.4684209824,-0.1128567708,0.0118743490,0.0215135091,14.5557607015,-2.3186848959,-5.8377431233
1.4711239338,-0.1128567708,0.0118743490,0.0215135091,14.5557607015,-2.3186848959,-5.8377431233
1.4738259315,-0.2378567708,-0.0017975260,0.0332322591,16.6309560140,-1.9219563803,-4.6475575765
1.4765319824,-0.1289700521,-0.0017975260,0.0332322591,16.6309560140,-1.9219563803,-4.6475575765
1.4792039394,-0.1289700521,-0.0017975260,0.0332322591,18.2178700765,-0.6554768881,-3.5489247640
1.4817790985,-0.1289700521,-0.0017975260,0.0332322591,18.2178700765,-0.6554768881,-3.5489247640
1.4843590260,-0.1685208333,-0.0262115885,0.0556931967,19.1028798421,0.9009195963,-1.8094228109
1.4869370461,-0.1685208333,-0.0262115885,0.0556931967,19.1028798421,0.9009195963,-1.8094228109
1.4896171093,-0.1685208333,-0.0262115885,0.0556931967,18.7824452718,1.9385172526,0.1284434001
1.4923241138,-0.1685208333,-0.0262115885,0.0556931967,18.7824452718,1.9385172526,0.1284434001
1.4950320721,-0.1563138021,-0.0266998698,0.0459275717,18.2178700765,3.0066324869,2.3104502360
1.4977290630,-0.1563138021,-0.0266998698,0.0459275717,18.2178700765,3.0066324869,2.3104502360
1.5003039837,-0.1563138021,-0.0266998698,0.0459275717,17.5922597249,3.7237955729,4.3551279704
1.5028820038,-0.1563138021,-0.0266998698,0.0459275717,17.5922597249,3.7237955729,4.3551279704
1.5054540634,-0.1284817708,-0.0066803385,0.0093064779,16.5851796468,4.5019938151,6.6897226970
1.5081100464,-0.1284817708,-0.0066803385,0.0093064779,16.5851796468,4.5019938151,6.6897226970
1.5108129978,-0.1284817708,-0.0066803385,0.0093064779,15.4560292562,5.6769205729,8.7801767985
1.5135130882,-0.1284817708,-0.0066803385,-0.0195021159,15.4560292562,5.6769205729,8.7801767985
1.5162310600,-0.1279934895,-0.0130279948,-0.0195021159,15.4255116780,6.5314127604,10.3060557048
1.5189499855,-0.1279934895,-0.0130279948,-0.0195021159,15.4255116780,6.5314127604,10.3060557048
1.5216510296,-0.1279934895,-0.0130279948,-0.0195021159,15.4255116780,7.1417643229,11.7861582438
1.5244390965,-0.1162747395,-0.0183990885,-0.0199903971,15.0898183187,7.1417643229,11.7861582438
1.5272591114,-0.1162747395,-0.0183990885,-0.0199903971,15.1966298421,7.1722819010,13.4646250407
1.5298781395,-0.1162747395,-0.0183990885,-0.0199903971,15.1966298421,7.1722819010,13.4646250407
1.5324549675,-0.1162747395,-0.0183990885,-0.0199903971,15.1966298421,7.6910807291,15.0820566813
1.5350320339,-0.1172513021,0.0069915365,-0.0483107096,15.2729237874,7.6910807291,15.0820566813
1.5376191139,-0.1172513021,0.0069915365,-0.0483107096,15.2729237874,7.6910807291,16.9741465251
1.5403239727,-0.1172513021,0.0069915365,-0.0483107096,16.1121571859,8.2403971354,16.9741465251
1.5430359840,-0.1172513021,0.0069915365,-0.0483107096,16.1121571859,12.1466471354,18.2558848063
1.5457460880,-0.1216458333,0.0060149740,-0.0483107096,16.9971669515,8.6829020182,18.2558848063
1.5484960079,-0.1216458333,0.0060149740,-0.0483107096,16.9971669515,8.6829020182,19.2171885173
1.5511999130,-0.1216458333,0.0060149740,-0.0483107096,17.0429433187,8.8202311197,19.2171885173
1.5539109707,-0.1216458333,0.0060149740,-0.0331739909,17.0429433187,8.8202311197,20.4378916423
1.5566139221,-0.1250638021,0.0187102865,-0.0331739909,16.7835439046,9.1559244791,20.4378916423
1.5592601299,-0.1250638021,0.0187102865,-0.0331739909,16.7835439046,9.1559244791,21.4449717204
1.5618340969,-0.1250638021,0.0187102865,-0.0331739909,15.1050771077,10.0409342447,21.4449717204
1.5644130707,-0.1250638021,0.0328704428,-0.0424513346,15.1050771077,10.0409342447,21.4449717204
1.5669929981,-0.1235989583,0.0328704428,-0.0424513346,13.6097157796,10.2850748697,22.4978281657
1.5697069168,-0.1235989583,0.0328704428,-0.0424513346,13.6097157796,10.2850748697,22.4978281657
1.5722861290,-0.1235989583,0.0328704428,-0.0424513346,11.1835683187,10.2545572916,23.7490488688
1.5748569965,-0.1084622395,0.0504485678,-0.0531935221,11.1835683187,10.2545572916,23.7490488688
1.5774290562,-0.1084622395,0.0504485678,-0.0531935221,8.4064687093,9.7510172526,24.8019053141
1.5802509785,-0.1084622395,0.0504485678,-0.0531935221,8.4064687093,9.7510172526,24.8019053141
1.5829529762,-0.1084622395,0.0504485678,-0.0531935221,6.0413564046,9.0491129557,25.3054453532
1.5856580734,-0.1148098958,0.0733977865,-0.0697950846,6.0413564046,9.0491129557,25.3054453532
1.5883760452,-0.1148098958,0.0733977865,-0.0697950846,5.2936757405,8.8965250651,26.3735605876
1.5911870003,-0.1148098958,0.0733977865,-0.0697950846,5.2936757405,8.8965250651,26.3735605876
1.5938930511,-0.1148098958,0.0733977865,-0.0697950846,5.0800526937,8.0572916666,27.4264170329
1.5965940952,-0.1201809895,0.0494720052,-0.0634474283,5.0800526937,8.0572916666,27.4264170329
1.5993080139,-0.1201809895,0.0494720052,-0.0634474283,6.1481679280,7.2180582682,28.1130625407
1.6021590233,-0.1201809895,0.0494720052,-0.0634474283,6.1481679280,7.2180582682,28.1130625407
1.6047310829,-0.1201809895,0.0436126302,-0.0585646159,7.0789540609,6.6992594401,29.3948008220
1.6073000431,-0.1318997395,0.0436126302,-0.0585646159,7.0789540609,6.6992594401,29.3948008220
1.6100409031,-0.1318997395,0.0436126302,-0.0585646159,7.3536122640,5.6311442057,30.5544687907
1.6127009392,-0.1318997395,0.0436126302,-0.0585646159,7.3536122640,5.6311442057,30.5544687907
1.6154890060,-0.1519192708,0.0509368490,-0.0497755533,8.1623280843,4.6850992838,31.3326670329
1.6187930107,-0.1519192708,0.0509368490,-0.0497755533,8.1623280843,4.6850992838,31.3326670329
1.6213660240,-0.1519192708,0.0509368490,-0.0497755533,9.7339833577,4.1357828776,31.9887949626
1.6239299774,-0.1519192708,0.0509368490,-0.0497755533,9.7339833577,4.1357828776,31.9887949626
1.6264901161,-0.1665677083,0.0538665365,-0.0605177409,10.1154530843,3.3575846354,32.0650889079
1.6292169094,-0.1665677083,0.0538665365,-0.0605177409,10.1154530843,3.3575846354,32.0650889079
1.6317880154,-0.1665677083,0.0538665365,-0.0605177409,10.1154530843,2.6861979166,32.3855234782
1.6343610287,-0.1665677083,0.0538665365,-0.0605177409,10.1154530843,2.6861979166,32.3855234782
1.6369349957,-0.1685208333,0.0538665365,-0.0605177409,10.7715810140,2.1521402994,33.3163096110
1.6396570206,-0.1685208333,0.0538665365,-0.0605177409,10.7715810140,2.1521402994,33.3163096110
1.6422250271,-0.1685208333,0.0538665365,-0.0605177409,10.6342519124,1.7859293619,34.0945078532
1.6447949409,-0.1685208333,0.0538665365,-0.0644239909,10.6342519124,1.7859293619,34.0945078532
1.6473650932,-0.1714505208,0.0680266928,-0.0644239909,10.1612294515,1.1145426432,34.4454600017
1.6501789093,-0.1714505208,0.0680266928,-0.0644239909,10.1612294515,1.1145426432,34.4454600017
1.6527531147,-0.1714505208,0.0680266928,-0.0644239909,10.2070058187,0.9466959635,34.4454600017
1.6554360390,-0.1714505208,0.0431243490,-0.0844435221,10.2070058187,0.9466959635,34.4454600017
1.6580090523,-0.1641263021,0.0431243490,-0.0844435221,9.8865712483,1.9690348307,34.9337412517
1.6606779099,-0.1641263021,0.0431243490,-0.0844435221,9.8865712483,1.9690348307,34.9337412517
1.6632449627,-0.1641263021,0.0431243490,-0.0844435221,9.8865712483,2.4878336588,36.0781504313
1.6658110619,-0.1528958333,0.0489837240,-0.0863966471,9.3067372640,2.4878336588,36.0781504313
1.6684219837,-0.1528958333,0.0489837240,-0.0863966471,9.3067372640,3.1439615885,36.2307383220
1.6710739136,-0.1528958333,0.0489837240,-0.0863966471,8.2996571859,3.1439615885,36.2307383220
1.6736431122,-0.1528958333,0.0489837240,-0.0863966471,8.2996571859,3.1439615885,36.5511728923
1.6762170792,-0.1421536458,0.0802337240,-0.0785841471,7.0179189046,3.8458658854,36.5511728923
1.6789829731,-0.1421536458,0.0802337240,-0.0785841471,7.0179189046,3.8458658854,37.1157480876
1.6815531254,-0.1421536458,0.0802337240,-0.0785841471,5.5072987874,4.0442301432,37.1157480876
1.6841230392,-0.1421536458,0.0802337240,-0.0785841471,5.5072987874,4.0442301432,37.1157480876
1.6866819859,-0.1299466145,0.1178313802,-0.0439161783,4.1187489827,4.1510416666,37.2073008220
1.6892600060,-0.1299466145,0.1178313802,-0.0439161783,4.1187489827,4.1510416666,37.2073008220
1.6918289661,-0.1299466145,0.1178313802,-0.0439161783,2.4402821859,4.3494059244,37.1004892985
1.6943910122,-0.1299466145,0.1178313802,-0.0439161783,2.4402821859,4.3494059244,37.1004892985
1.6969590187,-0.1279934895,0.1305266928,-0.0287794596,-0.2757822673,4.6850992838,35.8645273845
1.6996901035,-0.1279934895,0.1305266928,-0.0287794596,-0.2757822673,4.6850992838,35.8645273845
1.7023930550,-0.1279934895,0.1305266928,-0.0287794596,-2.4272715251,4.8071695963,34.9795176188
1.7051420212,-0.1279934895,0.1305266928,-0.0287794596,-2.4272715251,4.8071695963,34.9795176188
1.7078189850,-0.1309231771,0.1261321615,-0.0243849283,-4.6397959391,4.6240641276,34.8421885173
1.7104020119,-0.1309231771,0.1261321615,-0.0243849283,-4.6397959391,4.6240641276,34.8421885173
1.7135450840,-0.1309231771,0.1261321615,-0.0243849283,-5.6621348063,3.9831949869,34.5675303141
1.7161159515,-0.0059231771,0.1402923178,-0.0175489909,-5.6621348063,3.9831949869,34.5675303141
1.7188990116,-0.1123684895,0.1402923178,-0.0175489909,-5.0060068767,3.8916422526,33.8503672282
1.7214710712,-0.1123684895,0.1402923178,-0.0175489909,-5.0060068767,3.8916422526,33.8503672282
1.7240390778,-0.1123684895,0.1402923178,-0.0175489909,-3.6632334391,4.5019938151,33.9419199626
1.7266149521,-0.0977200521,0.1222259115,0.0019822591,-3.6632334391,4.5019938151,33.9419199626
1.7292389870,-0.0977200521,0.1222259115,0.0019822591,-2.3052012126,5.4022623697,33.4536387126
1.7318019867,-0.0977200521,0.1222259115,0.0019822591,-2.3052012126,5.4022623697,33.4536387126
1.7343769073,-0.0977200521,0.1222259115,0.0019822591,-0.1384531657,5.7074381510,33.2094980876
1.7369470596,-0.0806302083,0.1461516928,-0.0009474283,-0.1384531657,5.7074381510,33.2094980876
1.7395200729,-0.0806302083,0.1461516928,-0.0009474283,2.5470937093,5.5548502604,33.2552744548
1.7420880795,-0.0806302083,0.1461516928,-0.0009474283,2.5470937093,5.5548502604,33.2552744548
1.7446589470,-0.0806302083,0.1461516928,-0.0009474283,2.5470937093,5.5853678385,33.0416514079
1.7472310066,-0.0762356771,0.1461516928,0.0220017904,4.3781483968,5.5853678385,33.0416514079
1.7498259544,-0.0762356771,0.1461516928,0.0220017904,4.3781483968,5.5853678385,33.1026865641
1.7523920536,-0.0762356771,0.1461516928,0.0220017904,5.8277333577,5.9058024088,33.1026865641
1.7549569607,-0.0762356771,0.1461516928,0.0220017904,5.8277333577,5.9058024088,33.1026865641
1.7575199604,-0.0869778645,0.1427337240,0.0464158529,6.5601552327,6.0889078776,32.9500986735
1.7601261139,-0.0869778645,0.1427337240,0.0464158529,6.5601552327,6.0889078776,32.9500986735
1.7626919746,-0.0869778645,0.1427337240,0.0464158529,6.2854970296,5.9668375651,32.0345713298
1.7652590275,-0.0869778645,0.1427337240,0.0464158529,6.2854970296,5.9668375651,32.0345713298
1.7679800987,-0.0869778645,0.0792571615,0.0742478841,6.0108388265,5.5090738932,30.8901621501
1.7705459595,-0.0869778645,0.0792571615,0.0742478841,6.0108388265,5.5090738932,30.8901621501
1.7731130123,-0.0869778645,0.0792571615,0.0742478841,7.3993886312,5.1581217447,28.4334971110
1.7756841183,-0.0869778645,0.0792571615,0.0742478841,7.3993886312,5.1581217447,28.4334971110
1.7783000469,-0.0523098958,-0.0652740885,0.0727830404,9.6271718343,5.0360514323,25.8700205485
1.7808659077,-0.0523098958,-0.0652740885,0.0727830404,9.6271718343,5.0360514323,25.8700205485
1.7835350037,-0.0523098958,-0.0652740885,0.0727830404,12.6331532796,4.7156168619,22.5588633220
1.7861020565,-0.0523098958,-0.0652740885,0.0503221029,12.6331532796,4.7156168619,22.5588633220
1.7887439728,-0.0298489583,-0.1663483072,0.0503221029,15.8222401937,4.1510416666,19.6902109782
1.7914509773,-0.0298489583,-0.1663483072,0.0503221029,15.8222401937,4.1510416666,19.6902109782
1.7941589355,-0.0298489583,-0.1663483072,0.0503221029,19.0876210530,3.1592203776,15.9060312907
1.7968730927,-0.0298489583,-0.1853912760,0.0527635091,19.0876210530,3.1592203776,15.9060312907
1.7995910645,-0.0200833333,-0.1853912760,0.0527635091,23.1312001546,2.3047281901,12.2744394938
1.8023071289,-0.0200833333,-0.1853912760,0.0527635091,23.1312001546,2.3047281901,12.2744394938
1.8050150871,-0.0200833333,-0.1853912760,0.0527635091,28.9142812093,2.3505045573,10.3365732829
1.8079869747,-0.0259427083,-0.1311920572,0.0263963217,28.9142812093,2.3505045573,10.3365732829
1.8106520176,-0.0259427083,-0.1311920572,0.0263963217,34.8194325765,1.6180826823,6.4913584391
1.8133671284,-0.0259427083,-0.1311920572,0.0263963217,34.8194325765,1.6180826823,6.4913584391
1.8161549568,-0.0259427083,-0.1311920572,0.0263963217,38.6646474202,0.4889322916,-0.0546620687
1.8188090324,-0.0410794271,-0.1917389322,0.0146775717,38.6646474202,0.4889322916,-0.0546620687
1.8213770390,-0.0410794271,-0.1917389322,0.0146775717,40.5414784749,0.1379801432,-5.7614491780
1.8239469528,-0.0410794271,-0.1917389322,0.0146775717,40.5414784749,0.1379801432,-5.7614491780
1.8265199661,-0.0410794271,-0.1917389322,-0.0082716471,40.5414784749,-0.3503011068,-11.2088368733
1.8291001320,-0.0318020833,-0.2439850260,-0.0082716471,40.3278554280,-0.3503011068,-11.2088368733
1.8316681385,-0.0318020833,-0.2439850260,-0.0082716471,40.3278554280,-0.3503011068,-16.0000966390
1.8342370987,-0.0318020833,-0.2439850260,-0.0082716471,38.3442128499,-1.7083333334,-16.0000966390
1.8368000984,-0.0318020833,-0.2439850260,-0.0155958659,38.3442128499,-1.7083333334,-20.4251454671
1.8394069672,-0.0122708333,-0.2600983072,-0.0155958659,35.6586659749,-2.5780843099,-20.4251454671
1.8419759274,-0.0122708333,-0.2600983072,-0.0155958659,35.6586659749,-2.5780843099,-24.3313954671
1.8445470333,-0.0122708333,-0.2600983072,-0.0155958659,32.2101796468,-3.0968831381,-24.8196767171
1.8472290039,-0.0122708333,-0.2561920572,-0.0278028971,32.2101796468,-3.0968831381,-24.8196767171
1.8498280048,0.0092135417,-0.2561920572,-0.0278028971,28.5328114827,-3.2036946615,-29.5651601155
1.8523991108,0.0092135417,-0.2561920572,-0.0278028971,28.5328114827,-3.2036946615,-29.5651601155
1.8549659252,0.0092135417,-0.2561920572,-0.0278028971,23.9704335530,-3.7835286459,-34.2648671468
1.8575351238,0.0180026042,-0.2693756510,-0.0409864909,23.9704335530,-3.7835286459,-34.2648671468
1.8602700233,0.0180026042,-0.2693756510,-0.0409864909,19.1181386312,-4.1344807943,-39.1324208577
1.8628380299,0.0180026042,-0.2693756510,-0.0409864909,19.1181386312,-4.1344807943,-39.1324208577
1.8654091358,0.0180026042,-0.2693756510,-0.0409864909,13.5791982015,-4.3175862631,-43.4659169515
1.8681309223,0.0111666667,-0.2727936198,-0.0478224283,13.5791982015,-4.3175862631,-43.4659169515
1.8707060814,0.0111666667,-0.2727936198,-0.0478224283,7.2468007405,-4.3023274740,-48.0435536702
1.8732759953,0.0111666667,-0.2727936198,-0.0478224283,7.2468007405,-4.3023274740,-48.0435536702
1.8758389950,0.0111666667,-0.2727936198,-0.0478224283,0.8075917562,-4.1649983724,-52.5143788655
1.8784670830,-0.0044583333,-0.2615631510,-0.0546583659,0.8075917562,-4.1649983724,-52.5143788655
1.8810279369,-0.0044583333,-0.2615631510,-0.0546583659,-5.1891123454,-3.9361165365,-56.8173573812
1.8835899830,-0.0044583333,-0.2615631510,-0.0546583659,-5.1891123454,-3.9361165365,-56.8173573812
1.8861589432,-0.0044583333,-0.2615631510,-0.0546583659,-5.1891123454,-3.7835286459,-61.3187001546
1.8888490200,-0.0117825521,-0.2254303385,-0.0492872721,-11.6435801188,-3.7835286459,-61.3187001546
1.8914229870,-0.0117825521,-0.2254303385,-0.0492872721,-11.6435801188,-3.7835286459,-65.0876210530
1.8939931393,-0.0117825521,-0.2254303385,-0.0492872721,-17.3656260173,-3.3410237631,-65.0876210530
1.8965630531,-0.0117825521,-0.2254303385,-0.0492872721,-17.3656260173,-3.3410237631,-69.0396474202
1.8991429806,-0.0171536458,-0.1936920572,-0.0507521159,-21.7296396891,-3.3257649740,-69.0396474202
1.9017150402,-0.0171536458,-0.1936920572,-0.0507521159,-21.7296396891,-3.3257649740,-69.0396474202
1.9042799473,-0.0171536458,-0.1936920572,-0.0507521159,-25.9258066813,-3.4020589193,-72.9001210530
1.9068529606,-0.0171536458,-0.1936920572,-0.0507521159,-25.9258066813,-3.4020589193,-72.9001210530
1.9096200466,-0.0264309895,-0.1726959635,-0.0507521159,-29.1148935954,-3.2189534506,-77.0199940999
1.9121940136,-0.0264309895,-0.1726959635,-0.0507521159,-29.1148935954,-3.2189534506,-77.0199940999
1.9147739410,-0.0264309895,-0.1726959635,-0.0507521159,-31.0832773845,-2.4102376303,-81.2009023030
1.9173450470,-0.0264309895,-0.1726959635,-0.0629591471,-31.0832773845,-2.4102376303,-81.2009023030
1.9200940132,-0.0371731771,-0.1600006510,-0.0629591471,-33.6162363688,-1.9219563803,-85.7632802327
1.9226651192,-0.0371731771,-0.1600006510,-0.0629591471,-33.6162363688,-1.9219563803,-85.7632802327
1.9254131317,-0.0371731771,-0.1600006510,-0.0629591471,-35.4472910563,-1.8304036459,-89.7153065999
1.9290471077,-0.0610989583,-0.1516998698,-0.0522169596,-35.4472910563,-1.8304036459,-93.6215565999
1.9316179752,-0.0610989583,-0.1516998698,-0.0522169596,-36.7900644938,-1.5404866537,-93.5147450765
1.9341919422,-0.0610989583,-0.1516998698,-0.0522169596,-36.7900644938,-1.5404866537,-93.5147450765
1.9367599487,-0.0610989583,-0.1516998698,-0.0522169596,-38.2243906657,-1.2505696615,-97.1005605062
1.9393310547,-0.0767239583,-0.1311920572,-0.0561232096,-38.2243906657,-1.2505696615,-97.1005605062
1.9419090748,-0.0767239583,-0.1311920572,-0.0561232096,-38.6821543376,-1.0064290365,-100.6100819905
1.9444859028,-0.0767239583,-0.1311920572,-0.0561232096,-38.6821543376,-1.0064290365,-100.6100819905
1.9470579624,-0.0767239583,-0.1311920572,-0.0561232096,-39.1399180095,-0.8843587240,-104.1348622640
1.9496381283,-0.0855130208,-0.1165436198,-0.0468458659,-39.1399180095,-0.8843587240,-104.1348622640
1.9522039890,-0.0855130208,-0.1165436198,-0.0468458659,-39.0636240641,-0.3503011068,-107.3544667562
1.9547760487,-0.0855130208,-0.1165436198,-0.0468458659,-39.0636240641,-0.3503011068,-107.3544667562
1.9573469162,-0.0855130208,-0.1165436198,-0.0468458659,-38.7584482829,0.1379801432,-110.0552724202
1.9599609375,-0.1001614583,-0.1058014322,-0.0483107096,-38.7584482829,0.1379801432,-110.0552724202
1.9625320435,-0.1001614583,-0.1058014322,-0.0483107096,-38.7584482829,0.6110026041,-113.1833241780
1.9651000500,-0.1001614583,-0.1058014322,-0.0483107096,-38.1328379313,0.6110026041,-113.1833241780
1.9676871300,-0.1001614583,-0.1058014322,-0.0483107096,-38.1328379313,4.5172526041,-115.7620595296
1.9702579975,-0.1074856771,-0.0765045572,-0.0483107096,-37.4461924235,0.7788492838,-115.7620595296
1.9729421139,-0.1074856771,-0.0765045572,-0.0483107096,-37.4461924235,0.7788492838,-118.6917470296
1.9755179882,-0.1074856771,-0.0765045572,-0.0483107096,-36.3017832438,1.5875651041,-118.6917470296
1.9782309532,-0.1074856771,0.0484954428,-0.0497755533,-36.3017832438,1.5875651041,-120.4465077718
1.9807999134,-0.1118802083,-0.0491608072,-0.0497755533,-34.7911631267,2.3657633463,-120.4465077718
1.9833769798,-0.1118802083,-0.0491608072,-0.0497755533,-34.7911631267,2.3657633463,-120.4465077718
1.9859440327,-0.1118802083,-0.0491608072,-0.0497755533,-33.7230478923,3.5712076823,-122.7811024983
1.9887139797,-0.2368802083,-0.0306061198,-0.0370802409,-33.7230478923,3.5712076823,-122.7811024983
1.9912841320,-0.1284817708,-0.0306061198,-0.0370802409,-33.4941660563,4.7003580729,-124.0628407796
1.9938480854,-0.1284817708,-0.0306061198,-0.0370802409,-33.4941660563,4.7003580729,-124.0628407796
1.9964189529,-0.1284817708,-0.0306061198,-0.0370802409,-32.0903574626,5.5243326823,-125.8481190999
1.9990510941,-0.1367825521,-0.0140045572,-0.0468458659,-32.0903574626,5.5243326823,-125.8481190999
2.0016260147,-0.1367825521,-0.0140045572,-0.0468458659,-30.0151621501,6.2720133463,-128.3963368733
2.0042040348,-0.1367825521,-0.0140045572,-0.0468458659,-30.0151621501,6.2720133463,-128.3963368733
2.0067739487,-0.1367825521,-0.0140045572,-0.0468458659,-28.4587656657,6.6382242838,-130.3036855062
2.0094089508,-0.1587552083,-0.0115631510,-0.0385450846,-28.4587656657,6.6382242838,-130.3036855062
2.0119750500,-0.1587552083,-0.0115631510,-0.0385450846,-28.0467783610,7.4469401041,-131.6159413655
2.0146760941,-0.1587552083,-0.0115631510,-0.0385450846,-28.0467783610,7.4469401041,-131.6159413655
2.0172469616,-0.1587552083,-0.0115631510,-0.0385450846,-27.4364267985,7.4927164713,-132.7603505452
2.0199649334,-0.1719388021,-0.0086334635,-0.0448927409,-27.4364267985,7.4927164713,-132.7603505452
2.0225369930,-0.1719388021,-0.0086334635,-0.0448927409,-26.3835703532,7.7215983073,-133.9047597249
2.0254929066,-0.1719388021,-0.0086334635,-0.0448927409,-26.3835703532,7.7215983073,-133.9047597249
2.0281131268,-0.1719388021,-0.0086334635,-0.0448927409,-25.0865732829,7.9352213541,-134.9270985921
2.0306859016,-0.1787747395,0.0030852865,-0.0468458659,-25.0865732829,7.9352213541,-134.9270985921
2.0332589149,-0.1787747395,0.0030852865,-0.0468458659,-25.0865732829,8.3014322916,-136.2393544515
2.0359370708,-0.1787747395,0.0030852865,-0.0468458659,-23.7895762126,8.3014322916,-136.2393544515
2.0385990143,-0.1787747395,0.0030852865,-0.0551466471,-23.7895762126,8.2556559244,-137.2922108968
2.0411760807,-0.1831692708,-0.0169342448,-0.0551466471,-22.2179209391,8.2556559244,-137.2922108968
2.0437500477,-0.1831692708,-0.0169342448,-0.0551466471,-22.2179209391,8.2556559244,-137.9025624593
2.0463180542,-0.1831692708,-0.0169342448,-0.0551466471,-22.0500742595,8.2709147135,-137.9025624593
2.0488939285,-0.1831692708,-0.0169342448,-0.0527052409,-22.0500742595,8.2709147135,-137.9025624593
2.0514750481,-0.1885403645,-0.0198639322,-0.0527052409,-22.2026621501,8.2098795573,-138.8638661702
2.0540480614,-0.1885403645,-0.0198639322,-0.0527052409,-22.2026621501,8.2098795573,-138.8638661702
2.0566201210,-0.1885403645,-0.0198639322,-0.0527052409,-22.1263682048,8.0267740885,-139.9014638265
2.0592410564,-0.1885403645,-0.0398834635,-0.0453810221,-22.1263682048,8.0267740885,-139.9014638265
2.0618119240,-0.1914700521,-0.0398834635,-0.0453810221,-22.4010264079,7.9962565104,-140.2981923421
2.0643920898,-0.1914700521,-0.0398834635,-0.0453810221,-22.4010264079,7.9962565104,-140.2981923421
2.0669600964,-0.1914700521,-0.0398834635,-0.0453810221,-22.5078379313,8.1030680338,-141.0153554280
2.0697269440,-0.1997708333,-0.0384186198,-0.0497755533,-22.5078379313,8.1030680338,-141.0153554280
2.0723030567,-0.1997708333,-0.0384186198,-0.0497755533,-23.3012949626,8.7439371744,-141.5494130452
2.0748720169,-0.1997708333,-0.0384186198,-0.0497755533,-23.3012949626,8.7439371744,-141.5494130452
2.0774400234,-0.1997708333,-0.0384186198,-0.0497755533,-25.7579600017,9.0796305338,-141.6562245687
2.0815539360,-0.1978177083,-0.0291412760,-0.0492872721,-25.7579600017,9.0796305338,-141.4120839437
2.0845429897,-0.1978177083,-0.0291412760,-0.0492872721,-29.0385996501,9.5679117838,-141.4120839437
2.0872459412,-0.1978177083,-0.0291412760,-0.0492872721,-29.0385996501,9.5679117838,-140.6491444905
2.0899491310,-0.1812161458,0.0045501302,-0.0453810221,-33.2652842204,10.3613688151,-140.6491444905
2.0926439762,-0.1812161458,0.0045501302,-0.0453810221,-33.2652842204,10.3613688151,-139.8251698812
2.0953450203,-0.1812161458,0.0045501302,-0.0453810221,-38.7584482829,11.5973307291,-139.8251698812
2.0980870724,-0.1812161458,0.0045501302,-0.0453810221,-38.7584482829,11.5973307291,-138.5892079671
2.1009290218,-0.1895169271,0.0582610678,-0.0414747721,-42.1306406657,12.3450113932,-138.5892079671
2.1036250591,-0.1895169271,0.0582610678,-0.0414747721,-42.1306406657,16.2512613932,-136.3919423421
2.1063210964,-0.1895169271,0.0582610678,-0.0414747721,-43.2140146891,12.6807047526,-136.3919423421
2.1090250015,-0.1895169271,0.0582610678,-0.0414747721,-43.2140146891,12.6807047526,-135.1407216390
2.1117179394,-0.1987942708,0.1075774740,-0.0195021159,-43.6870371501,12.6959635416,-135.1407216390
2.1144421101,-0.1987942708,0.1075774740,-0.0195021159,-43.6870371501,12.6959635416,-134.6371815999
2.1170220375,-0.1987942708,0.1075774740,-0.0195021159,-42.8478037517,12.1466471354,-134.6371815999
2.1198370457,-0.1987942708,0.0904876302,-0.0126661783,-42.8478037517,12.1466471354,-134.0573476155
2.1225080490,-0.2124661458,0.0904876302,-0.0126661783,-42.0390879313,12.4213053385,-134.0573476155
2.1253490448,-0.2124661458,0.0904876302,-0.0126661783,-42.0390879313,12.4213053385,-133.7826894124
2.1281089783,-0.2124661458,0.0904876302,-0.0126661783,-41.5660654704,12.3144938151,-133.7826894124
2.1306951046,-0.2261380208,0.0289641928,-0.0273146159,-41.5660654704,12.3144938151,-133.4012196859
2.1332669258,-0.2261380208,0.0289641928,-0.0273146159,-41.9017588298,12.3297526041,-133.4012196859
2.1358349323,-0.2261380208,0.0289641928,-0.0273146159,-41.9017588298,12.3297526041,-129.4949696859
2.1384589672,-0.2261380208,0.0289641928,-0.0273146159,-42.9546152751,12.2839762369,-132.1042226155
2.1410291195,-0.2295559895,-0.0071686198,-0.0268263346,-42.9546152751,12.2839762369,-132.1042226155
2.1436090469,-0.2295559895,-0.0071686198,-0.0268263346,-43.7938486735,12.8943277994,-130.7004140218
2.1461811066,-0.2295559895,-0.0071686198,-0.0268263346,-43.7938486735,12.8943277994,-130.7004140218
2.1487591267,-0.2295559895,-0.0071686198,-0.0268263346,-44.1448008220,13.2300211588,-128.5184071859
2.1513340473,-0.2222317708,-0.0188873698,-0.0331739909,-44.1448008220,13.2300211588,-128.5184071859
2.1539030075,-0.2222317708,-0.0188873698,-0.0331739909,-44.4347178141,14.0234781901,-126.2295888265
2.1564750671,-0.2222317708,-0.0188873698,-0.0331739909,-44.4347178141,14.0234781901,-126.2295888265
2.1590759754,-0.2222317708,-0.0188873698,-0.0331739909,-44.9687754313,14.9084879557,-124.0628407796
2.1616430283,-0.2334622395,-0.0071686198,-0.0307325846,-44.9687754313,14.9084879557,-124.0628407796
2.1643280983,-0.2334622395,-0.0071686198,-0.0307325846,-44.0990244548,15.2441813151,-121.7282460530
2.1669011116,-0.2334622395,-0.0071686198,-0.0307325846,-44.0990244548,15.2441813151,-121.7282460530
2.1695599556,-0.2334622395,-0.0071686198,-0.0307325846,-41.6423594157,15.4730631510,-119.2410634359
2.1721401215,-0.2222317708,0.0270110678,-0.0248732096,-41.6423594157,15.4730631510,-119.2410634359
2.1747119427,-0.2222317708,0.0270110678,-0.0248732096,-41.6423594157,15.8697916666,-116.3724110921
2.1772820950,-0.2222317708,0.0270110678,-0.0248732096,-38.8805185954,15.8697916666,-116.3724110921
2.1800000668,-0.2222317708,0.0270110678,0.0019822591,-38.8805185954,19.7760416666,-114.2972157796
2.1825721264,-0.2036770833,0.0553313802,0.0019822591,-36.5306650798,16.3428141276,-114.2972157796
2.1851499081,-0.2036770833,0.0553313802,0.0019822591,-36.5306650798,16.3428141276,-111.7489980062
2.1877279282,-0.2036770833,0.0553313802,0.0019822591,-34.2113291423,16.8005777994,-111.7489980062
2.1904249191,-0.2036770833,0.0572845052,-0.0033888346,-34.2113291423,16.8005777994,-108.4988759359
2.1931250095,-0.1719388021,0.0572845052,-0.0033888346,-32.1971689860,17.1362711588,-108.4988759359
2.1958160400,-0.1719388021,0.0572845052,-0.0033888346,-32.1971689860,17.1362711588,-105.7370351155
2.1985259056,-0.1719388021,0.0572845052,-0.0033888346,-30.2135264079,16.8463541666,-105.7370351155
2.2012269497,-0.1441067708,0.0572845052,0.0005174154,-30.2135264079,16.8463541666,-101.8307851155
2.2039170265,-0.1441067708,0.0572845052,0.0005174154,-28.3214365641,16.8158365885,-102.5937245687
2.2066140175,-0.1441067708,0.0572845052,0.0005174154,-28.3214365641,16.8158365885,-98.6874745687
2.2093179226,-0.1441067708,0.0572845052,0.0005174154,-26.8565928141,16.8158365885,-99.3436024983
2.2120139599,-0.1314114583,0.0421477865,0.0146775717,-26.8565928141,16.8158365885,-95.4373524983
2.2147190571,-0.1314114583,0.0421477865,0.0146775717,-25.0407969157,16.2512613932,-96.0019276937
2.2174179554,-0.1314114583,0.0421477865,0.0146775717,-25.0407969157,16.2512613932,-92.0956776937
2.2201299667,-0.1314114583,0.0421477865,0.0146775717,-23.4538828532,15.2899576823,-93.2095692952
2.2228269577,-0.1079739583,0.0421477865,0.0102830404,-23.4538828532,15.2899576823,-93.2095692952
2.2255239487,-0.1079739583,0.0421477865,0.0102830404,-21.9432627360,14.5117594401,-90.1578114827
2.2283499241,-0.1079739583,0.0421477865,0.0102830404,-21.9432627360,14.5117594401,-86.2515614827
2.2310559750,-0.1079739583,0.0436126302,0.0146775717,-20.1579844157,13.5199381510,-86.6482899983
2.2337770462,-0.0996731771,0.0436126302,0.0146775717,-20.1579844157,13.5199381510,-82.7420399983
2.2365269661,-0.0996731771,0.0436126302,0.0146775717,-18.6015879313,13.1689860026,-83.5354970296
2.2395241261,-0.0996731771,0.0436126302,0.0146775717,-18.6015879313,13.1689860026,-79.9039052327
2.2422399521,-0.0972317708,0.0323821615,0.0122361654,-17.7165781657,12.1924235026,-79.9039052327
2.2449450493,-0.0972317708,0.0323821615,0.0122361654,-17.7165781657,12.1924235026,-76.6080067952
2.2476649284,-0.0972317708,0.0323821615,0.0122361654,-17.7470957438,11.0632731119,-76.6080067952
2.2503781319,-0.0972317708,0.0323821615,0.0122361654,-17.7470957438,11.0632731119,-73.0221913655
2.2530851364,-0.0938138021,0.0118743490,0.0029588217,-17.6555430095,10.2545572916,-73.0221913655
2.2557899952,-0.0938138021,0.0118743490,0.0029588217,-17.6555430095,10.2545572916,-68.9786122640
2.2585179806,-0.0938138021,0.0118743490,0.0029588217,-18.6168467204,9.1559244791,-68.9786122640
2.2612209320,-0.0938138021,0.0006438802,-0.0033888346,-18.6168467204,9.1559244791,-65.1944325765
2.2639319897,-0.0703763021,0.0006438802,-0.0033888346,-19.9901377360,8.3472086588,-65.1944325765
2.2666430473,-0.0703763021,0.0006438802,-0.0033888346,-19.9901377360,8.3472086588,-61.2424062093
2.2692849636,-0.0703763021,0.0006438802,-0.0033888346,-20.2647959391,7.4316813151,-61.2424062093
2.2718610764,-0.0576809895,0.0196868490,-0.0131544596,-20.2647959391,7.4316813151,-61.2424062093
2.2744340897,-0.0576809895,0.0196868490,-0.0131544596,-20.5547129313,6.8823649088,-56.9699452718
2.2770090103,-0.0576809895,0.0196868490,-0.0131544596,-20.5547129313,6.8823649088,-56.9699452718
2.2796380520,-0.0576809895,0.0196868490,-0.0131544596,-20.8751475017,6.5314127604,-52.7280019124
2.2822151184,-0.0552395833,0.0533782552,-0.0068068033,-20.8751475017,6.5314127604,-52.7280019124
2.2847979069,-0.0552395833,0.0533782552,-0.0068068033,-20.7378184001,6.4551188151,-47.7383778890
2.2873799801,-0.0552395833,0.0533782552,-0.0068068033,-20.7378184001,6.4551188151,-47.7383778890
2.2901110649,-0.0552395833,0.0533782552,-0.0068068033,-18.9677988688,5.9973551432,-42.6877187093
2.2928040028,-0.0396145833,0.0782805990,-0.0136427409,-18.9677988688,5.9973551432,-42.6877187093
2.2953779697,-0.0396145833,0.0782805990,-0.0136427409,-16.8315684001,5.4938151041,-37.8964589437
2.2980349064,-0.0396145833,0.0782805990,-0.0136427409,-16.8315684001,5.4938151041,-37.8964589437
2.3007540703,-0.0396145833,0.0782805990,-0.0136427409,-15.1378428141,4.6850992838,-33.5171864827
2.3034629822,-0.0410794271,0.0787688802,-0.0077833659,-15.1378428141,4.6850992838,-33.5171864827
2.3061790466,-0.0410794271,0.0787688802,-0.0077833659,-13.5204111735,4.3036295573,-29.2599843343
2.3088989258,-0.0410794271,0.0787688802,-0.0077833659,-13.5204111735,4.3036295573,-29.2599843343
2.3116049767,-0.0410794271,0.0626555990,-0.0033888346,-12.0860850017,3.6322428385,-25.2469228109
2.3143119812,-0.0347317708,0.0626555990,-0.0033888346,-12.0860850017,3.6322428385,-25.2469228109
2.3170170784,-0.0347317708,0.0626555990,-0.0033888346,-11.7351328532,3.1897379557,-20.9134267171
2.3196339607,-0.0347317708,0.0626555990,-0.0033888346,-11.7351328532,3.1897379557,-20.9134267171
2.3222069740,-0.0435208333,0.0563079428,0.0141892904,-11.1400400798,2.7319742838,-16.0763905843
2.3247771263,-0.0435208333,0.0563079428,0.0141892904,-11.1400400798,2.7319742838,-16.0763905843
2.3273539543,-0.0435208333,0.0563079428,0.0141892904,-10.4228769938,2.5793863932,-11.3461659749
2.3300950527,-0.0435208333,0.0563079428,0.0141892904,-10.4228769938,2.5793863932,-11.3461659749
2.3327970505,-0.0479153645,0.0538665365,0.0039353841,-8.7596689860,1.8011881510,-6.7685292562
2.3355031013,-0.0479153645,0.0538665365,0.0039353841,-8.7596689860,1.8011881510,-6.7685292562
2.3382089138,-0.0479153645,0.0538665365,0.0039353841,-7.0659434001,1.5723063151,-2.1603749593
2.3409121037,-0.0479153645,0.0538665365,0.0039353841,-7.0659434001,1.5723063151,-2.1603749593
2.3436219692,-0.0503567708,0.0514251302,0.0063767904,-5.6621348063,1.1755777994,2.5393320720
2.3463261127,-0.0503567708,0.0514251302,0.0063767904,-5.6621348063,1.1755777994,2.5393320720
2.3490750790,-0.0503567708,0.0514251302,0.0063767904,-4.1209971110,0.9009195963,6.9033457438
2.3517780304,-0.0503567708,0.0514251302,0.0024705404,-4.1209971110,0.9009195963,6.9033457438
2.3547489643,-0.0420559895,0.0377532552,0.0024705404,-2.4425303141,1.1145426432,10.4281260173
2.3579559326,-0.0420559895,0.0377532552,0.0024705404,-2.4425303141,1.1145426432,10.4281260173
2.3606729507,-0.0420559895,0.0377532552,0.0024705404,-0.9776865641,0.9466959635,13.7850596110
2.3633821011,-0.0371731771,0.0270110678,0.0088181967,-0.9776865641,0.9466959635,13.7850596110
2.3660869598,-0.0371731771,0.0270110678,0.0088181967,0.1514638265,0.0922037760,16.9741465251
2.3687379360,-0.0371731771,0.0270110678,0.0088181967,0.1514638265,0.0922037760,16.9741465251
2.3713150024,-0.0371731771,0.0270110678,0.0088181967,1.5400136312,-0.3655598959,19.7512461345
2.3738870621,-0.0488919271,0.0089446615,0.0239549154,1.5400136312,-0.3655598959,19.7512461345
2.3764560223,-0.0488919271,0.0089446615,0.0239549154,2.8827870687,-1.1742757162,22.9708506267
2.3791289330,-0.0488919271,0.0089446615,0.0239549154,2.8827870687,-1.1742757162,22.9708506267
2.3818349838,-0.0488919271,0.0089446615,0.0205369467,4.6985829671,-1.9066975912,25.3512217204
2.3845410347,-0.0513333333,0.0001555990,0.0205369467,4.6985829671,-1.9066975912,25.3512217204
2.3872480392,-0.0513333333,0.0001555990,0.0205369467,5.8887685140,-2.2881673177,27.0754648845
2.3898489475,-0.0513333333,0.0001555990,0.0205369467,5.8887685140,-2.2881673177,27.0754648845
2.3924250603,-0.0513333333,-0.0110748698,0.0210252279,5.8887685140,-2.8069661459,29.1354014079
2.3949990273,-0.0523098958,-0.0110748698,0.0210252279,7.3230946859,-2.8069661459,29.1354014079
2.3976049423,-0.0523098958,-0.0110748698,0.0210252279,7.3230946859,-6.7132161459,31.3174082438
2.4001789093,-0.0523098958,-0.0110748698,0.0210252279,8.7116444905,-3.5088704427,31.3174082438
2.4027581215,-0.0523098958,-0.0838287760,0.0176072591,8.7116444905,-3.5088704427,31.3784434001
2.4053359032,-0.0493802083,-0.0838287760,0.0176072591,9.2914784749,-5.1873372396,31.3784434001
2.4080190659,-0.0493802083,-0.0838287760,0.0176072591,9.2914784749,-5.1873372396,19.6596934001
2.4105920792,-0.0493802083,-0.0838287760,0.0176072591,12.4653065999,-5.4925130209,20.6515146891
2.4131810665,-0.1846341145,-0.4109772135,-0.1117872721,12.4653065999,-5.4925130209,20.6515146891
2.4157629013,-0.1846341145,-0.4109772135,-0.1117872721,12.5416005452,1.0992838541,16.6537119548
2.4184291363,-0.1846341145,-0.4109772135,-0.1117872721,12.5416005452,1.0992838541,16.6537119548
2.4211049080,-0.1846341145,-0.4109772135,-0.1117872721,10.5426991780,4.5630289713,15.9518076579
2.4236791134,-0.1397122395,-0.7112701822,-0.1357130533,10.5426991780,4.5630289713,15.9518076579
2.4262580872,-0.1397122395,-0.7112701822,-0.1357130533,6.5143788655,3.9374186197,10.7943369548
2.4289410114,-0.1397122395,-0.7112701822,-0.1357130533,6.5143788655,3.9374186197,10.7943369548
2.4316439629,-0.1397122395,-0.7112701822,-0.1357130533,-2.1831309001,0.9009195963,8.1545664470
2.4343509674,-0.1685208333,-0.7791412760,-0.0238966471,-2.1831309001,0.9009195963,8.1545664470
2.4370510578,-0.1685208333,-0.7791412760,-0.0238966471,-9.4768320720,-3.1426595053,9.4057871501
2.4397749901,-0.1685208333,-0.7791412760,-0.0238966471,-9.4768320720,-3.1426595053,9.4057871501
2.4424769878,-0.1685208333,-0.7791412760,-0.0385450846,-10.6822764079,-4.5312093099,12.2439219157
2.4451839924,-0.1851223958,-0.5262115885,-0.0385450846,-10.6822764079,-4.5312093099,12.2439219157
2.4479060173,-0.1851223958,-0.5262115885,-0.0385450846,-12.4065195720,-4.2260335287,15.6924082438
2.4506130219,-0.1851223958,-0.5262115885,-0.0385450846,-12.4065195720,-4.2260335287,15.6924082438
2.4533190727,-0.1851223958,-0.2239654948,-0.0707716471,-15.8855234782,-2.8374837240,19.2019297282
2.4560289383,-0.1987942708,-0.2239654948,-0.0707716471,-15.8855234782,-2.8374837240,19.2019297282
2.4587409496,-0.1987942708,-0.2239654948,-0.0707716471,-18.0675303141,-2.1966145834,22.8792978923
2.4614510536,-0.1987942708,-0.2239654948,-0.0707716471,-18.0675303141,-2.1966145834,22.8792978923
2.4641559124,-0.1958645833,-0.0784576822,-0.0536818033,-19.8985850017,-2.6848958334,26.5261484782
2.4668600559,-0.1958645833,-0.0784576822,-0.0536818033,-19.8985850017,-2.6848958334,26.5261484782
2.4694900513,-0.1958645833,-0.0784576822,-0.0536818033,-22.0500742595,-4.1192220053,30.3866221110
2.4720649719,-0.1958645833,-0.0784576822,-0.0536818033,-22.0500742595,-4.1192220053,30.3866221110
2.4747159481,-0.2310208333,-0.1267975260,-0.0107130533,-23.7437998454,-5.8587239584,33.9266611735
2.4772949219,-0.2310208333,-0.1267975260,-0.0107130533,-23.7437998454,-5.8587239584,33.9266611735
2.4801731110,-0.2310208333,-0.1267975260,-0.0107130533,-24.0642344157,-7.7965901693,37.1157480876
2.4828720093,-0.2310208333,-0.1267975260,-0.0190138346,-24.0642344157,-7.7965901693,37.1157480876
2.4855611324,-0.2515286458,-0.1951569010,-0.0190138346,-22.9503428141,-8.9867757162,39.4808603923
2.4884159565,-0.2515286458,-0.1951569010,-0.0190138346,-22.9503428141,-8.9867757162,39.4808603923
2.4911139011,-0.2515286458,-0.1951569010,-0.0190138346,-20.9209238688,-9.2309163412,42.1206309001
2.4938049316,-0.2398098958,-0.2000397135,-0.0610060221,-20.9209238688,-9.2309163412,42.1206309001
2.4965031147,-0.2398098958,-0.2000397135,-0.0610060221,-17.8081309001,-8.8799641927,44.3941904704
2.4991829395,-0.2398098958,-0.2000397135,-0.0610060221,-17.8081309001,-8.8799641927,44.3941904704
2.5019009113,-0.2398098958,-0.2000397135,-0.0610060221,-15.5040537517,-9.5360921224,46.2862803141
2.5046160221,-0.1870755208,-0.1726959635,-0.1064161783,-15.5040537517,-9.5360921224,46.2862803141
2.5073280334,-0.1870755208,-0.1726959635,-0.1064161783,-15.5956064860,-9.8565266927,47.2781016032
2.5099611282,-0.1870755208,-0.1726959635,-0.1064161783,-15.5956064860,-9.8565266927,47.2781016032
2.5125389099,-0.1870755208,-0.1726959635,-0.1064161783,-15.4125010173,-10.7262776693,48.2699228923
2.5151159763,-0.1196927083,-0.1492584635,-0.0644239909,-15.4125010173,-10.7262776693,48.2699228923
2.5176959038,-0.1196927083,-0.1492584635,-0.0644239909,-15.4125010173,-11.9469807943,48.7429453532
2.5202789307,-0.1196927083,-0.1492584635,-0.0644239909,-15.0768076579,-11.9469807943,48.7429453532
2.5228579044,-0.1196927083,-0.1492584635,-0.0644239909,-15.0768076579,-11.9469807943,47.9952646891
2.5254380703,-0.0757473958,-0.1477936198,-0.0234083659,-14.9242197673,-13.7170003256,47.9952646891
2.5281901360,-0.0757473958,-0.1477936198,-0.0234083659,-14.9242197673,-13.7170003256,46.6524912517
2.5307700634,-0.0757473958,-0.1477936198,-0.0234083659,-14.0849863688,-14.4036458334,46.6524912517
2.5333590508,-0.0757473958,-0.1477936198,-0.0258497721,-14.0849863688,-14.4036458334,45.8437754313
2.5359380245,-0.0811184895,-0.1468170572,-0.0258497721,-11.7809092204,-14.2968343099,45.8437754313
2.5386509895,-0.0811184895,-0.1468170572,-0.0258497721,-11.7809092204,-14.2968343099,45.8437754313
2.5413599014,-0.0811184895,-0.1468170572,-0.0258497721,-10.6212412517,-14.3120930990,44.3331553141
2.5440621376,-0.0811184895,-0.1385162760,-0.0287794596,-10.6212412517,-14.3120930990,44.3331553141
2.5467729568,-0.0933255208,-0.1385162760,-0.0287794596,-10.3008066813,-13.9001057943,43.7380625407
2.5494959354,-0.0933255208,-0.1385162760,-0.0287794596,-10.3008066813,-13.9001057943,43.7380625407
2.5523099899,-0.0933255208,-0.1385162760,-0.0287794596,-9.8125254313,-14.0679524740,43.5244394938
2.5550251007,-0.1006497395,-0.1170319010,-0.0444044596,-9.8125254313,-14.0679524740,43.5244394938
2.5577259064,-0.1006497395,-0.1170319010,-0.0444044596,-9.4463144938,-14.5104573568,43.3413340251
2.5604419708,-0.1006497395,-0.1170319010,-0.0444044596,-9.4463144938,-14.5104573568,39.4350840251
2.5631470680,-0.1006497395,-0.1170319010,-0.0444044596,-9.3700205485,-14.9834798177,42.6699473063
2.5658519268,-0.1079739583,-0.0867584635,-0.0112013346,-9.3700205485,-14.9834798177,42.6699473063
2.5685341358,-0.1079739583,-0.0867584635,-0.0112013346,-8.6375986735,-15.4870198568,42.7462412517
2.5711100101,-0.1079739583,-0.0867584635,-0.0112013346,-8.6375986735,-15.4870198568,42.7462412517
2.5736830235,-0.1079739583,-0.0867584635,0.0141892904,-6.0436045329,-16.6619466146,44.0890146891
2.5762629509,-0.1441067708,0.0748626302,0.0141892904,-6.0436045329,-16.6619466146,44.0890146891
2.5789339542,-0.1441067708,0.0748626302,0.0141892904,-1.2370859782,-17.2722981771,48.0105234782
2.5816469193,-0.1441067708,0.0748626302,0.0141892904,-1.2370859782,-17.2722981771,48.0105234782
2.5843460560,-0.1441067708,0.0543548178,0.0063767904,1.7841542562,-17.8216145834,48.9107920329
2.5870530605,-0.1543606771,0.0543548178,0.0063767904,1.7841542562,-17.8216145834,48.9107920329
2.5897750854,-0.1543606771,0.0543548178,0.0063767904,4.4239247640,-17.6842854818,44.4552256267
2.5924761295,-0.1543606771,0.0543548178,0.0063767904,4.4239247640,-17.6842854818,44.4552256267
2.5953030586,-0.0952786458,-0.0984772135,-0.0224318033,5.5835927327,-17.2417805990,40.3811289470
2.5981280804,-0.0952786458,-0.0984772135,-0.0224318033,5.5835927327,-17.2417805990,40.3811289470
2.6008510590,-0.0952786458,-0.0984772135,-0.0224318033,4.2408192952,-16.8145345053,38.6721445720
2.6035659313,-0.0952786458,-0.0984772135,-0.0224318033,4.2408192952,-16.8145345053,38.6721445720
2.6062691212,-0.0899075521,-0.1346100260,-0.0546583659,-2.6866709391,-16.6009114584,38.4127451579
2.6089849472,-0.0899075521,-0.1346100260,-0.0546583659,-2.6866709391,-16.6009114584,38.4127451579
2.6116960049,-0.0899075521,-0.1346100260,-0.0546583659,-8.2866465251,-16.8908284506,37.6650644938
2.6144020557,-0.0899075521,-0.1346100260,-0.0253614909,-8.2866465251,-16.8908284506,37.6650644938
2.6172139645,-0.0850247395,-0.0901764322,-0.0253614909,-7.2185312907,-16.1584065756,37.1920420329
2.6198220253,-0.0850247395,-0.0901764322,-0.0253614909,-7.2185312907,-16.1584065756,37.1920420329
2.6224040985,-0.0850247395,-0.0901764322,-0.0253614909,-5.1280771891,-14.7698567709,35.9865976970
2.6261649132,-0.1001614583,-0.0423248698,0.0078416341,-5.1280771891,-14.7698567709,34.1860605876
2.6287560463,-0.1001614583,-0.0423248698,0.0078416341,-4.2888437907,-14.4341634115,34.1860605876
2.6313309669,-0.1001614583,-0.0423248698,0.0078416341,-4.2888437907,-14.4341634115,34.1860605876
2.6338999271,-0.1001614583,-0.0423248698,0.0078416341,-1.6490732829,-14.5562337240,32.9958750407
2.6364679337,-0.0996731771,-0.0511139322,0.0488572591,-1.6490732829,-14.5562337240,32.9958750407
2.6391110420,-0.0996731771,-0.0511139322,0.0488572591,3.0811513265,-15.3649495443,31.2258555095
2.6416809559,-0.0996731771,-0.0511139322,0.0488572591,3.0811513265,-15.3649495443,31.2258555095
2.6442589760,-0.0996731771,-0.0511139322,0.0488572591,8.3606923421,-15.4107259115,29.1048838298
2.6468300819,-0.1035794271,-0.0799225260,0.0185838217,8.3606923421,-15.4107259115,29.1048838298
2.6494491100,-0.1035794271,-0.0799225260,0.0185838217,11.7634023030,-14.4799397787,27.2280527751
2.6520259380,-0.1035794271,-0.0799225260,0.0185838217,11.7634023030,-14.4799397787,27.2280527751
2.6546010971,-0.1035794271,-0.0799225260,0.0000291341,12.8620351155,-13.9458821615,25.3359629313
2.6571779251,-0.1026028645,-0.0608795572,0.0000291341,12.8620351155,-13.9458821615,25.3359629313
2.6598141193,-0.1026028645,-0.0608795572,0.0000291341,12.0075429280,-12.8167317709,23.0471445720
2.6623890400,-0.1026028645,-0.0608795572,0.0000291341,12.0075429280,-12.8167317709,23.0471445720
2.6649661064,-0.1026028645,-0.0657623698,-0.0151075846,8.8642323812,-12.4200032553,21.3839365641
2.6675391197,-0.0864895833,-0.0657623698,-0.0151075846,8.8642323812,-12.4200032553,21.3839365641
2.6702809334,-0.0864895833,-0.0657623698,-0.0151075846,5.0342763265,-11.5197347006,19.6139170329
2.6728589535,-0.0864895833,-0.0657623698,-0.0151075846,5.0342763265,-11.5197347006,19.6139170329
2.6754269600,-0.0864895833,-0.0603912760,0.0107713217,5.0342763265,-10.1922200521,18.5610605876
2.6781909466,-0.0874661458,-0.0603912760,0.0107713217,1.8146718343,-10.1922200521,18.5610605876
2.6808869839,-0.0874661458,-0.0603912760,0.0107713217,1.8146718343,-9.0935872396,17.5997568767
2.6834619045,-0.0874661458,-0.0603912760,0.0107713217,0.8381093343,-9.0935872396,17.5997568767
2.6860370636,-0.0825833333,-0.0652740885,0.0185838217,0.8381093343,-9.0935872396,15.6924082438
2.6886579990,-0.0825833333,-0.0652740885,0.0185838217,0.3956044515,-7.9949544271,15.6924082438
2.6912291050,-0.0825833333,-0.0652740885,0.0185838217,0.3956044515,-7.9949544271,14.5479990641
2.6938021183,-0.0825833333,-0.0652740885,0.0185838217,-1.0082041423,-6.8810628256,14.5479990641
2.6963710785,-0.0791653645,-0.0569733072,0.0185838217,-1.0082041423,-6.8810628256,14.5479990641
2.6990199089,-0.0791653645,-0.0569733072,0.0185838217,-3.6632334391,-7.2320149740,13.4035898845
2.7017340660,-0.0791653645,-0.0569733072,0.0185838217,-3.6632334391,-7.2320149740,13.4035898845
2.7044420242,-0.0791653645,-0.0569733072,0.0185838217,-5.7079111735,-7.9949544271,11.9692637126
2.7071530819,-0.0855130208,-0.0428131510,0.0161424154,-5.7079111735,-7.9949544271,11.9692637126
2.7099020481,-0.0855130208,-0.0428131510,0.0161424154,-5.4637705485,-8.7121175131,10.6875254313
2.7126100063,-0.0855130208,-0.0428131510,0.0161424154,-5.4637705485,-8.7121175131,10.6875254313
2.7153189182,-0.0855130208,-0.0428131510,0.0054002279,-4.4719492595,-9.0020345053,9.4057871501
2.7180271149,-0.0879544271,-0.0496490885,0.0054002279,-4.4719492595,-9.0020345053,9.4057871501
2.7207369804,-0.0879544271,-0.0496490885,0.0054002279,-3.8158213298,-8.9257405599,8.1393076579
2.7234511375,-0.0879544271,-0.0496490885,0.0054002279,-3.8158213298,-8.9257405599,8.1393076579
2.7261550426,-0.0962552083,-0.0686920572,-0.0019239909,-4.1057383220,-8.6663411459,7.3305918376
2.7289450169,-0.0962552083,-0.0686920572,-0.0019239909,-4.1057383220,-8.6663411459,7.3305918376
2.7316529751,-0.0962552083,-0.0686920572,-0.0019239909,-4.5024668376,-8.4069417318,6.3082529704
2.7345130444,-0.0962552083,-0.0686920572,-0.0019239909,-4.5024668376,-8.4069417318,6.3082529704
2.7380211353,-0.1006497395,-0.0550201822,0.0063767904,-4.7771250407,-8.0254720053,5.1791025798
2.7405989170,-0.1006497395,-0.0550201822,0.0063767904,-4.7771250407,-8.0254720053,3.8973642985
2.7431809902,-0.1006497395,-0.0550201822,0.0063767904,-4.9449717204,-7.5371907553,3.8973642985
2.7458689213,-0.1006497395,-0.0672272135,-0.0004591471,-4.9449717204,-7.5371907553,3.5464121501
2.7485160828,-0.0991848958,-0.0672272135,-0.0004591471,-4.7771250407,-7.1252034506,3.5464121501
2.7510900497,-0.0991848958,-0.0672272135,-0.0004591471,-4.7771250407,-7.1252034506,2.7682139079
2.7536599636,-0.0991848958,-0.0672272135,-0.0004591471,-4.0904795329,-5.7213948568,2.7682139079
2.7562320232,-0.0991848958,-0.0940826822,0.0185838217,-4.0904795329,-5.7213948568,2.7682139079
2.7588500977,-0.1026028645,-0.0940826822,0.0185838217,-3.0071055095,-5.2941487631,2.7376963298
2.7614140511,-0.1026028645,-0.0940826822,0.0185838217,-3.0071055095,-5.2941487631,2.7376963298
2.7639839649,-0.1026028645,-0.0940826822,0.0185838217,-2.3357187907,-4.9584554037,2.8750254313
2.7665500641,-0.1006497395,-0.0642975260,0.0332322591,-2.3357187907,-4.9584554037,2.8750254313
2.7691280842,-0.1006497395,-0.0642975260,0.0332322591,-1.3438975017,-4.5312093099,2.8597666423
2.7716989517,-0.1006497395,-0.0642975260,0.0332322591,-1.3438975017,-4.5312093099,2.8597666423
2.7742640972,-0.1006497395,-0.0642975260,0.0332322591,0.0904286702,-4.4701741537,2.5240732829
2.7768371105,-0.0957669271,-0.0569733072,0.0346971029,0.0904286702,-4.4701741537,2.5240732829
2.7794449329,-0.0957669271,-0.0569733072,0.0346971029,0.0904286702,-4.2565511068,1.5475107829
2.7820129395,-0.0957669271,-0.0569733072,0.0346971029,0.0904286702,-4.2565511068,1.5475107829
2.7845830917,-0.0957669271,-0.0569733072,0.0346971029,0.8686269124,-3.7377522787,1.2575937907
2.7871489525,-0.1016263021,-0.0589264322,0.0478806967,0.8686269124,-3.7377522787,1.2575937907
2.7899041176,-0.1016263021,-0.0589264322,0.0478806967,0.8686269124,-3.4020589193,1.1965586345
2.7924821377,-0.1016263021,-0.0589264322,0.0478806967,1.2043202718,-3.4020589193,1.1965586345
2.7950510979,-0.1016263021,-0.0589264322,0.0478806967,1.2043202718,0.5041910807,0.5099131267
2.7977089882,-0.0840481771,-0.0350006510,0.0444627279,-0.0316416423,-3.0511067709,0.5099131267
2.8004119396,-0.0840481771,-0.0350006510,0.0444627279,-0.0316416423,-3.0511067709,-0.2377675374
2.8031151295,-0.0840481771,-0.0350006510,0.0444627279,-0.7488047282,-2.2271321615,-0.2377675374
2.8058240414,-0.0840481771,-0.0350006510,0.0464158529,-0.7488047282,-2.2271321615,-0.7718251546
2.8086459637,-0.0864895833,-0.0369537760,0.0464158529,-0.0163828532,-1.9524739584,-0.7718251546
2.8113479614,-0.0864895833,-0.0369537760,0.0464158529,-0.0163828532,-1.9524739584,-1.6415761312
2.8140571117,-0.0864895833,-0.0369537760,0.0464158529,1.4179433187,-2.0440266927,-1.6415761312
2.8167619705,-0.0864895833,-0.0389069010,0.0332322591,1.4179433187,-2.0440266927,-2.0993398030
2.8194189072,-0.0840481771,-0.0389069010,0.0332322591,2.9438222249,-1.8456624349,-2.0993398030
2.8219900131,-0.0840481771,-0.0389069010,0.0332322591,2.9438222249,-1.8456624349,-2.6333974202
2.8245620728,-0.0840481771,-0.0389069010,0.0332322591,4.0577138265,-1.8914388021,-2.6333974202
2.8271319866,-0.0938138021,-0.0520904948,0.0229783529,4.0577138265,-1.8914388021,-2.6333974202
2.8298850060,-0.0938138021,-0.0520904948,0.0229783529,5.0647939046,-2.0745442709,-3.2590077718
2.8324630260,-0.0938138021,-0.0520904948,0.0229783529,5.0647939046,-2.0745442709,-3.2590077718
2.8350350857,-0.0938138021,-0.0520904948,0.0229783529,5.0037587483,-1.6472981771,-2.9690907796
2.8377521038,-0.0855130208,-0.0476959635,0.0019822591,5.0037587483,-1.6472981771,-2.9690907796
2.8404130936,-0.0855130208,-0.0476959635,0.0019822591,4.6680653890,-1.7388509115,-2.8470204671
2.8440871239,-0.0855130208,-0.0476959635,0.0019822591,4.6680653890,-1.7388509115,-2.9843495687
2.8466620445,-0.0855130208,-0.0476959635,0.0200486654,3.5999501546,-1.5557454427,-2.9843495687
2.8492739201,-0.0899075521,-0.0535553385,0.0200486654,3.5999501546,-1.5557454427,-2.8470204671
2.8518400192,-0.0899075521,-0.0535553385,0.0200486654,2.3487294515,-0.8690999349,-2.8470204671
2.8544111252,-0.0899075521,-0.0535553385,0.0200486654,2.3487294515,-0.8690999349,-2.8470204671
2.8569710255,-0.0899075521,-0.0428131510,0.0307908529,2.3639882405,-0.8843587240,-2.5876210530
2.8595890999,-0.0860013021,-0.0428131510,0.0307908529,2.3639882405,-0.8843587240,-2.5876210530
2.8621580601,-0.0860013021,-0.0428131510,0.0307908529,2.4250233968,-1.4031575521,-2.3282216390
2.8647239208,-0.0860013021,-0.0428131510,0.0307908529,2.4250233968,-1.4031575521,-2.3282216390
2.8672881126,-0.0860013021,-0.0286529948,0.0351853841,3.1574452718,-2.0287679037,-2.2519276937
2.8698661327,-0.0786770833,-0.0286529948,0.0351853841,3.1574452718,-2.0287679037,-2.2519276937
2.8725490570,-0.0786770833,-0.0286529948,0.0351853841,5.0190175374,-2.2576497396,-2.5723622640
2.8751149178,-0.0786770833,-0.0286529948,0.0351853841,5.0190175374,-2.2576497396,-2.5723622640
2.8776791096,-0.0962552083,-0.0550201822,0.0278611654,7.5672353109,-2.3492024740,-2.8622792562
2.8802490234,-0.0962552083,-0.0550201822,0.0278611654,7.5672353109,-2.3492024740,-2.8622792562
2.8828210831,-0.0962552083,-0.0550201822,0.0278611654,9.1694081624,-2.1203206381,-2.9996083577
2.8853859901,-0.0962552083,-0.0550201822,0.0278611654,9.1694081624,-2.1203206381,-2.9996083577
2.8880460262,-0.0943020833,-0.0574615885,0.0351853841,10.1612294515,-1.8761800131,-2.8012440999
2.8906250000,-0.0943020833,-0.0574615885,0.0351853841,10.1612294515,-1.8761800131,-2.8012440999
2.8931989670,-0.0943020833,-0.0574615885,0.0351853841,10.1612294515,-1.4489339193,-2.3129628499
2.8957769871,-0.0943020833,-0.0574615885,0.0351853841,10.1612294515,-1.4489339193,-2.3129628499
2.8984980583,-0.0977200521,-0.0550201822,0.0571580404,10.1612294515,-1.2200520834,-1.7941640218
2.9012110233,-0.0977200521,-0.0550201822,0.0571580404,9.7950185140,-1.2200520834,-1.7941640218
2.9039139748,-0.0977200521,-0.0550201822,0.0571580404,9.7950185140,-0.5639241537,-1.2906239827
2.9066150188,-0.0977200521,-0.0550201822,0.0571580404,9.3982899983,-0.5639241537,-1.2906239827
2.9092550278,-0.0825833333,-0.0530670572,0.0356736654,9.3982899983,-0.5639241537,-0.6955312093
2.9118280411,-0.0825833333,-0.0530670572,0.0356736654,9.7187245687,0.3516031901,-0.6955312093
2.9144010544,-0.0825833333,-0.0530670572,0.0356736654,9.7187245687,0.3516031901,0.5099131267
2.9169731140,-0.0825833333,-0.0530670572,0.0312791341,8.4980214437,1.3586832682,0.5099131267
2.9196999073,-0.0923489583,-0.0437897135,0.0312791341,8.4980214437,1.3586832682,0.5099131267
2.9223999977,-0.0923489583,-0.0437897135,0.0312791341,7.4299062093,2.4725748697,0.9524180095
2.9250991344,-0.0923489583,-0.0437897135,0.0312791341,7.4299062093,2.4725748697,0.9524180095
2.9278519154,-0.0923489583,-0.0506256510,0.0356736654,6.4228261312,2.6556803385,1.6390635173
2.9305551052,-0.0874661458,-0.0506256510,0.0356736654,6.4228261312,2.6556803385,1.6390635173
2.9332559109,-0.0874661458,-0.0506256510,0.0356736654,6.0566151937,3.1744791666,2.5545908610
2.9360709190,-0.0874661458,-0.0506256510,0.0356736654,6.0566151937,3.1744791666,3.7600351970
2.9387869835,-0.0894192708,-0.0350006510,0.0366502279,5.7056630452,3.7085367838,3.7600351970
2.9414911270,-0.0894192708,-0.0350006510,0.0366502279,5.7056630452,3.7085367838,3.7600351970
2.9441981316,-0.0894192708,-0.0350006510,0.0366502279,5.4615224202,3.9221598307,4.9197031657
2.9468970299,-0.0894192708,-0.0350006510,0.0366502279,5.4615224202,3.9221598307,4.9197031657
2.9496140480,-0.0796536458,-0.0232819010,0.0283494467,5.4310048421,3.6932779947,5.4385019938
2.9523100853,-0.0796536458,-0.0232819010,0.0283494467,5.4310048421,3.6932779947,6.1556650798
2.9552171230,-0.0796536458,-0.0232819010,0.0283494467,5.4767812093,3.7085367838,6.1556650798
2.9583010674,-0.0825833333,-0.0164459635,0.0293260091,5.4767812093,3.7085367838,6.3998057048
2.9608759880,-0.0825833333,-0.0164459635,0.0293260091,5.8277333577,3.9831949869,6.3998057048
2.9634449482,-0.0825833333,-0.0164459635,0.0293260091,5.8277333577,3.9831949869,6.6897226970
2.9660129547,-0.0825833333,-0.0164459635,0.0293260091,6.1481679280,3.8000895182,6.6897226970
2.9686870575,-0.0757473958,-0.0149811198,0.0234666341,6.1481679280,3.8000895182,6.6897226970
2.9713909626,-0.0757473958,-0.0149811198,0.0234666341,6.3617909749,3.0066324869,7.1780039470
2.9740939140,-0.0757473958,-0.0149811198,0.0234666341,6.3617909749,3.0066324869,11.0842539470
2.9767930508,-0.0757473958,-0.0149811198,0.0234666341,6.5601552327,2.7014567057,7.7120615641
2.9795079231,-0.0752591145,-0.0061920572,0.0259080404,6.5601552327,2.7014567057,7.7120615641
2.9822111130,-0.0752591145,-0.0061920572,0.0259080404,6.8653310140,2.9761149088,8.0019785563
2.9849140644,-0.0752591145,-0.0061920572,0.0259080404,6.8653310140,2.9761149088,8.0019785563
2.9876229763,-0.0752591145,-0.0061920572,0.0259080404,7.2162831624,2.7624918619,8.3376719157
2.9901931286,-0.0860013021,-0.0340240885,0.0337205404,7.2162831624,2.7624918619,8.3376719157
2.9927599430,-0.0860013021,-0.0340240885,0.0337205404,7.5977528890,2.5488688151,8.9480234782
2.9953320026,-0.0860013021,-0.0340240885,0.0337205404,7.5977528890,2.5488688151,8.9480234782
2.9979159832,-0.0860013021,-0.0340240885,0.0425096029,8.1775868733,2.3505045573,9.9093271891
3.0005989075,-0.0967434895,-0.0467194010,0.0425096029,8.1775868733,2.3505045573,9.9093271891
3.0031759739,-0.0967434895,-0.0467194010,0.0425096029,8.8031972249,1.5265299479,10.4433848063
3.0057461262,-0.0967434895,-0.0467194010,0.0425096029,8.8031972249,1.5265299479,10.4433848063
3.0084481239,-0.0967434895,-0.0223053385,0.0366502279,9.2304433187,0.8704020182,11.1758066813
3.0110249519,-0.1016263021,-0.0223053385,0.0366502279,9.2304433187,0.8704020182,11.1758066813
3.0135929585,-0.1016263021,-0.0223053385,0.0366502279,10.0086415609,1.1145426432,11.4962412517
3.0161619186,-0.1016263021,-0.0223053385,0.0366502279,10.0086415609,1.1145426432,11.4962412517
3.0188739300,-0.1001614583,0.0006438802,0.0273728841,10.5426991780,0.9009195963,11.7251230876
3.0215840340,-0.1001614583,0.0006438802,0.0273728841,10.5426991780,0.9009195963,11.7251230876
3.0242891312,-0.1001614583,0.0006438802,0.0273728841,11.0004628499,0.9161783854,11.7708994548
3.0269911289,-0.1001614583,0.0006438802,0.0273728841,11.0004628499,0.9161783854,11.7708994548
3.0296089649,-0.0830716145,-0.0027740885,0.0244431967,11.5040028890,1.4502360026,11.4962412517
3.0321810246,-0.0830716145,-0.0027740885,0.0244431967,11.5040028890,1.4502360026,11.4962412517
3.0347490311,-0.0830716145,-0.0027740885,0.0244431967,11.5040028890,1.7554117838,11.3741709391
3.0374329090,-0.0830716145,-0.0027740885,0.0244431967,11.5955556233,1.7554117838,11.3741709391
3.0401520729,-0.0781888021,0.0138274740,0.0229783529,11.5955556233,1.8927408854,11.3436533610
3.0427269936,-0.0781888021,0.0138274740,0.0229783529,11.1988271077,1.8927408854,11.3436533610
3.0456280708,-0.0781888021,0.0138274740,0.0229783529,11.1988271077,1.5723063151,11.1758066813
3.0482780933,-0.0781888021,0.0138274740,0.0210252279,11.3208974202,1.5723063151,11.1758066813
3.0508549213,-0.0742825521,0.0167571615,0.0210252279,11.3208974202,1.5723063151,11.1452891032
3.0534279346,-0.0742825521,0.0167571615,0.0210252279,11.3361562093,1.1755777994,11.1452891032
3.0559949875,-0.0742825521,0.0167571615,0.0210252279,11.3361562093,1.1755777994,11.1452891032
3.0585739613,-0.0742825521,0.0167571615,0.0185838217,10.6952870687,1.5417887369,11.1452891032
3.0611469746,-0.0850247395,0.0260345052,0.0185838217,10.6952870687,1.5417887369,11.1452891032
3.0638170242,-0.0850247395,0.0260345052,0.0185838217,10.6647694905,1.7096354166,11.1758066813
3.0663919449,-0.0850247395,0.0260345052,0.0185838217,10.6647694905,1.7096354166,11.1758066813
3.0690319538,-0.0850247395,0.0133391928,0.0390916341,10.8783925374,1.3586832682,11.2521006267
3.0716009140,-0.0923489583,0.0133391928,0.0390916341,10.8783925374,1.3586832682,11.2521006267
3.0741660595,-0.0923489583,0.0133391928,0.0390916341,11.4887440999,1.5875651041,10.7943369548
3.0767369270,-0.0923489583,0.0133391928,0.0390916341,11.4887440999,1.5875651041,10.7943369548
3.0793209076,-0.0923489583,0.0260345052,0.0337205404,12.3584950765,1.5570475260,10.3670908610
3.0818929672,-0.0796536458,0.0260345052,0.0337205404,12.3584950765,1.5570475260,10.3670908610
3.0844709873,-0.0796536458,0.0260345052,0.0337205404,12.9078114827,1.2823893229,10.2602793376
3.0870471001,-0.0796536458,0.0260345052,0.0337205404,12.9078114827,1.2823893229,10.2602793376
3.0897419453,-0.0669583333,0.0392180990,0.0390916341,13.4723866780,1.2060953776,10.5196787517
3.0923159122,-0.0669583333,0.0392180990,0.0390916341,13.4723866780,1.2060953776,10.5196787517
3.0948879719,-0.0669583333,0.0392180990,0.0390916341,13.8691151937,1.5417887369,10.8095957438
3.0974650383,-0.0669583333,0.0392180990,0.0390916341,13.8691151937,1.5417887369,10.8095957438
3.1002500057,-0.0620755208,0.0333587240,0.0356736654,13.5791982015,1.7401529947,11.0079600017
3.1029579639,-0.0620755208,0.0333587240,0.0356736654,13.5791982015,1.7401529947,11.0079600017
3.1056580544,-0.0620755208,0.0333587240,0.0356736654,14.0369618733,0.7025553385,11.9845225017
3.1083869934,-0.0620755208,0.0333587240,0.0356736654,14.0369618733,0.7025553385,11.9845225017
3.1110930443,-0.0728177083,0.0201751302,0.0400681967,14.0369618733,1.2518717447,12.6406504313
3.1137940884,-0.0728177083,0.0201751302,0.0400681967,13.2282460530,1.2518717447,12.6406504313
3.1165039539,-0.0728177083,0.0201751302,0.0400681967,13.2282460530,2.0605875651,13.1136728923
3.1192150116,-0.0728177083,0.0201751302,0.0483689779,12.8315175374,2.0605875651,13.1136728923
3.1219251156,-0.0820950521,0.0250579428,0.0483689779,12.8315175374,2.0453287760,13.7850596110
3.1246290207,-0.0820950521,0.0250579428,0.0483689779,12.5873769124,2.0453287760,13.7850596110
3.1274330616,-0.0820950521,0.0250579428,0.0483689779,11.6871083577,2.0605875651,14.7311045329
3.1301529408,-0.0737942708,0.0284759115,0.0332322591,11.6871083577,2.0605875651,14.7311045329
3.1328561306,-0.0737942708,0.0284759115,0.0332322591,11.6871083577,1.7248942057,15.5093027751
3.1355631351,-0.0737942708,0.0284759115,0.0332322591,10.7410634359,1.7248942057,15.5093027751
3.1382761002,-0.0737942708,0.0284759115,0.0332322591,10.7410634359,1.4197184244,16.0128428141
3.1409859657,-0.0777005208,0.0421477865,0.0293260091,10.8478749593,1.4197184244,16.0128428141
3.1436960697,-0.0777005208,0.0421477865,0.0293260091,10.8478749593,1.7859293619,16.5469004313
3.1463990211,-0.0777005208,0.0421477865,0.0293260091,10.8631337483,1.7859293619,16.5469004313
3.1490459442,-0.0777005208,0.0421477865,0.0293260091,10.8631337483,2.0911051432,16.6384531657
3.1516211033,-0.0733059895,0.0509368490,0.0303025717,10.9089101155,2.0911051432,16.6384531657
3.1542999744,-0.0733059895,0.0509368490,0.0303025717,10.9089101155,2.0911051432,16.4248301188
3.1568999290,-0.0733059895,0.0509368490,0.0303025717,11.4277089437,2.0148111979,16.4248301188
3.1597650051,-0.0733059895,0.0611907552,0.0346971029,11.4277089437,1.8927408854,16.6689707438
3.1624391079,-0.0684231771,0.0611907552,0.0346971029,11.3208974202,1.8927408854,16.6689707438
3.1651511192,-0.0684231771,0.0611907552,0.0346971029,11.3208974202,1.8927408854,16.8062998454
3.1679029465,-0.0684231771,0.0611907552,0.0346971029,11.0309804280,2.3047281901,16.8062998454
3.1706120968,-0.0650052083,0.0685149740,0.0312791341,11.0309804280,2.3047281901,16.7910410563
3.1733200550,-0.0650052083,0.0685149740,0.0312791341,11.2598622640,1.8774820963,16.7910410563
3.1760249138,-0.0650052083,0.0685149740,0.0312791341,11.2598622640,1.8774820963,16.5774180095
3.1787450314,-0.0650052083,0.0685149740,0.0312791341,11.5345204671,2.2436930338,16.5774180095
3.1814579964,-0.0420559895,0.0714446615,0.0429978841,11.5345204671,2.2436930338,16.1043955485
3.1841690540,-0.0420559895,0.0714446615,0.0429978841,11.4429677327,2.0453287760,16.1043955485
3.1868770123,-0.0420559895,0.0714446615,0.0429978841,11.4429677327,2.0453287760,15.8755137126
3.1895010471,-0.0420559895,0.0714446615,0.0429978841,11.4887440999,1.5265299479,15.8755137126
3.1920809746,-0.0523098958,0.0831634115,0.0508103841,11.4887440999,1.5265299479,16.2722422282
3.1947610378,-0.0523098958,0.0831634115,0.0508103841,12.5568593343,1.9995524088,16.2722422282
3.1973350048,-0.0523098958,0.0831634115,0.0508103841,12.5568593343,1.9995524088,16.2722422282
3.1999540329,-0.0523098958,0.0831634115,0.0322556967,12.9078114827,1.8622233073,15.7381846110
3.2025279999,-0.0576809895,0.0782805990,0.0322556967,12.9078114827,1.8622233073,15.7381846110
3.2050991058,-0.0576809895,0.0782805990,0.0322556967,13.0603993733,1.5723063151,15.8297373454
3.2077350616,-0.0576809895,0.0782805990,0.0322556967,13.0603993733,1.5723063151,15.8297373454
3.2103309631,-0.0576809895,0.0899993490,0.0244431967,13.9301503499,1.4960123697,15.8449961345
3.2129049301,-0.0650052083,0.0899993490,0.0244431967,13.9301503499,1.4960123697,15.8449961345
3.2154800892,-0.0650052083,0.0899993490,0.0244431967,13.9148915609,0.9466959635,15.1430918376
3.2182121277,-0.0650052083,0.0899993490,0.0244431967,13.9148915609,0.9466959635,15.1430918376
3.2209191322,-0.0689114583,0.0919524740,0.0190721029,14.7083485921,1.0229899088,14.7463633220
3.2236230373,-0.0689114583,0.0919524740,0.0190721029,14.7083485921,1.0229899088,14.7463633220
3.2263290882,-0.0689114583,0.0919524740,0.0190721029,14.6167958577,0.9619547526,14.6853281657
3.2290780544,-0.0689114583,0.0919524740,0.0190721029,14.6167958577,0.9619547526,14.6853281657
3.2317841053,-0.0757473958,0.0860930990,0.0034471029,14.6930898030,0.6262613932,14.5632578532
3.2344899178,-0.0757473958,0.0860930990,0.0034471029,14.6930898030,0.6262613932,14.5632578532
3.2371959686,-0.0757473958,0.0860930990,0.0034471029,15.1813710530,0.8398844401,14.7158457438
3.2399129868,-0.0757473958,0.0860930990,0.0034471029,15.1813710530,0.8398844401,14.7158457438
3.2426171303,-0.0786770833,0.0860930990,0.0049119467,14.9830067952,0.8093668619,14.9142100017
3.2453179359,-0.0786770833,0.0860930990,0.0049119467,14.9830067952,0.8093668619,14.9142100017
3.2480099201,-0.0786770833,0.0860930990,0.0049119467,14.1437733968,0.8398844401,14.9447275798
3.2505791187,-0.0786770833,0.0860930990,0.0054002279,14.1437733968,0.8398844401,14.9447275798
3.2531490326,-0.0767239583,0.0978118490,0.0054002279,14.5405019124,1.1145426432,14.9447275798
3.2557249069,-0.0767239583,0.0978118490,0.0054002279,14.5405019124,1.1145426432,14.9447275798
3.2585089207,-0.0767239583,0.0978118490,0.0054002279,14.6625722249,0.6415201823,15.6008555095
3.2610850334,-0.0767239583,0.1031829428,0.0049119467,14.6625722249,0.6415201823,15.6008555095
3.2636620998,-0.0762356771,0.1031829428,0.0049119467,14.9677480062,0.7025553385,15.8602549235
3.2662339211,-0.0762356771,0.1031829428,0.0049119467,14.9677480062,0.7025553385,15.8602549235
3.2689719200,-0.0762356771,0.1031829428,0.0049119467,15.3034413655,0.9466959635,15.8297373454
3.2716689110,-0.0781888021,0.1178313802,0.0141892904,15.3034413655,0.9466959635,15.8297373454
3.2744739056,-0.0781888021,0.1178313802,0.0141892904,16.8445790609,0.6415201823,15.9060312907
3.2771799564,-0.0781888021,0.1178313802,0.0141892904,16.8445790609,0.6415201823,15.9060312907
3.2800440788,-0.0781888021,0.1178313802,0.0141892904,18.4925282796,0.5652262369,16.5774180095
3.2827410698,-0.0845364583,0.1251555990,0.0063767904,18.4925282796,0.5652262369,16.5774180095
3.2854321003,-0.0845364583,0.1251555990,0.0063767904,19.4538319905,0.1990152994,16.7452646891
3.2881159782,-0.0845364583,0.1251555990,0.0063767904,19.4538319905,0.1990152994,16.7452646891
3.2907190323,-0.0845364583,0.1251555990,-0.0063185221,23.3600819905,-0.2740071615,17.3861338298
3.2932949066,-0.0820950521,0.1280852865,-0.0063185221,20.4303944905,-0.2740071615,17.3861338298
3.2958700657,-0.0820950521,0.1280852865,-0.0063185221,20.4303944905,-0.2740071615,18.0880381267
3.2985329628,-0.0820950521,0.1280852865,-0.0063185221,21.3306630452,-1.3573811849,18.0880381267
3.3012480736,-0.0820950521,0.1319915365,-0.0068068033,21.3306630452,-1.3573811849,18.5152842204
3.3039541245,-0.0757473958,0.1319915365,-0.0068068033,23.2227528890,-2.1203206381,18.5152842204
3.3066620827,-0.0757473958,0.1319915365,-0.0068068033,23.2227528890,-2.1203206381,18.8509775798
3.3093020916,-0.0757473958,0.1319915365,-0.0068068033,24.3976796468,-3.2036946615,18.8509775798
3.3118770123,-0.1084622395,0.1168548178,-0.0253614909,24.3976796468,-3.2036946615,18.0880381267
3.3144531250,-0.1084622395,0.1168548178,-0.0253614909,26.2134755452,-1.9372151693,18.0880381267
3.3170299530,-0.1084622395,0.1168548178,-0.0253614909,26.2134755452,-1.9372151693,18.0880381267
3.3196280003,-0.1084622395,0.1168548178,-0.0253614909,25.3284657796,-0.7622884115,18.2253672282
