# time_stamp before, Acceleration x, Acceleration y, Acceleration z, Gyro x, Gyro y, Gyro z
0.0000000000,-0.0960795898,0.0679838867,-0.1161225586,8.7460632324,6.5357564291,-8.9550069173
0.0026881695,-0.0960795898,0.0679838867,-0.1161225586,8.0441589355,6.5357564291,-8.9550069173
0.0053701401,-0.2210795898,0.0635893554,-0.0985444336,8.0441589355,7.5123189291,-8.2073262532
0.0081961155,-0.1239116210,0.0635893554,-0.0985444336,4.9466247559,7.5123189291,-8.2073262532
0.0108561516,-0.1239116210,0.0635893554,-0.0985444336,4.9466247559,8.7025044760,-7.5511983235
0.0136539936,-0.1239116210,0.0635893554,-0.0985444336,0.8725280762,8.7025044760,-7.5511983235
0.0163409710,-0.1370952148,0.0782377930,-0.0760834961,0.8725280762,9.4501851400,-6.0558369954
0.0190701485,-0.1370952148,0.0782377930,-0.0760834961,-1.1111145019,9.4501851400,-6.0558369954
0.0217449665,-0.1370952148,0.0782377930,-0.0760834961,-1.1111145019,10.0147603353,-4.1332295735
0.0244240761,-0.1370952148,0.0782377930,-0.0760834961,-2.7590637207,10.0147603353,-4.1332295735
0.0271010399,-0.1175639648,0.0880034180,-0.0638764649,-2.7590637207,13.9210103353,-1.9969991048
0.0296661854,-0.1175639648,0.0880034180,-0.0638764649,-3.5677795410,11.5101216634,-1.9969991048
0.0322680473,-0.1175639648,0.0880034180,-0.0638764649,-3.5677795410,11.5101216634,0.2460428874
0.0348351002,-0.1175639648,0.0880034180,-0.0638764649,-4.6511535645,12.1357320150,0.2460428874
0.0375220776,-0.1327006836,0.0718901367,-0.0355561523,-4.6511535645,12.1357320150,1.9855448405
0.0401921272,-0.1327006836,0.0718901367,-0.0355561523,-6.1617736816,11.8763326010,1.9855448405
0.0428631306,-0.1327006836,0.0718901367,-0.0355561523,-6.1617736816,11.8763326010,5.8917948405
0.0455341339,-0.1327006836,0.0816557617,-0.0096772461,-6.4059143066,11.9068501791,3.8318583171
0.0482151508,-0.1434428710,0.0816557617,-0.0096772461,-6.4059143066,11.9068501791,3.8318583171
0.0507860184,-0.1434428710,0.0816557617,-0.0096772461,-5.8108215332,11.6321919760,6.0138651530
0.0535221100,-0.1434428710,0.0816557617,-0.0096772461,-5.8108215332,11.6321919760,6.0138651530
0.0560960770,-0.1419780273,0.0904448242,-0.0023530273,-4.7121887207,11.2812398275,7.8449198405
0.0587840080,-0.1419780273,0.0904448242,-0.0023530273,-4.7121887207,11.2812398275,7.8449198405
0.0614840984,-0.1419780273,0.0904448242,-0.0023530273,-2.9269104004,10.2741597494,9.4318339030
0.0640661716,-0.1419780273,0.0904448242,-0.0023530273,-2.9269104004,10.2741597494,9.4318339030
0.0666379929,-0.1390483398,0.0933745117,0.0093657227,-1.1416320801,9.1144917806,10.4541727702
0.0693030357,-0.1390483398,0.0933745117,0.0093657227,-1.1416320801,9.1144917806,10.4541727702
0.0718781948,-0.1390483398,0.0933745117,0.0093657227,1.3150329590,8.4431050619,11.3544413249
0.0744481087,-0.1390483398,0.0933745117,0.0093657227,1.3150329590,8.4431050619,11.3544413249
0.0771131516,-0.1458842773,0.0840971680,0.0215727539,4.2752380371,7.4665425619,12.3310038249
0.0796930790,-0.1458842773,0.0840971680,0.0215727539,4.2752380371,7.4665425619,12.3310038249
0.0823571682,-0.1458842773,0.0840971680,0.0215727539,6.8539733887,6.2610982260,12.8498026530
0.0849320889,-0.1458842773,0.0840971680,0.0215727539,6.8539733887,6.2610982260,12.8498026530
0.0883300304,-0.1600444336,0.0782377930,0.0245024414,8.9291687012,5.4371236166,12.8345438640
0.0910470486,-0.1600444336,0.0782377930,0.0245024414,8.9291687012,5.4371236166,12.8345438640
0.0937561989,-0.1600444336,0.0782377930,0.0245024414,11.8130798340,4.0943501791,13.3991190593
0.0964641571,-0.1453959960,0.0684721680,0.0132719727,11.8130798340,4.0943501791,13.3991190593
0.0991821289,-0.1453959960,0.0684721680,0.0132719727,14.1018981934,2.4616597494,13.3228251140
0.1018881798,-0.1453959960,0.0684721680,0.0132719727,14.1018981934,2.4616597494,13.3228251140
0.1045951843,-0.1453959960,0.0684721680,0.0132719727,15.9787292481,0.9815572103,12.9566141765
0.1073181629,-0.1073100586,0.0489409180,-0.0213959961,15.9787292481,0.9815572103,12.9566141765
0.1100289822,-0.1073100586,0.0489409180,-0.0213959961,18.1607360840,-0.8037211100,12.2241923015
0.1127321720,-0.1073100586,0.0489409180,-0.0213959961,18.1607360840,-0.8037211100,12.2241923015
0.1154391766,-0.1073100586,0.0489409180,-0.0213959961,21.0599060059,-1.9328715006,9.1266581218
0.1182241440,-0.0614116210,-0.0599458008,-0.0272553711,21.0599060059,-1.9328715006,9.1266581218
0.1207990646,-0.0614116210,-0.0599458008,-0.0272553711,23.3334655762,-3.2756449381,4.7626444499
0.1233761311,-0.0614116210,-0.0599458008,-0.0272553711,23.3334655762,-3.2756449381,4.7626444499
0.1259551048,-0.0614116210,-0.0599458008,-0.0204194336,22.8451843262,-5.4118754069,-0.1964619954
0.1285791397,-0.0330913086,-0.2108247070,-0.0204194336,22.8451843262,-5.4118754069,-0.1964619954
0.1311550140,-0.0330913086,-0.2108247070,-0.0204194336,20.4648132324,-7.9143168131,-5.2013448079
0.1337301731,-0.0330913086,-0.2108247070,-0.0204194336,20.4648132324,-7.9143168131,-5.2013448079
0.1363160610,-0.0330913086,-0.2269379883,-0.0301850586,16.5585632324,-9.7606302897,-8.7719014485
0.1389219761,-0.0150249023,-0.2269379883,-0.0301850586,16.2686462402,-9.7606302897,-8.7719014485
0.1415061951,-0.0150249023,-0.2269379883,-0.0301850586,16.2686462402,-11.2407328287,-11.5947774251
0.1440789700,-0.0150249023,-0.2269379883,-0.0301850586,10.0583190918,-11.2407328287,-11.5947774251
0.1466519833,-0.0150249023,-0.2020356446,-0.0067475586,10.0583190918,-15.1469828287,-14.7075703939
0.1494641304,-0.0125834960,-0.2020356446,-0.0067475586,3.2376403809,-13.0107523600,-14.7075703939
0.1521520615,-0.0125834960,-0.2020356446,-0.0067475586,3.2376403809,-13.0107523600,-18.0034688313
0.1548371315,-0.0125834960,-0.2020356446,-0.0067475586,-2.4386291504,-14.7349955240,-18.0034688313
0.1575679779,-0.0282084960,-0.2332856446,-0.0013764649,-2.4386291504,-18.6412455240,-21.0094502767
0.1602721214,-0.0282084960,-0.2332856446,-0.0013764649,-7.3519592285,-16.4439798990,-21.0094502767
0.1629760265,-0.0282084960,-0.2332856446,-0.0013764649,-7.3519592285,-16.4439798990,-23.9696553548
0.1655859947,-0.0282084960,-0.2332856446,-0.0013764649,-11.2734680176,-17.4968363444,-23.9696553548
0.1684081554,-0.0457866210,-0.2161958008,-0.0116303711,-11.2734680176,-17.4968363444,-26.5026143392
0.1710791588,-0.0457866210,-0.2161958008,-0.0116303711,-13.9742736816,-18.1987406412,-26.5026143392
0.1740641594,-0.0457866210,-0.2161958008,-0.0116303711,-13.9742736816,-18.1987406412,-29.4780782063
0.1766381264,-0.0457866210,-0.1859223633,-0.0360444336,-14.9355773926,-19.0990091959,-29.4780782063
0.1792969704,-0.0384624023,-0.1859223633,-0.0360444336,-14.9355773926,-19.0990091959,-32.7129414876
0.1819860935,-0.0384624023,-0.1859223633,-0.0360444336,-13.8216857910,-20.1518656412,-32.7129414876
0.1845591068,-0.0384624023,-0.1859223633,-0.0360444336,-13.8216857910,-20.1518656412,-35.7189229329
0.1871900558,-0.0384624023,-0.1727387696,-0.0560639649,-11.3802795410,-20.6554056803,-35.7189229329
0.1897580624,-0.0296733398,-0.1727387696,-0.0560639649,-11.3802795410,-20.6554056803,-35.7189229329
0.1923251152,-0.0296733398,-0.1727387696,-0.0560639649,-8.1148986816,-20.5943705240,-39.4878438313
0.1948940754,-0.0296733398,-0.1727387696,-0.0560639649,-8.1148986816,-20.5943705240,-39.4878438313
0.1974840164,-0.0389506836,-0.1698090820,-0.0707124023,-4.8037414551,-19.9382425944,-43.5009053548
0.2000551224,-0.0389506836,-0.1698090820,-0.0707124023,-4.8037414551,-19.9382425944,-43.5009053548
0.2026281357,-0.0389506836,-0.1698090820,-0.0707124023,-2.3623352051,-20.1213480631,-47.3156026204
0.2052011490,-0.0389506836,-0.1698090820,-0.0707124023,-2.3623352051,-20.1213480631,-47.3156026204
0.2078311443,-0.0438334960,-0.1546723633,-0.0907319336,-0.1803283691,-20.5791117350,-51.2065938313
0.2104029655,-0.0438334960,-0.1546723633,-0.0907319336,-0.1803283691,-20.5791117350,-51.2065938313
0.2129771709,-0.0438334960,-0.1546723633,-0.0907319336,2.7951354981,-20.3502298990,-54.9907735189
0.2155480385,-0.0438334960,-0.1546723633,-0.0907319336,2.7951354981,-20.3502298990,-54.9907735189
0.2181711197,-0.0452983398,-0.1693208008,-0.0975678711,4.9618835449,-19.9382425944,-58.0883076985
0.2207441330,-0.0452983398,-0.1693208008,-0.0975678711,4.9618835449,-19.9382425944,-58.0883076985
0.2233161926,-0.0452983398,-0.1693208008,-0.0975678711,8.8681335449,-19.7703959147,-61.7198994954
0.2258861065,-0.0452983398,-0.1693208008,-0.0975678711,6.2741394043,-19.7703959147,-61.7198994954
0.2285990715,-0.0521342773,-0.1785981446,-0.1068452149,6.2741394043,-19.6635843912,-65.4430440267
0.2311670780,-0.0521342773,-0.1785981446,-0.1068452149,7.0981140137,-19.6635843912,-65.4430440267
0.2337369919,-0.0521342773,-0.1785981446,-0.1068452149,7.0981140137,-19.6635843912,-69.0593770345
0.2363080978,-0.0521342773,-0.1785981446,-0.1068452149,8.0899353027,-19.6483256022,-69.0593770345
0.2389881611,-0.0560405273,-0.1795747070,-0.1200288086,8.0899353027,-19.6483256022,-72.4773457845
0.2416961193,-0.0560405273,-0.1795747070,-0.1200288086,8.5476989746,-20.0145365397,-72.4773457845
0.2445139885,-0.0560405273,-0.1795747070,-0.1200288086,8.5476989746,-20.0145365397,-75.9105733235
0.2472691536,-0.0560405273,-0.1795747070,-0.1312592773,8.7460632324,-19.9382425944,-75.9105733235
0.2499799728,-0.0594584960,-0.1829926758,-0.1312592773,8.7460632324,-19.9382425944,-79.2980244954
0.2526881695,-0.0594584960,-0.1829926758,-0.1312592773,9.2190856934,-19.6025492350,-79.2980244954
0.2553961277,-0.0594584960,-0.1829926758,-0.1312592773,9.2190856934,-19.6025492350,-82.4260762532
0.2581191063,-0.0750834960,-0.1722504883,-0.1322358399,8.2425231934,-19.3584086100,-82.4260762532
0.2608320713,-0.0750834960,-0.1722504883,-0.1322358399,8.2425231934,-19.3584086100,-85.2947285970
0.2635431290,-0.0750834960,-0.1722504883,-0.1322358399,7.4643249512,-19.6178080240,-85.2947285970
0.2663681507,-0.0750834960,-0.1722504883,-0.1322358399,7.4643249512,-19.6178080240,-88.2396748860
0.2691860199,-0.0941264648,-0.1488129883,-0.1410249023,7.0370788574,-19.2973734537,-88.2396748860
0.2718591690,-0.0941264648,-0.1488129883,-0.1410249023,7.0370788574,-19.0990091959,-90.4674580892
0.2747430801,-0.0941264648,-0.1488129883,-0.1410249023,6.4267272949,-19.0990091959,-90.4674580892
0.2774381638,-0.0941264648,-0.1488129883,-0.1380952149,6.4267272949,-19.0990091959,-93.1530049642
0.2800180912,-0.1141459960,-0.1414887696,-0.1380952149,5.6637878418,-19.0990091959,-93.1530049642
0.2825970650,-0.1141459960,-0.1414887696,-0.1380952149,5.6637878418,-19.0990091959,-95.8843282063
0.2851719856,-0.1141459960,-0.1414887696,-0.1380952149,4.5651550293,-18.9006449381,-95.8843282063
0.2877511978,-0.1141459960,-0.1522309570,-0.1351655273,4.5651550293,-18.9006449381,-95.8843282063
0.2903320789,-0.1253764648,-0.1522309570,-0.1351655273,2.4899597168,-18.8396097819,-98.4935811360
0.2929010391,-0.1253764648,-0.1522309570,-0.1351655273,2.4899597168,-18.8396097819,-98.4935811360
0.2954771519,-0.1253764648,-0.1522309570,-0.1351655273,1.5133972168,-18.3513285319,-100.4772237142
0.2980580330,-0.1253764648,-0.1439301758,-0.1434663086,1.5133972168,-18.3513285319,-100.4772237142
0.3006291389,-0.1434428710,-0.1439301758,-0.1434663086,0.2469177246,-18.1071879069,-102.1862080892
0.3032109737,-0.1434428710,-0.1439301758,-0.1434663086,0.2469177246,-18.1071879069,-102.1862080892
0.3057820797,-0.1434428710,-0.1439301758,-0.1434663086,-2.4233703613,-17.4663187662,-104.0630391439
0.3085319996,-0.1590678710,-0.1341645508,-0.1424897461,-2.4233703613,-17.4663187662,-104.0630391439
0.3111081123,-0.1590678710,-0.1341645508,-0.1424897461,-4.5901184082,-16.7033793131,-105.4515889485
0.3136820793,-0.1590678710,-0.1341645508,-0.1424897461,-4.5901184082,-16.7033793131,-105.4515889485
0.3162570000,-0.1590678710,-0.1341645508,-0.1424897461,-6.6805725098,-16.1540629069,-106.6112569173
0.3189411163,-0.1761577148,-0.1141450196,-0.1488374023,-6.6805725098,-16.1540629069,-106.6112569173
0.3215081692,-0.1761577148,-0.1141450196,-0.1488374023,-8.7862854004,-16.4897562662,-108.2592061360
0.3240849972,-0.1761577148,-0.1141450196,-0.1488374023,-8.7862854004,-16.4897562662,-108.2592061360
0.3266520500,-0.1761577148,-0.1141450196,-0.1488374023,-12.6925354004,-15.8946634928,-109.5256856282
0.3293650150,-0.1737163086,-0.1112153320,-0.1410249023,-11.4107971191,-15.8946634928,-109.5256856282
0.3319439888,-0.1737163086,-0.1112153320,-0.1410249023,-11.4107971191,-15.8946634928,-109.8918965657
0.3345119953,-0.1737163086,-0.1112153320,-0.1410249023,-14.6609191895,-14.9181009928,-109.8918965657
0.3370921612,-0.1737163086,-0.1112153320,-0.1410249023,-14.6609191895,-14.9181009928,-110.3038838704
0.3398041725,-0.1795756836,-0.0946137696,-0.1566499023,-18.5976867676,-14.0788675944,-110.3038838704
0.3425180912,-0.1795756836,-0.0946137696,-0.1566499023,-18.5976867676,-14.0788675944,-110.8684590657
0.3452291489,-0.1795756836,-0.0946137696,-0.1566499023,-21.4205627441,-12.8886820475,-110.8684590657
0.3479499817,-0.1795756836,-0.0946137696,-0.1444428711,-21.4205627441,-12.8886820475,-111.6161397298
0.3506569862,-0.1693217773,-0.0638520508,-0.1444428711,-23.1142883301,-12.1867777506,-111.6161397298
0.3533701897,-0.1693217773,-0.0638520508,-0.1444428711,-23.1142883301,-12.1867777506,-112.2417500813
0.3560841084,-0.1693217773,-0.0638520508,-0.1444428711,-24.0755920410,-11.1796976725,-112.2417500813
0.3588011265,-0.1693217773,-0.0872895508,-0.1439545899,-24.0755920410,-11.1796976725,-112.7300313313
0.3615081310,-0.1668803710,-0.0872895508,-0.1439545899,-25.8456115723,-10.6456400553,-112.7300313313
0.3642141819,-0.1668803710,-0.0872895508,-0.1439545899,-25.8456115723,-10.6456400553,-113.5845235189
0.3669819832,-0.1668803710,-0.0872895508,-0.1439545899,-28.7447814941,-9.6690775553,-113.5845235189
0.3698201180,-0.1590678710,-0.1107270508,-0.1522553711,-28.7447814941,-5.7628275553,-114.2406514485
0.3726310730,-0.1590678710,-0.1107270508,-0.1522553711,-31.4455871582,-8.5551859537,-114.2406514485
0.3753449917,-0.1590678710,-0.1107270508,-0.1522553711,-31.4455871582,-8.5551859537,-114.7136739095
0.3780701160,-0.1590678710,-0.1107270508,-0.1507905273,-33.5818176269,-7.0750834147,-114.7136739095
0.3807780743,-0.1629741210,-0.1131684570,-0.1507905273,-33.5818176269,-7.0750834147,-115.7817891439
0.3835639954,-0.1629741210,-0.1131684570,-0.1507905273,-35.1992492676,-6.1595560709,-115.7817891439
0.3862681389,-0.1629741210,-0.1131684570,-0.1507905273,-37.3354797363,-5.4881693522,-116.9872334798
0.3897609711,-0.1668803710,-0.1009614258,-0.1478608399,-37.3354797363,-5.4881693522,-116.9872334798
0.3923339844,-0.1668803710,-0.1009614258,-0.1478608399,-38.1747131348,-4.3742777506,-117.8264668782
0.3949100971,-0.1668803710,-0.1009614258,-0.1478608399,-38.1747131348,-4.3742777506,-117.8264668782
0.3975200653,-0.1668803710,-0.1009614258,-0.1478608399,-38.1747131348,-3.3519388834,-118.7114766439
0.4000880718,-0.1688334960,-0.0911958008,-0.1449311523,-38.7698059082,-3.3519388834,-118.7114766439
0.4026670456,-0.1688334960,-0.0911958008,-0.1449311523,-38.7698059082,-3.3519388834,-119.3981221517
0.4052410126,-0.1688334960,-0.0911958008,-0.1449311523,-39.3801574707,-2.6195170084,-119.3981221517
0.4078609943,-0.1688334960,-0.0911958008,-0.1449311523,-39.3801574707,-2.6195170084,-120.4357198079
0.4104280472,-0.1839702148,-0.0877778320,-0.1253999023,-40.4635314941,-1.2309672037,-120.4357198079
0.4130020142,-0.1839702148,-0.0877778320,-0.1253999023,-40.4635314941,-1.2309672037,-120.4357198079
0.4155759811,-0.1839702148,-0.0877778320,-0.1253999023,-42.3861389160,-0.0102640787,-120.9240010579
0.4181971550,-0.1839702148,-0.0877778320,-0.1253999023,-42.3861389160,-0.0102640787,-120.9240010579
0.4207639694,-0.1878764648,-0.0848481446,-0.1219819336,-44.5681457519,1.2714742025,-121.4580586751
0.4233419895,-0.1878764648,-0.0848481446,-0.1219819336,-44.5681457519,1.2714742025,-121.4580586751
0.4259111881,-0.1878764648,-0.0848481446,-0.1219819336,-46.2618713379,2.7515767416,-121.6564229329
0.4285001755,-0.1878764648,-0.0848481446,-0.1219819336,-46.2618713379,2.7515767416,-121.6564229329
0.4310660362,-0.1834819336,-0.0609223633,-0.1141694336,-48.7337951660,4.2927144369,-120.8934834798
0.4336380959,-0.1834819336,-0.0609223633,-0.1141694336,-48.7337951660,4.2927144369,-120.8934834798
0.4362139702,-0.1834819336,-0.0609223633,-0.1141694336,-51.4498596191,6.0779927572,-119.8711446126
0.4390530586,-0.1834819336,-0.0609223633,-0.1058686523,-51.4498596191,6.0779927572,-119.8711446126
0.4416320324,-0.1756694336,-0.0350434570,-0.1058686523,-52.4416809082,6.6883443197,-118.9708760579
0.4442169666,-0.1756694336,-0.0350434570,-0.1058686523,-52.4416809082,6.6883443197,-118.9708760579
0.4467940331,-0.1756694336,-0.0350434570,-0.1058686523,-52.3196105957,7.5886128744,-118.1774190267
0.4496181011,-0.1756694336,-0.0291840820,-0.0961030273,-52.3196105957,7.5886128744,-118.1774190267
0.4523191452,-0.1732280273,-0.0291840820,-0.0961030273,-51.8923645019,8.6414693197,-117.8112080892
0.4550261497,-0.1732280273,-0.0291840820,-0.0961030273,-51.8923645019,8.6414693197,-117.8112080892
0.4577519894,-0.1732280273,-0.0291840820,-0.0961030273,-51.8618469238,9.3891499838,-117.6586201985
0.4604611397,-0.1707866210,-0.0340668946,-0.0873139649,-51.8618469238,9.3891499838,-117.6586201985
0.4631690979,-0.1707866210,-0.0340668946,-0.0873139649,-51.2057189941,10.2894185384,-116.9109395345
0.4658770561,-0.1707866210,-0.0340668946,-0.0873139649,-51.2057189941,10.2894185384,-116.9109395345
0.4685120583,-0.1707866210,-0.0340668946,-0.0873139649,-50.6258850098,10.5488179525,-116.0411885579
0.4710891247,-0.1654155273,-0.0492036133,-0.0829194336,-50.6258850098,10.5488179525,-116.0411885579
0.4736661911,-0.1654155273,-0.0492036133,-0.0829194336,-46.7196350098,11.4796040853,-115.3087666829
0.4762411118,-0.1654155273,-0.0492036133,-0.0829194336,-49.5577697754,11.4796040853,-115.3087666829
0.4789350033,-0.1654155273,-0.0492036133,-0.0829194336,-49.5577697754,12.3188374838,-114.3932393392
0.4816381931,-0.1615092773,-0.0472504883,-0.0804780273,-48.4286193848,12.3188374838,-114.3932393392
0.4843389988,-0.1615092773,-0.0472504883,-0.0804780273,-48.4286193848,12.9139302572,-113.4777119954
0.4870560169,-0.1615092773,-0.0472504883,-0.0804780273,-47.2384338379,12.9139302572,-113.4777119954
0.4897630215,-0.1615092773,-0.0477387696,-0.0838959961,-47.2384338379,13.5090230306,-112.5011494954
0.4924740791,-0.1629741210,-0.0477387696,-0.0838959961,-45.5599670410,13.5090230306,-112.5011494954
0.4951801300,-0.1629741210,-0.0477387696,-0.0838959961,-45.5599670410,13.5090230306,-111.6924336751
0.4979000092,-0.1629741210,-0.0477387696,-0.0838959961,-43.4237365723,14.5161031088,-111.6924336751
0.5006101131,-0.1649272460,-0.0501801758,-0.0604584961,-43.4237365723,18.4223531088,-110.5175069173
0.5034530163,-0.1649272460,-0.0501801758,-0.0604584961,-41.4858703613,14.8670552572,-110.5175069173
0.5061721802,-0.1649272460,-0.0501801758,-0.0604584961,-38.8918762207,15.1722310384,-108.9916280110
0.5092940331,-0.1649272460,-0.0501801758,-0.0604584961,-38.8918762207,15.1722310384,-108.9916280110
0.5120081902,-0.1595561523,-0.0355317383,-0.0609467773,-36.1605529785,15.5842183431,-107.5115254720
0.5147140026,-0.1595561523,-0.0355317383,-0.0609467773,-36.1605529785,15.5842183431,-107.5115254720
0.5174510479,-0.1595561523,-0.0355317383,-0.0609467773,-34.4973449707,15.7062886556,-105.6957295735
0.5200271606,-0.1595561523,-0.0365083008,-0.0477631836,-34.4973449707,15.7062886556,-105.6957295735
0.5226039886,-0.1493022460,-0.0365083008,-0.0477631836,-34.4973449707,15.7062886556,-104.3071797689
0.5251760483,-0.1493022460,-0.0365083008,-0.0477631836,-33.5360412598,15.7062886556,-104.3071797689
0.5277969837,-0.1493022460,-0.0365083008,-0.0477631836,-33.5360412598,15.7062886556,-101.9878438313
0.5305051804,-0.1390483398,-0.0155122070,-0.0423920899,-32.9104309082,16.2708638510,-101.9878438313
0.5332071781,-0.1390483398,-0.0155122070,-0.0423920899,-32.9104309082,16.2708638510,-99.1191914876
0.5359210968,-0.1390483398,-0.0155122070,-0.0423920899,-30.7894592285,16.2861226400,-99.1191914876
0.5385921001,-0.1390483398,-0.0155122070,-0.0423920899,-30.7894592285,16.2861226400,-95.9301045735
0.5411679745,-0.1287944336,0.0064604492,-0.0399506836,-29.0804748535,16.1945699056,-95.9301045735
0.5437490940,-0.1287944336,0.0064604492,-0.0399506836,-29.0804748535,16.1945699056,-92.0238545735
0.5463230610,-0.1287944336,0.0064604492,-0.0399506836,-27.4783020019,16.6370747884,-93.1835225423
0.5489079952,-0.1287944336,0.0064604492,-0.0399506836,-27.4783020019,16.6370747884,-93.1835225423
0.5514810085,-0.1117045898,0.0098784180,-0.0399506836,-26.2423400879,16.6218159994,-89.9028828939
0.5540549755,-0.1117045898,0.0098784180,-0.0399506836,-26.2423400879,16.6218159994,-89.9028828939
0.5566320419,-0.1117045898,0.0098784180,-0.0399506836,-25.5404357910,16.3471577963,-86.8969014485
0.5592939854,-0.1117045898,0.0098784180,-0.0399506836,-25.5404357910,16.3471577963,-86.8969014485
0.5618660450,-0.0946147460,-0.0037934570,-0.0296967773,-24.3502502441,15.9809468588,-83.6772969563
0.5644421577,-0.0946147460,-0.0037934570,-0.0296967773,-24.3502502441,15.9809468588,-83.6772969563
0.5672969818,-0.0946147460,-0.0037934570,-0.0296967773,-23.0379943848,16.0572408041,-80.5339864095
0.5698800087,-0.0946147460,-0.0037934570,0.0953032227,-23.0379943848,16.0572408041,-80.5339864095
0.5724539757,-0.0946147460,0.0040190430,-0.0087006836,-21.2832336426,15.2637837728,-77.4211934407
0.5750269890,-0.0946147460,0.0040190430,-0.0087006836,-21.2832336426,15.2637837728,-77.4211934407
0.5776820183,-0.0946147460,0.0040190430,-0.0087006836,-19.3758850098,14.9128316244,-74.6135762532
0.5803880692,-0.0946147460,0.0040190430,-0.0038178711,-19.3758850098,14.9128316244,-74.6135762532
0.5830950737,-0.1058452148,-0.0047700196,-0.0038178711,-17.6211242676,13.9820454916,-71.8364766439
0.5858051777,-0.1058452148,-0.0047700196,-0.0038178711,-17.6211242676,13.9820454916,-71.8364766439
0.5885260105,-0.1058452148,-0.0047700196,-0.0038178711,-16.0647277832,12.8223775228,-68.5863545735
0.5912292004,-0.0975444336,-0.0116059570,-0.0160249023,-16.0647277832,12.8223775228,-68.5863545735
0.5939321518,-0.0975444336,-0.0116059570,-0.0160249023,-14.9813537598,12.1052144369,-65.0768330892
0.5966370106,-0.0975444336,-0.0116059570,-0.0160249023,-14.9813537598,12.1052144369,-65.0768330892
0.5992500782,-0.0975444336,-0.0116059570,-0.0160249023,-13.5775451660,11.6169331869,-61.8419698079
0.6018230915,-0.0750834960,-0.0233247070,-0.0126069336,-13.5775451660,11.6169331869,-61.8419698079
0.6043970585,-0.0750834960,-0.0233247070,-0.0126069336,-13.5775451660,10.9608052572,-58.5155537923
0.6070101261,-0.0750834960,-0.0233247070,-0.0126069336,-12.4636535645,10.9608052572,-58.5155537923
0.6097090244,-0.0750834960,-0.0233247070,-0.0126069336,-12.4636535645,10.0452779134,-55.4180196126
0.6124210358,-0.0667827148,-0.0208833008,-0.0043061523,-11.8227844238,10.0452779134,-55.4180196126
0.6151189804,-0.0667827148,-0.0208833008,-0.0043061523,-11.8227844238,9.6180318197,-51.7101338704
0.6178140640,-0.0667827148,-0.0208833008,-0.0043061523,-10.8309631348,9.6180318197,-51.7101338704
0.6203861237,-0.0667827148,-0.0208833008,-0.0043061523,-10.8309631348,9.6180318197,-48.3074239095
0.6230030060,-0.0628764648,-0.0125825196,-0.0072358399,-9.4729309082,9.1907857260,-48.3074239095
0.6257200241,-0.0628764648,-0.0125825196,-0.0072358399,-9.4729309082,9.2060445150,-44.1112569173
0.6287021637,-0.0628764648,-0.0125825196,-0.0072358399,-8.2369689941,9.2060445150,-44.1112569173
0.6315171719,-0.0418803710,0.0181791992,-0.0116303711,-4.3307189941,9.1602681478,-39.4115498860
0.6342279911,-0.0418803710,0.0181791992,-0.0116303711,-6.5279846191,9.1602681478,-39.4115498860
0.6369731426,-0.0418803710,0.0181791992,-0.0116303711,-6.5279846191,8.8856099447,-34.8644307454
0.6396851540,-0.0418803710,0.0181791992,-0.0116303711,-5.1546936035,8.8856099447,-34.8644307454
0.6423871517,-0.0423686523,0.0264799804,-0.0130952149,-5.1546936035,8.9008687338,-31.4006856282
0.6450860500,-0.0423686523,0.0264799804,-0.0130952149,-3.8119201660,8.9008687338,-31.4006856282
0.6477911472,-0.0423686523,0.0264799804,-0.0130952149,0.0943298340,8.1226704916,-27.1892598470
0.6504931450,-0.0423686523,0.0264799804,-0.0130952149,-2.6369934082,8.1226704916,-27.1892598470
0.6531860828,-0.0404155273,0.0259916992,-0.0028413086,-2.6369934082,7.2834370931,-23.2677510579
0.6558890343,-0.0404155273,0.0259916992,-0.0028413086,-1.4315490723,7.2834370931,-23.2677510579
0.6585111618,-0.0404155273,0.0259916992,-0.0028413086,-1.4315490723,3.3771870931,-20.3380635579
0.6610820293,-0.0404155273,0.0259916992,0.0049711914,0.2621765137,6.7646382650,-20.3380635579
0.6636540890,-0.0423686523,0.0259916992,0.0049711914,0.2621765137,6.7646382650,-17.8203633626
0.6662180424,-0.0423686523,0.0259916992,0.0049711914,2.8103942871,6.3679097494,-17.8203633626
0.6688179970,-0.0423686523,0.0259916992,0.0049711914,2.8103942871,6.3679097494,-13.9141133626
0.6713831425,-0.0423686523,0.0137846680,0.0083891601,4.9771423340,5.6965230306,-15.0737813313
0.6739490032,-0.0560405273,0.0137846680,0.0083891601,4.9771423340,5.6965230306,-15.0737813313
0.6765191555,-0.0560405273,0.0137846680,0.0083891601,6.1368103027,5.5134175619,-12.3729756673
0.6791319847,-0.0560405273,0.0137846680,0.0083891601,6.1368103027,5.5134175619,-12.3729756673
0.6817011833,-0.0560405273,-0.0067231446,0.0103422851,7.0523376465,5.7117818197,-9.9315694173
0.6842701435,-0.0526225586,-0.0067231446,0.0103422851,7.0523376465,5.7117818197,-9.9315694173
0.6868371964,-0.0526225586,-0.0067231446,0.0103422851,7.4185485840,5.9864400228,-7.2765401204
0.6896321774,-0.0526225586,-0.0067231446,0.0103422851,7.4185485840,5.9864400228,-7.2765401204
0.6923379898,-0.0511577148,-0.0140473633,0.0083891601,8.0594177246,6.0627339681,-4.5299580892
0.6951470375,-0.0511577148,-0.0140473633,0.0083891601,8.0594177246,6.0627339681,-4.5299580892
0.6978671551,-0.0511577148,-0.0140473633,0.0083891601,8.1662292481,6.0932515463,-1.0051778157
0.7005670071,-0.0511577148,-0.0140473633,0.0083891601,8.1662292481,6.0932515463,-1.0051778157
0.7032730579,-0.0413920898,-0.0213715820,0.0127836914,7.7389831543,6.0016988119,2.0008036296
0.7059791088,-0.0413920898,-0.0213715820,0.0127836914,7.7389831543,6.0016988119,2.0008036296
0.7086911201,-0.0413920898,-0.0213715820,0.0127836914,6.6556091309,5.6812642416,5.1593729655
0.7113900185,-0.0413920898,-0.0213715820,0.0342680664,6.6556091309,5.6812642416,5.1593729655
0.7140879631,-0.0457866210,-0.0418793946,0.0342680664,5.1602478027,4.9183247884,8.9435526530
0.7167870998,-0.0457866210,-0.0418793946,0.0342680664,5.1602478027,4.9183247884,8.9435526530
0.7193830013,-0.0457866210,-0.0418793946,0.0342680664,4.0921325684,4.5521138510,9.4013163249
0.7219440937,-0.0457866210,-0.0423676758,-0.0165131836,4.0921325684,4.5521138510,9.4013163249
0.7245180607,-0.1014506836,-0.0423676758,-0.0165131836,-0.0887756348,5.2082417806,13.4906717937
0.7270960808,-0.1014506836,-0.0423676758,-0.0165131836,-0.0887756348,5.2082417806,13.4906717937
0.7297999859,-0.1014506836,-0.0423676758,-0.0165131836,-5.1699523926,4.9793599447,19.8993631999
0.7325050831,-0.0511577148,0.0172026367,-0.0311616211,-5.1699523926,4.9793599447,19.8993631999
0.7352130413,-0.0511577148,0.0172026367,-0.0311616211,-9.5644836426,4.1859029134,23.6835428874
0.7379260063,-0.0511577148,0.0172026367,-0.0311616211,-9.5644836426,4.1859029134,23.6835428874
0.7406330109,-0.0511577148,0.0172026367,-0.0311616211,-16.9497375488,3.4839986166,25.0720926921
0.7434291840,-0.0858256836,-0.1009614258,0.0454985351,-16.9497375488,3.4839986166,25.0720926921
0.7461361885,-0.0858256836,-0.1009614258,0.0454985351,-20.6576232910,3.7433980306,24.9347635905
0.7492749691,-0.0858256836,-0.1009614258,0.0454985351,-20.6576232910,3.7433980306,24.9347635905
0.7519810200,-0.0858256836,-0.3509614258,0.0572172851,-23.3889465332,4.0790913900,25.4840799968
0.7546911240,-0.1912944336,-0.3866059570,0.0572172851,-23.3889465332,4.0790913900,25.4840799968
0.7573881149,-0.1912944336,-0.3866059570,0.0572172851,-27.2189025879,3.6365865072,26.2012430827
0.7600810528,-0.1912944336,-0.3866059570,0.0572172851,-27.2189025879,3.6365865072,26.2012430827
0.7626531124,-0.2469584960,-0.5404145508,0.0079008789,-31.3387756348,2.9804585775,28.7952372233
0.7652270794,-0.2469584960,-0.5404145508,0.0079008789,-31.3387756348,2.9804585775,28.7952372233
0.7679080963,-0.2469584960,-0.5404145508,0.0079008789,-34.2837219238,1.9123433431,31.8469950358
0.7706160545,-0.2469584960,-0.5404145508,0.0079008789,-34.2837219238,1.9123433431,31.8469950358
0.7733190060,-0.2655131836,-0.4178559570,-0.0765717773,-34.7109680176,2.1412251791,35.7227274577
0.7760250568,-0.2655131836,-0.4178559570,-0.0765717773,-34.7109680176,2.1412251791,35.7227274577
0.7786600590,-0.2655131836,-0.4178559570,-0.0765717773,-35.2602844238,2.9651997884,40.5750223796
0.7812361717,-0.2655131836,-0.4178559570,-0.0765717773,-35.2602844238,2.9651997884,40.5750223796
0.7838051319,-0.2479350586,-0.2215668946,-0.1097749023,-35.2602844238,2.9041646322,45.2594706218
0.7863810062,-0.2479350586,-0.2215668946,-0.1097749023,-37.0455627441,2.9041646322,45.2594706218
0.7890141010,-0.2479350586,-0.2215668946,-0.1097749023,-37.0455627441,2.9041646322,49.4403788249
0.7915840149,-0.2479350586,-0.2215668946,-0.1097749023,-39.8379211426,2.6905415853,49.4403788249
0.7941529751,-0.2303569336,-0.1009614258,-0.0897553711,-39.8379211426,2.6905415853,53.3466288249
0.7967331409,-0.2303569336,-0.1009614258,-0.0897553711,-42.0962219238,1.7292378744,53.7738749187
0.7994971275,-0.2303569336,-0.1009614258,-0.0897553711,-42.0962219238,1.7292378744,57.6801249187
0.8020701408,-0.2303569336,-0.1009614258,-0.0897553711,-44.2324523926,-0.3612162272,57.7564188640
0.8046422005,-0.2093608398,-0.0555512696,-0.0316499023,-44.2324523926,-0.3612162272,57.7564188640
0.8073661327,-0.2093608398,-0.0555512696,-0.0316499023,-43.7746887207,-2.5127054850,60.6098124187
0.8099431992,-0.2093608398,-0.0555512696,-0.0316499023,-43.7746887207,-2.5127054850,60.6098124187
0.8125171661,-0.2093608398,-0.0555512696,-0.0467866211,-40.8602600098,-5.1982523600,62.3798319499
0.8150889874,-0.1702983398,-0.0521333008,-0.0467866211,-40.8602600098,-5.1982523600,62.3798319499
0.8176879883,-0.1702983398,-0.0521333008,-0.0467866211,-36.0537414551,-6.3579203287,62.0441385905
0.8202660084,-0.1702983398,-0.0521333008,-0.0467866211,-36.0537414551,-6.3579203287,62.0441385905
0.8229591846,-0.1702983398,-0.0594575196,-0.0980561523,-31.0030822754,-6.6325785319,60.9455057780
0.8255391121,-0.1278178710,-0.0594575196,-0.0980561523,-31.0030822754,-6.6325785319,60.9455057780
0.8281240463,-0.1278178710,-0.0594575196,-0.0980561523,-26.8526916504,-7.5328470866,58.8092753093
0.8307039738,-0.1278178710,-0.0594575196,-0.0980561523,-26.8526916504,-7.5328470866,58.8092753093
0.8332760334,-0.0028178710,-0.0770356446,-0.1131928711,-24.3044738769,-8.2042338053,55.8185526530
0.8358511925,-0.0838725586,-0.0770356446,-0.1131928711,-24.3044738769,-8.2042338053,55.8185526530
0.8385200500,-0.0838725586,-0.0770356446,-0.1131928711,-22.0156555176,-9.1960550944,52.5684305827
0.8412330151,-0.0838725586,-0.0770356446,-0.1131928711,-22.0156555176,-9.1960550944,52.5684305827
0.8439450264,-0.0618999023,-0.0775239258,-0.0819428711,-19.8641662598,-9.7453715006,49.6234842937
0.8466570377,-0.0618999023,-0.0775239258,-0.0819428711,-19.8641662598,-9.7453715006,49.6234842937
0.8493850231,-0.0618999023,-0.0775239258,-0.0819428711,-15.9579162598,-10.3709818522,46.5412089030
0.8519670963,-0.0618999023,-0.0775239258,-0.0819428711,-17.3464660645,-10.3709818522,46.5412089030
0.8545470238,-0.0755717773,-0.0228364258,-0.0511811523,-17.3464660645,-11.1034037272,44.4660135905
0.8571820259,-0.0755717773,-0.0228364258,-0.0511811523,-12.8451232910,-11.1034037272,44.4660135905
0.8597710133,-0.0755717773,-0.0228364258,-0.0511811523,-12.8451232910,-11.1034037272,47.3499247233
0.8623480797,-0.0755717773,-0.0228364258,-0.0511811523,-5.1699523926,-11.6222025553,47.3499247233
0.8650970459,-0.1458842773,0.2261870117,-0.0311616211,-5.1699523926,-11.6222025553,49.2267557780
0.8679389954,-0.1458842773,0.2261870117,-0.0311616211,-0.7143859863,-12.9039408366,49.2267557780
0.8706459999,-0.1458842773,0.2261870117,-0.0311616211,-0.7143859863,-12.9039408366,44.4660135905
0.8733570576,-0.1458842773,0.0997221680,-0.0077241211,1.8338317871,-14.0483500162,44.4660135905
0.8760621548,-0.0877788086,0.0997221680,-0.0077241211,1.8338317871,-14.0483500162,38.2709452311
0.8787021637,-0.0877788086,0.0997221680,-0.0077241211,5.0076599121,-14.8875834147,38.2709452311
0.8825540543,-0.0877788086,0.0997221680,-0.0077241211,7.7847595215,-14.4908548990,34.7614237468
0.8852901459,-0.0999858398,-0.0526215820,-0.0209077149,7.7847595215,-14.4908548990,34.7614237468
0.8879940510,-0.0999858398,-0.0526215820,-0.0209077149,6.2436218262,-14.0178324381,32.1979471843
0.8905730247,-0.0999858398,-0.0526215820,-0.0209077149,6.2436218262,-14.0178324381,32.1979471843
0.8931441307,-0.0999858398,-0.0526215820,-0.0721772461,0.0027770996,-14.0025736490,30.8246561687
0.8957090378,-0.0892436523,-0.0990083008,-0.0721772461,0.0027770996,-14.0025736490,30.8246561687
0.8983690739,-0.0892436523,-0.0990083008,-0.0721772461,-3.9034729004,-13.9415384928,30.0769755046
0.9009330273,-0.0892436523,-0.0990083008,-0.0721772461,-5.0783996582,-13.9415384928,30.0769755046
0.9034991264,-0.0892436523,-0.0662934570,-0.0467866211,-5.0783996582,-13.9415384928,29.2072245280
0.9060680866,-0.0872905273,-0.0662934570,-0.0467866211,-7.6266174316,-14.3840433756,29.2072245280
0.9086420536,-0.0872905273,-0.0662934570,-0.0467866211,-7.6266174316,-14.3840433756,28.2611796061
0.9112119675,-0.0872905273,-0.0662934570,-0.0467866211,-10.9835510254,-14.2772318522,28.2611796061
0.9137811661,-0.0872905273,-0.0570161133,0.0054594727,-10.9835510254,-14.2772318522,28.2611796061
0.9163491726,-0.0745952148,-0.0570161133,0.0054594727,-13.6843566895,-14.8570658366,26.5216776530
0.9189691544,-0.0745952148,-0.0570161133,0.0054594727,-13.6843566895,-14.8570658366,26.5216776530
0.9215409756,-0.0745952148,-0.0570161133,0.0054594727,-12.0974426269,-15.1164652506,24.7516581218
0.9241130352,-0.0745952148,-0.0609223633,0.0201079101,-12.0974426269,-15.1164652506,24.7516581218
0.9266819954,-0.0687358398,-0.0609223633,0.0201079101,-8.2369689941,-14.8570658366,22.8595682780
0.9293310642,-0.0687358398,-0.0609223633,0.0201079101,-8.2369689941,-14.8570658366,22.8595682780
0.9319000244,-0.0687358398,-0.0609223633,0.0201079101,-5.6734924316,-14.1551615397,20.3113505046
0.9344689846,-0.0760600586,-0.0243012696,-0.0160249023,-5.6734924316,-14.1551615397,20.3113505046
0.9371271133,-0.0760600586,-0.0243012696,-0.0160249023,-3.0489807129,-13.3006693522,18.6939188640
0.9397170544,-0.0760600586,-0.0243012696,-0.0160249023,-3.0489807129,-13.3006693522,18.6939188640
0.9422850609,-0.0760600586,-0.0243012696,-0.0160249023,2.1847839355,-13.8194681803,15.8557840983
0.9448571205,-0.0731303710,-0.0116059570,-0.0140717773,2.1847839355,-13.8194681803,15.8557840983
0.9474680424,-0.0731303710,-0.0116059570,-0.0140717773,8.9444274902,-14.1704203287,12.0410868327
0.9501500130,-0.0731303710,-0.0116059570,-0.0140717773,8.9444274902,-14.1704203287,12.0410868327
0.9527201653,-0.0731303710,-0.0116059570,-0.0140717773,12.8506774902,-13.4532572428,8.3789774577
0.9552900791,-0.1160991210,-0.0384614258,-0.0389741211,12.0572204590,-13.4532572428,8.3789774577
0.9578711987,-0.1160991210,-0.0384614258,-0.0389741211,12.0572204590,-13.4532572428,6.0901590983
0.9604439735,-0.1160991210,-0.0384614258,-0.0389741211,11.3705749512,-13.1328226725,6.0901590983
0.9630150795,-0.1160991210,-0.0384614258,-0.0389741211,11.3705749512,-13.1328226725,4.5185038249
0.9655911922,-0.1063334960,-0.0648286133,-0.0184663086,9.8294372559,-12.7055765787,4.5185038249
0.9682440758,-0.1063334960,-0.0648286133,-0.0184663086,9.8294372559,-12.7055765787,4.5185038249
0.9708220959,-0.1063334960,-0.0648286133,-0.0184663086,9.6158142090,-12.0647074381,3.4809061687
0.9733951092,-0.1063334960,-0.0648286133,-0.0184663086,9.6158142090,-12.0647074381,3.4809061687
0.9759740829,-0.1063334960,-0.0487153320,-0.0106538086,8.7460632324,-11.6527201334,2.6416727702
0.9786930084,-0.1063334960,-0.0487153320,-0.0106538086,8.7460632324,-11.6527201334,2.6416727702
0.9814040661,-0.1063334960,-0.0487153320,-0.0106538086,7.4795837402,-11.8816019694,1.3751932780
0.9841129780,-0.1063334960,-0.0487153320,-0.0126069336,7.4795837402,-11.8816019694,1.3751932780
0.9868211746,-0.0843608398,-0.0335786133,-0.0126069336,5.6027526855,-11.7290140787,1.1310526530
0.9895370007,-0.0843608398,-0.0335786133,-0.0126069336,5.6027526855,-11.7290140787,1.1310526530
0.9922380447,-0.0843608398,-0.0335786133,-0.0126069336,3.8479919434,-11.3170267740,0.6275126140
0.9950649738,-0.0897319336,-0.0653168946,-0.0121186523,3.8479919434,-11.3170267740,0.6275126140
0.9981951714,-0.0897319336,-0.0653168946,-0.0121186523,1.6049499512,-10.5540873209,0.2765604655
1.0008990765,-0.0897319336,-0.0653168946,-0.0121186523,1.6049499512,-10.5540873209,0.2765604655
1.0036051273,-0.0897319336,-0.0653168946,-0.0121186523,-0.1803283691,-10.4930521647,-0.0591328939
1.0063121319,-0.0819194336,-0.0623872070,-0.0047944336,-0.1803283691,-10.4930521647,-0.0591328939
1.0089612007,-0.0819194336,-0.0623872070,-0.0047944336,-2.9726867676,-9.8979593912,-0.1049092610
1.0115389824,-0.0819194336,-0.0623872070,-0.0047944336,-2.9726867676,-9.8979593912,-0.1049092610
1.0142290592,-0.0819194336,-0.0623872070,0.0059477539,-5.3377990723,-9.1655375162,-0.5168965657
1.0168051720,-0.0926616210,-0.0579926758,0.0059477539,-5.3377990723,-9.1655375162,-0.5168965657
1.0195100307,-0.0926616210,-0.0579926758,0.0059477539,-7.1535949707,-8.5704447428,-0.5321553548
1.0222151279,-0.0926616210,-0.0579926758,0.0059477539,-7.1535949707,-8.5704447428,-0.5321553548
1.0249161720,-0.0926616210,-0.0614106446,0.0035063477,-8.2674865723,-7.7922465006,-0.7305196126
1.0276441574,-0.0877788086,-0.0614106446,0.0035063477,-8.2674865723,-7.7922465006,-0.7305196126
1.0302150249,-0.0877788086,-0.0614106446,0.0035063477,-9.0914611816,-6.9682718912,-0.5168965657
1.0327901840,-0.0877788086,-0.0614106446,0.0035063477,-9.0914611816,-6.9682718912,-0.5168965657
1.0353691578,-0.0951030273,-0.0550629883,0.0132719727,-9.1219787598,-6.4799906412,-0.6237080892
1.0379581451,-0.0951030273,-0.0550629883,0.0132719727,-9.1219787598,-6.4799906412,-0.6237080892
1.0405299664,-0.0951030273,-0.0550629883,0.0132719727,-7.7029113769,-5.9459330240,-0.9288838704
1.0431020260,-0.0951030273,-0.0550629883,0.0132719727,-7.7029113769,-5.9459330240,-0.9288838704
1.0456771851,-0.0926616210,-0.0526215820,0.0323149414,-5.4598693848,-4.9235941569,-1.7528584798
1.0483939648,-0.0926616210,-0.0526215820,0.0323149414,-5.4598693848,-4.9235941569,-1.7528584798
1.0509660244,-0.0926616210,-0.0526215820,0.0323149414,-2.5149230957,-4.5116068522,-2.0580342610
1.0535380840,-0.0926616210,-0.0526215820,0.0323149414,-2.5149230957,-4.5116068522,-2.0580342610
1.0561110973,-0.0882670898,-0.0467622070,0.0537993164,-2.5149230957,-4.5879007975,-2.9125264485
1.0587852001,-0.0882670898,-0.0467622070,0.0537993164,-0.0277404785,-4.5879007975,-2.9125264485
1.0613570213,-0.0882670898,-0.0467622070,0.0537993164,-0.0277404785,-8.4941507975,-3.3397725423
1.0639309883,-0.0882670898,-0.0467622070,0.0537993164,2.5357360840,-4.7099711100,-3.3397725423
1.0665061474,-0.0911967773,-0.0575043946,0.0376860351,2.5357360840,-4.7099711100,-3.6907246907
1.0691990852,-0.0911967773,-0.0575043946,0.0376860351,4.3820495605,-4.4047953287,-3.6907246907
1.0719001293,-0.0911967773,-0.0575043946,0.0376860351,4.3820495605,-4.4047953287,-3.7822774251
1.0746071339,-0.0911967773,-0.0575043946,0.0249907227,5.0076599121,-4.0233256022,-3.7822774251
1.0774221420,-0.0970561523,-0.0511567383,0.0249907227,5.0076599121,-4.0233256022,-3.7059834798
1.0801219940,-0.0970561523,-0.0511567383,0.0249907227,4.4736022949,-3.5655619303,-3.7059834798
1.0828220844,-0.0970561523,-0.0511567383,0.0249907227,4.4736022949,-3.5655619303,-3.2482198079
1.0855281353,-0.0970561523,-0.0535981446,0.0225493164,3.4665222168,-2.2838236490,-3.2482198079
1.0882310867,-0.0955913086,-0.0535981446,0.0225493164,3.4665222168,-2.2838236490,-2.1343282063
1.0909011364,-0.0955913086,-0.0535981446,0.0225493164,1.6965026855,-0.6511332194,-2.1343282063
1.0944540501,-0.0955913086,-0.0535981446,0.0225493164,1.3760681152,0.2491353353,-1.4324239095
1.0970211029,-0.0814311523,-0.0487153320,0.0288969727,1.3760681152,0.2491353353,-1.4324239095
1.0995891094,-0.0814311523,-0.0487153320,0.0288969727,1.3760681152,0.6916402181,-1.2035420735
1.1021561623,-0.0814311523,-0.0487153320,0.0288969727,1.1624450684,0.6916402181,-1.2035420735
1.1047191620,-0.0814311523,-0.0487153320,0.0288969727,1.1624450684,0.6916402181,-0.8831075032
1.1072959900,-0.0892436523,-0.0321137696,0.0293852539,1.4523620605,0.6306050619,-0.8831075032
1.1098601818,-0.0892436523,-0.0321137696,0.0293852539,1.4523620605,0.6306050619,-0.8831075032
1.1124310493,-0.0892436523,-0.0321137696,0.0293852539,2.1542663574,0.8137105306,-0.5779317220
1.1149961948,-0.0892436523,-0.0321137696,0.0293852539,2.1542663574,0.8137105306,-0.5779317220
1.1175661087,-0.0868022460,-0.0472504883,0.0249907227,3.7564392090,1.0425923666,-0.5321553548
1.1201350689,-0.0868022460,-0.0472504883,0.0249907227,3.7564392090,1.0425923666,-0.5321553548
1.1227021217,-0.0868022460,-0.0472504883,0.0249907227,4.6109313965,0.9968159994,0.0781962077
1.1252641678,-0.0868022460,-0.0472504883,0.0201079101,4.6109313965,0.9968159994,0.0781962077
1.1278851032,-0.0926616210,-0.0399262696,0.0201079101,4.5193786621,0.7526753744,0.4138895671
1.1304531097,-0.0926616210,-0.0399262696,0.0201079101,4.5193786621,0.7526753744,0.4138895671
1.1330161095,-0.0926616210,-0.0399262696,0.0201079101,3.9090270996,0.5543111166,0.3223368327
1.1355869770,-0.0926616210,-0.0399262696,0.0264555664,3.9090270996,0.5543111166,0.3223368327
1.1383380890,-0.0721538086,-0.0243012696,0.0264555664,4.4430847168,0.3406880697,-0.1201680501
1.1409091949,-0.0721538086,-0.0243012696,0.0264555664,4.4430847168,0.3406880697,-0.1201680501
1.1435980797,-0.0721538086,-0.0243012696,0.0264555664,4.5041198731,0.4169820150,0.0324198405
1.1461751461,-0.0721538086,-0.0223481446,0.0176665039,4.5041198731,0.4169820150,0.0324198405
1.1488859653,-0.0789897460,-0.0223481446,0.0176665039,5.1144714355,0.7221577963,-0.7915547689
1.1514611244,-0.0789897460,-0.0223481446,0.0176665039,5.1144714355,0.7221577963,-0.7915547689
1.1540341377,-0.0789897460,-0.0223481446,0.0176665039,5.1144714355,0.2491353353,-1.3866475423
1.1566061974,-0.0780131836,-0.0101411133,0.0171782227,5.8468933105,0.2491353353,-1.3866475423
1.1592061520,-0.0780131836,-0.0101411133,0.0171782227,5.8468933105,0.2491353353,-1.6002705892
1.1617729664,-0.0780131836,-0.0101411133,0.0171782227,6.2131042481,-0.5290629069,-1.6002705892
1.1643409729,-0.0780131836,-0.0101411133,0.0171782227,6.2131042481,-0.5290629069,-1.9817403157
1.1669070721,-0.0848491210,-0.0199067383,0.0044829101,7.2354431152,-0.6511332194,-1.9817403157
1.1695661545,-0.0848491210,-0.0199067383,0.0044829101,7.2354431152,-0.6511332194,-1.9817403157
1.1721301079,-0.0848491210,-0.0199067383,0.0044829101,8.2730407715,-1.1699320475,-1.7681172689
1.1746950150,-0.0848491210,-0.0199067383,0.0044829101,8.2730407715,-1.1699320475,-1.7681172689
1.1773011684,-0.0936381836,-0.0335786133,0.0152250977,8.3188171387,-1.2462259928,-2.0122578939
1.1798741817,-0.0936381836,-0.0335786133,0.0152250977,8.3188171387,-1.2462259928,-2.0122578939
1.1824409962,-0.0936381836,-0.0335786133,0.0152250977,8.6087341309,-1.6887308756,-1.5239766439
1.1850121021,-0.0936381836,-0.0335786133,0.0152250977,8.6087341309,-1.6887308756,-1.5239766439
1.1877231598,-0.0838725586,-0.0247895508,-0.0033295899,9.0817565918,-1.4903666178,-1.1577657063
1.1903030872,-0.0838725586,-0.0247895508,-0.0033295899,9.0817565918,-1.4903666178,-1.1577657063
1.1928679943,-0.0838725586,-0.0247895508,-0.0033295899,8.2577819824,-1.8718363444,-1.4782002767
1.1954371929,-0.0838725586,-0.0247895508,-0.0033295899,8.2577819824,-1.8718363444,-1.4782002767
1.1982409954,-0.0819194336,-0.0086762696,0.0088774414,7.6474304199,-1.8718363444,-1.3256123860
1.2009110451,-0.0819194336,-0.0086762696,0.0088774414,7.6474304199,-1.8718363444,-1.3256123860
1.2042331696,-0.0819194336,-0.0086762696,0.0088774414,7.7084655762,-2.3753763834,-1.1425069173
1.2069129944,-0.0760600586,0.0015776367,0.0171782227,7.7084655762,-2.3753763834,-1.1425069173
1.2095520496,-0.0760600586,0.0015776367,0.0171782227,8.0899353027,-2.0396830240,-1.0356953939
1.2121300697,-0.0760600586,0.0015776367,0.0171782227,8.0899353027,-2.0396830240,-1.0356953939
1.2147011757,-0.0760600586,0.0015776367,0.0171782227,7.5711364746,-1.6582132975,-1.2340596517
1.2173030376,-0.0687358398,-0.0116059570,0.0328032227,7.5711364746,-1.6582132975,-1.2340596517
1.2198781967,-0.0687358398,-0.0116059570,0.0328032227,7.4948425293,-1.4140726725,-0.7610371907
1.2224500179,-0.0687358398,-0.0116059570,0.0328032227,7.4948425293,-1.4140726725,-0.7610371907
1.2250201702,-0.0687358398,-0.0116059570,0.0328032227,7.4795837402,-0.8952738444,-0.2117207845
1.2276420593,-0.0672709960,0.0006010742,0.0401274414,7.4795837402,-0.8952738444,-0.2117207845
1.2302131653,-0.0672709960,0.0006010742,0.0401274414,7.4795837402,-0.2086283366,-0.2117207845
1.2327890396,-0.0672709960,0.0006010742,0.0401274414,6.8387145996,-0.2086283366,-0.2117207845
1.2353560925,-0.0672709960,0.0006010742,0.0401274414,6.8387145996,-0.2086283366,0.4291483561
1.2379281521,-0.0721538086,-0.0086762696,0.0435454101,6.3809509277,0.8442281088,0.4291483561
1.2405049801,-0.0721538086,-0.0086762696,0.0435454101,6.3809509277,0.8442281088,0.4291483561
1.2430710793,-0.0721538086,-0.0086762696,0.0435454101,6.2588806152,1.4088033041,1.1615702311
1.2456471920,-0.0721538086,-0.0086762696,0.0435454101,6.2588806152,1.4088033041,1.1615702311
1.2483639717,-0.0731303710,-0.0023286133,0.0362211914,5.1755065918,2.5226949056,1.6803690593
1.2509331703,-0.0731303710,-0.0023286133,0.0362211914,5.1755065918,2.5226949056,1.6803690593
1.2535080910,-0.0731303710,-0.0023286133,0.0362211914,4.8703308105,2.7363179525,2.3059794108
1.2560780048,-0.0731303710,-0.0023286133,0.0362211914,4.8703308105,2.7363179525,2.3059794108
1.2587530613,-0.0706889648,-0.0037934570,0.0293852539,5.1144714355,3.0414937338,2.7179667155
1.2613279819,-0.0706889648,-0.0037934570,0.0293852539,5.1144714355,3.0414937338,2.7179667155
1.2638959885,-0.0706889648,-0.0037934570,0.0293852539,4.2904968262,3.4839986166,3.4198710124
1.2664639950,-0.0706889648,-0.0037934570,0.0274321289,4.2904968262,3.4839986166,3.4198710124
1.2692701817,-0.0794780273,0.0001127930,0.0274321289,4.2904968262,3.7281392416,3.5877176921
1.2719690800,-0.0794780273,0.0001127930,0.0274321289,4.2904968262,3.7281392416,3.5877176921
1.2747449875,-0.0794780273,0.0001127930,0.0274321289,3.8327331543,3.9112447103,3.9386698405
1.2778379917,-0.0780131836,-0.0042817383,0.0215727539,3.8327331543,3.9112447103,3.9386698405
1.2805490494,-0.0780131836,-0.0042817383,0.0215727539,3.5733337402,3.7586568197,4.0759989421
1.2832510471,-0.0780131836,-0.0042817383,0.0215727539,3.5733337402,3.7586568197,4.0759989421
1.2859489918,-0.0780131836,-0.0042817383,0.0215727539,2.6730651855,3.7739156088,4.1522928874
1.2886660099,-0.0716655273,0.0303862304,0.0186430664,2.6730651855,3.7739156088,4.1522928874
1.2913691998,-0.0716655273,0.0303862304,0.0186430664,2.2915954590,3.6213277181,3.8928934733
1.2940700054,-0.0716655273,0.0303862304,0.0186430664,2.2915954590,3.6213277181,3.8928934733
1.2967779636,-0.0716655273,0.0303862304,0.0249907227,2.6272888184,3.6213277181,3.2367655437
1.2994899750,-0.0579936523,0.0474760742,0.0249907227,2.6272888184,3.6213277181,3.2367655437
1.3021969795,-0.0579936523,0.0474760742,0.0249907227,2.7798767090,3.5602925619,2.5958964030
1.3048961163,-0.0579936523,0.0474760742,0.0249907227,2.7798767090,3.5602925619,2.5958964030
1.3076231480,-0.0579936523,0.0464995117,0.0196196289,2.8409118652,3.3161519369,1.7566630046
1.3101921082,-0.0594584960,0.0464995117,0.0196196289,2.8409118652,3.3161519369,1.7566630046
1.3127591610,-0.0594584960,0.0464995117,0.0196196289,3.0392761231,2.9194234213,0.9632059733
1.3153250217,-0.0594584960,0.0464995117,0.0196196289,3.0392761231,2.9194234213,0.9632059733
1.3179121017,-0.0643413086,0.0601713867,0.0220610351,3.6954040527,2.8889058431,-0.1506856282
1.3204870224,-0.0643413086,0.0601713867,0.0220610351,3.6954040527,2.8889058431,-0.1506856282
1.3230621815,-0.0643413086,0.0601713867,0.0220610351,4.5804138184,3.1177876791,-0.9899190267
1.3256311417,-0.0643413086,0.0601713867,0.0220610351,4.5804138184,3.1177876791,-0.9899190267
1.3283519745,-0.0658061523,0.0455229492,0.0074125977,4.5804138184,3.1940816244,-1.4782002767
1.3309290409,-0.0658061523,0.0455229492,0.0074125977,4.4430847168,3.1940816244,-1.4782002767
1.3336081505,-0.0658061523,0.0455229492,0.0074125977,4.4430847168,3.6213277181,-1.2645772298
1.3361721039,-0.0658061523,0.0455229492,0.0074125977,3.4665222168,3.6213277181,-1.2645772298
1.3389811516,-0.0594584960,0.0357573242,0.0201079101,3.4665222168,4.1706441244,-1.5697530110
1.3416800499,-0.0594584960,0.0357573242,0.0201079101,2.7798767090,4.1706441244,-1.5697530110
1.3443830013,-0.0594584960,0.0357573242,0.0201079101,2.7798767090,5.0098775228,-1.6613057454
1.3470900059,-0.0594584960,0.0357573242,0.0201079101,2.6883239746,5.0098775228,-1.6613057454
1.3497960567,-0.0579936523,0.0474760742,0.0303618164,2.6883239746,4.8267720541,-1.8901875813
1.3525049686,-0.0579936523,0.0474760742,0.0303618164,2.7188415527,4.8267720541,-1.8901875813
1.3552031517,-0.0579936523,0.0474760742,0.0303618164,2.7188415527,4.8267720541,-2.3174336751
1.3578741550,-0.0579936523,0.0479643554,0.0337797851,3.1155700684,4.9488423666,-2.3174336751
1.3604490757,-0.0604350586,0.0479643554,0.0337797851,3.1155700684,4.9488423666,-2.5157979329
1.3630180359,-0.0604350586,0.0479643554,0.0337797851,3.2834167481,4.7504781088,-2.5157979329
1.3655860424,-0.0604350586,0.0479643554,0.0337797851,3.2834167481,4.7504781088,-2.5157979329
1.3682780266,-0.0604350586,0.0445463867,0.0362211914,3.4512634277,5.0861714681,-2.6531270345
1.3709831238,-0.0658061523,0.0445463867,0.0362211914,3.4512634277,5.0861714681,-2.6531270345
1.3736820221,-0.0658061523,0.0445463867,0.0362211914,4.0768737793,5.0403951010,-2.5768330892
1.3763849735,-0.0658061523,0.0445463867,0.0362211914,4.0768737793,5.0403951010,-2.5768330892
1.3790991306,-0.0741069336,0.0372221680,0.0318266601,3.9242858887,5.1929829916,-2.2106221517
1.3818070889,-0.0741069336,0.0372221680,0.0318266601,3.9242858887,5.1929829916,-2.2106221517
1.3845081329,-0.0741069336,0.0372221680,0.0318266601,4.1684265137,5.3608296713,-1.7986348470
1.3872511387,-0.0741069336,0.0372221680,0.0318266601,4.1684265137,5.3608296713,2.1076151530
1.3899550438,-0.0687358398,0.0455229492,0.0220610351,4.5041198731,4.8725484213,-1.4934590657
1.3926541805,-0.0687358398,0.0455229492,0.0220610351,4.5041198731,4.8725484213,-1.4934590657
1.3954141140,-0.0687358398,0.0455229492,0.0220610351,4.3973083496,4.6894429525,-1.2340596517
1.3983731270,-0.0687358398,0.0421049804,0.0264555664,4.3973083496,4.6894429525,-0.9746602376
1.4009621143,-0.0692241210,0.0421049804,0.0264555664,5.0076599121,4.7962544760,-0.9746602376
1.4035310745,-0.0692241210,0.0421049804,0.0264555664,5.0076599121,4.7962544760,-0.9746602376
1.4061000347,-0.0692241210,0.0421049804,0.0264555664,5.1755065918,5.1777242025,-0.4406026204
1.4087700844,-0.0736186523,0.0396635742,0.0230375977,5.1755065918,5.1777242025,-0.4406026204
1.4114720821,-0.0736186523,0.0396635742,0.0230375977,4.9618835449,5.9254048666,-0.0286153157
1.4141681194,-0.0736186523,0.0396635742,0.0230375977,4.9618835449,5.9254048666,-0.0286153157
1.4168751240,-0.0736186523,0.0396635742,0.0230375977,4.7940368652,6.0169576010,0.0629374187
1.4195740223,-0.0677592773,0.0518706054,0.0362211914,4.7940368652,6.0169576010,0.0629374187
1.4222781658,-0.0677592773,0.0518706054,0.0362211914,5.0686950684,6.0474751791,0.3681131999
1.4249801636,-0.0677592773,0.0518706054,0.0362211914,5.0686950684,6.0474751791,0.3681131999
1.4276630878,-0.0677592773,0.0518706054,0.0362211914,5.0381774902,6.0169576010,0.5817362468
1.4302380085,-0.0648295898,0.0650541992,0.0381743164,5.0381774902,6.0169576010,0.5817362468
1.4328031540,-0.0648295898,0.0650541992,0.0381743164,5.7248229981,5.9254048666,0.2765604655
1.4353699684,-0.0648295898,0.0650541992,0.0381743164,5.7248229981,5.9254048666,0.2765604655
1.4379510880,-0.0648295898,0.0650541992,0.0381743164,6.3351745605,6.2610982260,0.3375956218
1.4405171871,-0.0609233398,0.0704252930,0.0288969727,6.3351745605,6.2610982260,0.3375956218
1.4430921078,-0.0609233398,0.0704252930,0.0288969727,6.6403503418,6.4442036947,0.2613016765
1.4456591606,-0.0609233398,0.0704252930,0.0288969727,6.6403503418,6.4442036947,0.2613016765
1.4483551979,-0.0609233398,0.0704252930,0.0332915039,7.3422546387,6.5357564291,0.1697489421
1.4509341717,-0.0599467773,0.0801909180,0.0332915039,7.3422546387,6.5357564291,0.1697489421
1.4535090923,-0.0599467773,0.0801909180,0.0332915039,7.3422546387,6.5815327963,0.2002665202
1.4560811520,-0.0599467773,0.0801909180,0.0332915039,8.1967468262,6.5815327963,0.2002665202
1.4588351250,-0.0599467773,0.0826323242,0.0259672851,8.1967468262,6.7341206869,-0.1354268392
1.4616510868,-0.0511577148,0.0826323242,0.0259672851,8.4408874512,6.7341206869,-0.1354268392
1.4643590450,-0.0511577148,0.0826323242,0.0259672851,8.4408874512,6.9324849447,-0.3490498860
1.4670741558,-0.0511577148,0.0826323242,0.0259672851,8.8833923340,6.9324849447,-0.3490498860
1.4697811604,-0.0614116210,0.0762846680,0.0191313477,12.7896423340,7.2071431478,0.5054423015
1.4724960327,-0.0614116210,0.0762846680,0.0191313477,9.0664978027,7.2071431478,0.5054423015
1.4752061367,-0.0614116210,0.0762846680,0.0191313477,9.0664978027,7.3444722494,0.4596659343
1.4779171944,-0.0614116210,0.0762846680,0.0191313477,9.4021911621,7.3444722494,0.4596659343
1.4806220531,-0.0667827148,0.0670073242,0.0118071289,9.4021911621,7.6343892416,0.7038065593
1.4833240509,-0.0667827148,0.0670073242,0.0118071289,9.9667663574,7.6343892416,0.7038065593
1.4860379696,-0.0667827148,0.0670073242,0.0118071289,9.9667663574,7.6801656088,1.0852762858
1.4887540340,-0.0667827148,0.0670073242,0.0288969727,9.8752136231,7.6801656088,1.0852762858
1.4914591312,-0.0745952148,0.0670073242,0.0288969727,9.8752136231,7.8022359213,1.6651102702
1.4941701889,-0.0745952148,0.0670073242,0.0288969727,9.3716735840,7.8022359213,1.6651102702
1.4967989922,-0.0745952148,0.0670073242,0.0288969727,9.3716735840,7.5886128744,2.3364969890
1.4996101856,-0.0662944336,0.0679838867,0.0401274414,8.9596862793,7.5886128744,2.3364969890
1.5028421879,-0.0662944336,0.0679838867,0.0401274414,9.3258972168,7.6649068197,2.8858133952
1.5054111481,-0.0662944336,0.0679838867,0.0401274414,9.3258972168,7.6649068197,2.8858133952
1.5080580711,-0.0662944336,0.0679838867,0.0401274414,9.8599548340,7.5275777181,3.3435770671
1.5106291771,-0.0589702148,0.0801909180,0.0337797851,9.8599548340,7.5275777181,3.3435770671
1.5131959915,-0.0589702148,0.0801909180,0.0337797851,9.8599548340,7.5123189291,3.7860819499
1.5157721043,-0.0589702148,0.0801909180,0.0337797851,9.6768493652,7.5123189291,3.7860819499
1.5183951855,-0.0589702148,0.0801909180,0.0337797851,9.6768493652,7.5123189291,3.5724589030
1.5209670067,-0.0594584960,0.0753081054,0.0196196289,10.4092712402,7.4970601400,3.5724589030
1.5235381126,-0.0594584960,0.0753081054,0.0196196289,10.4092712402,7.4970601400,3.5724589030
1.5262110233,-0.0594584960,0.0753081054,0.0196196289,10.8670349121,8.0158589681,3.3588358561
1.5288240910,-0.0594584960,0.0753081054,0.0196196289,10.8670349121,8.0158589681,3.3588358561
1.5313990116,-0.0570170898,0.0850737304,0.0196196289,11.2332458496,7.8327534994,3.2367655437
1.5339691639,-0.0570170898,0.0850737304,0.0196196289,11.2332458496,7.8327534994,3.2367655437
1.5365431309,-0.0570170898,0.0850737304,0.0196196289,10.8517761231,7.6191304525,3.3130594890
1.5391590595,-0.0570170898,0.0850737304,0.0196196289,10.8517761231,7.6191304525,3.3130594890
1.5417311192,-0.0658061523,0.0958159180,0.0196196289,11.0501403809,7.1766255697,3.5419413249
1.5443010330,-0.0658061523,0.0958159180,0.0196196289,11.0501403809,7.1766255697,3.5419413249
1.5468699932,-0.0658061523,0.0958159180,0.0196196289,11.9504089355,7.1918843588,3.6334940593
1.5495231152,-0.0658061523,0.0958159180,0.0210844727,11.9504089355,7.1918843588,3.6334940593
1.5520970821,-0.0579936523,0.1050932617,0.0210844727,12.2098083496,7.2376607260,2.9926249187
1.5546720028,-0.0579936523,0.1050932617,0.0210844727,12.2098083496,7.2376607260,2.9926249187
1.5573999882,-0.0579936523,0.1050932617,0.0210844727,12.4081726074,7.3597310384,3.0231424968
1.5601069927,-0.0560405273,0.1055815430,0.0088774414,12.4081726074,7.3597310384,3.0231424968
1.5628070831,-0.0560405273,0.1055815430,0.0088774414,13.0032653809,7.2376607260,4.2591044108
1.5655121803,-0.0560405273,0.1055815430,0.0088774414,13.0032653809,7.2376607260,4.2591044108
1.5682771206,-0.0560405273,0.1055815430,0.0088774414,13.5983581543,7.4055074056,5.0678202311
1.5709931850,-0.0614116210,0.0992338867,0.0171782227,13.5983581543,7.4055074056,5.0678202311
1.5737020969,-0.0614116210,0.0992338867,0.0171782227,14.4375915527,7.2986958822,3.9997049968
1.5764071941,-0.0614116210,0.0992338867,0.0171782227,14.4375915527,7.2986958822,3.9997049968
1.5791239738,-0.0614116210,0.0992338867,0.0171782227,14.5138854981,7.2224019369,3.6640116374
1.5818290710,-0.0653178710,0.1050932617,0.0249907227,14.5138854981,7.2224019369,3.6640116374
1.5845351219,-0.0653178710,0.1050932617,0.0249907227,14.8038024902,7.3292134603,3.5266825358
1.5872809887,-0.0653178710,0.1050932617,0.0249907227,14.8038024902,7.3292134603,3.5266825358
1.5900959969,-0.0653178710,0.1124174804,-0.0008881836,15.0326843262,7.4207661947,3.2672831218
1.5928041935,-0.0711772460,0.1124174804,-0.0008881836,15.0326843262,7.4207661947,3.2672831218
1.5955140591,-0.0711772460,0.1124174804,-0.0008881836,15.0784606934,7.1461079916,3.2062479655
1.5983810425,-0.0711772460,0.1124174804,-0.0008881836,15.0784606934,7.1461079916,3.2062479655
1.6009621620,-0.0643413086,0.1314604492,0.0083891601,16.4517517090,6.8714497884,3.8623758952
1.6039910316,-0.0643413086,0.1314604492,0.0083891601,16.4517517090,6.8714497884,3.8623758952
1.6065840721,-0.0643413086,0.1314604492,0.0083891601,17.8250427246,6.3526509603,4.3811747233
1.6092250347,-0.0643413086,0.1314604492,0.0083891601,17.8250427246,6.3526509603,4.3811747233
1.6117961407,-0.0584819336,0.1324370117,0.0049711914,18.8778991699,5.8643697103,4.0454813640
1.6143682003,-0.0584819336,0.1324370117,0.0049711914,18.8778991699,5.8643697103,4.0454813640
1.6169791222,-0.0584819336,0.1324370117,0.0049711914,20.3580017090,5.9406636556,4.8236796061
1.6195499897,-0.0584819336,0.1324370117,0.0049711914,20.3580017090,5.9406636556,4.8236796061
1.6221179962,-0.0794780273,0.1236479492,-0.0126069336,20.3580017090,6.4136861166,5.8002421061
1.6246831417,-0.0794780273,0.1236479492,-0.0126069336,20.9225769043,6.4136861166,5.8002421061
1.6273009777,-0.0794780273,0.1236479492,-0.0126069336,20.9225769043,6.4136861166,6.6089579265
1.6298670769,-0.0794780273,0.1236479492,-0.0243256836,19.9612731934,6.7036031088,6.6089579265
1.6324341297,-0.0897319336,0.1099760742,-0.0243256836,19.9612731934,6.7036031088,7.8906962077
1.6350121498,-0.0897319336,0.1099760742,-0.0243256836,19.6560974121,7.2834370931,7.8906962077
1.6376280785,-0.0897319336,0.1099760742,-0.0243256836,19.6560974121,7.2834370931,7.8906962077
1.6402029991,-0.0897319336,0.1099760742,-0.0038178711,18.7253112793,7.7106831869,9.3250223796
1.6427750587,-0.0970561523,0.1031401367,-0.0038178711,18.7253112793,7.7106831869,9.3250223796
1.6453449726,-0.0970561523,0.1031401367,-0.0038178711,18.4659118652,7.5886128744,9.8133036296
1.6479880810,-0.0970561523,0.1031401367,-0.0038178711,18.4659118652,7.5886128744,9.8133036296
1.6505670547,-0.0970561523,0.1207182617,0.0079008789,18.9389343262,7.7259419760,10.2863260905
1.6532530785,-0.0799663086,0.1207182617,0.0079008789,18.9389343262,7.7259419760,10.2863260905
1.6558301449,-0.0799663086,0.1207182617,0.0079008789,19.3814392090,8.0006001791,10.4999491374
1.6586141586,-0.0799663086,0.1207182617,0.0079008789,19.3814392090,8.0006001791,10.4999491374
1.6613221169,-0.0721538086,0.1353666992,0.0059477539,20.4648132324,7.8785298666,11.8579813640
1.6640310287,-0.0721538086,0.1353666992,0.0059477539,20.4648132324,7.8785298666,11.8579813640
1.6667339802,-0.0721538086,0.1353666992,0.0059477539,20.5105895996,7.6649068197,13.2312723796
1.6694850922,-0.0721538086,0.1353666992,0.0059477539,20.5105895996,7.6649068197,13.2312723796
1.6721920967,-0.0848491210,0.1353666992,0.0088774414,20.7242126465,8.1837056478,14.3604227702
1.6748971939,-0.0848491210,0.1353666992,0.0088774414,20.7242126465,8.1837056478,14.3604227702
1.6776511669,-0.0848491210,0.1353666992,0.0088774414,22.4789733887,8.7330220541,14.2383524577
1.6803531647,-0.0848491210,0.1353666992,0.0054594727,22.4789733887,8.7330220541,14.2383524577
1.6830661297,-0.0843608398,0.1334135742,0.0054594727,23.6844177246,8.9161275228,15.1386210124
1.6857671738,-0.0843608398,0.1334135742,0.0054594727,23.6844177246,8.9161275228,15.1386210124
1.6884841919,-0.0843608398,0.1334135742,0.0054594727,24.5846862793,9.6790669760,16.2067362468
1.6911911964,-0.0843608398,0.1348784180,0.0083891601,24.5846862793,9.6790669760,16.2067362468
1.6938960552,-0.0897319336,0.1348784180,0.0083891601,24.7372741699,10.8082173666,17.0612284343
1.6966021061,-0.0897319336,0.1348784180,0.0083891601,24.7372741699,10.8082173666,17.0612284343
1.6992130280,-0.0897319336,0.1348784180,0.0083891601,24.0658874512,11.8610738119,18.6481424968
1.7017819881,-0.1180522460,0.1168120117,0.0064360351,24.0658874512,11.8610738119,18.6481424968
1.7043631077,-0.1180522460,0.1168120117,0.0064360351,23.6539001465,13.4937642416,19.8688456218
1.7069690228,-0.1180522460,0.1168120117,0.0064360351,23.6539001465,13.4937642416,19.8688456218
1.7095429897,-0.1180522460,0.1168120117,0.0064360351,22.7231140137,14.5161031088,21.0895487468
1.7121219635,-0.1395366210,0.1124174804,0.0249907227,22.7231140137,14.5161031088,21.0895487468
1.7148649693,-0.1395366210,0.1124174804,0.0249907227,22.7231140137,15.7215474447,23.1037089030
1.7179911137,-0.1395366210,0.1124174804,0.0249907227,21.6244812012,15.7215474447,23.1037089030
1.7207000256,-0.1395366210,0.1124174804,0.0298735351,20.5563659668,16.6370747884,24.8584696452
1.7233979702,-0.1624858398,0.1173002930,0.0298735351,20.5563659668,16.6370747884,24.8584696452
1.7261111736,-0.1624858398,0.1173002930,0.0298735351,20.3274841309,16.7896626791,26.9031473796
1.7288670540,-0.1624858398,0.1173002930,0.0298735351,20.3274841309,16.7896626791,26.9031473796
1.7315790653,-0.1624858398,0.1236479492,0.0367094727,21.4566345215,16.6523335775,29.1156717937
1.7342820168,-0.1654155273,0.1236479492,0.0367094727,21.4566345215,16.6523335775,29.1156717937
1.7369930744,-0.1654155273,0.1236479492,0.0367094727,22.4789733887,16.4539693197,31.3434549968
1.7397031784,-0.1654155273,0.1236479492,0.0367094727,22.4789733887,16.4539693197,31.3434549968
1.7424130440,-0.1702983398,0.1168120117,0.0376860351,22.6315612793,15.4316304525,32.7320048015
1.7451231480,-0.1702983398,0.1168120117,0.0376860351,22.6315612793,15.4316304525,32.7320048015
1.7478380203,-0.1702983398,0.1168120117,0.0376860351,23.1351013184,14.7907613119,34.4409891765
1.7504119873,-0.1702983398,0.1168120117,0.0376860351,23.1351013184,14.7907613119,34.4409891765
1.7529850006,-0.1903178710,0.1197416992,0.0088774414,23.9895935059,14.7907613119,36.3330790202
1.7555589676,-0.1903178710,0.1197416992,0.0088774414,23.9895935059,14.7907613119,36.3330790202
1.7581391335,-0.1903178710,0.1197416992,0.0088774414,23.9895935059,14.0735982260,38.4387919108
1.7607190609,-0.1903178710,0.1197416992,0.0088774414,23.9132995605,14.0735982260,38.4387919108
1.7632911205,-0.2069194336,0.1226713867,-0.0091889649,23.9132995605,14.0735982260,40.8801981608
1.7658660412,-0.2069194336,0.1226713867,-0.0091889649,24.6914978027,13.6158345541,40.8801981608
1.7685890198,-0.2069194336,0.1226713867,-0.0091889649,24.6914978027,13.6158345541,42.6959940593
1.7711660862,-0.2069194336,0.1226713867,-0.0091889649,24.9203796387,12.6850484213,42.6959940593
1.7737431526,-0.2367045898,0.1021635742,-0.0043061523,24.9203796387,12.6850484213,42.6959940593
1.7763180733,-0.2367045898,0.1021635742,-0.0043061523,25.1645202637,11.2659810384,44.4965311687
1.7790181637,-0.2367045898,0.1021635742,-0.0043061523,25.1645202637,11.2659810384,44.4965311687
1.7817280293,-0.2367045898,0.1021635742,-0.0072358399,26.0495300293,9.7401021322,46.7395731608
1.7845411301,-0.2557475586,0.0982573242,-0.0072358399,26.0495300293,9.7401021322,46.7395731608
1.7872531414,-0.2557475586,0.0982573242,-0.0072358399,26.3089294434,8.5193990072,49.1046854655
1.7898311615,-0.2557475586,0.0982573242,-0.0072358399,26.3089294434,8.5193990072,49.1046854655
1.7924020290,-0.2684428710,0.1280424804,-0.0233491211,26.5683288574,7.2834370931,51.3324686687
1.7949800491,-0.2684428710,0.1280424804,-0.0233491211,26.5683288574,7.2834370931,51.3324686687
1.7975599766,-0.2684428710,0.1280424804,-0.0233491211,27.5448913574,6.4442036947,53.2092997233
1.8001301289,-0.2684428710,0.1280424804,-0.0233491211,27.5448913574,6.4442036947,53.2092997233
1.8028609753,-0.2816264648,0.1295073242,-0.0316499023,29.1318054199,5.4066060384,54.6894022624
1.8054289818,-0.2816264648,0.1295073242,-0.0316499023,29.1318054199,5.4066060384,54.6894022624
1.8082041740,-0.2816264648,0.1295073242,-0.0316499023,30.4898376465,3.6671040853,56.0169169108
1.8107771873,-0.2816264648,0.1295073242,-0.0316499023,30.4898376465,3.6671040853,56.0169169108
1.8137021065,-0.2728374023,0.1299956054,-0.0155366211,32.2751159668,1.0425923666,57.4359842937
1.8162891865,-0.2728374023,0.1299956054,-0.0155366211,32.2751159668,1.0425923666,57.4359842937
1.8188731670,-0.2728374023,0.1299956054,-0.0155366211,35.6778259277,-0.8037211100,58.1836649577
1.8214421272,-0.2728374023,0.1299956054,-0.0155366211,35.6778259277,-0.8037211100,58.1836649577
1.8240191936,-0.2948100586,0.1260893554,0.0176665039,39.3399353027,-2.9094340006,58.1378885905
1.8265900612,-0.2948100586,0.1260893554,0.0176665039,39.3399353027,-2.9094340006,58.1378885905
1.8292050362,-0.2948100586,0.1260893554,0.0176665039,42.6816101074,-4.8473002116,57.4817606608
1.8317770958,-0.2948100586,0.1260893554,0.0176665039,42.6816101074,-4.8473002116,57.4817606608
1.8343451023,-0.3236186523,0.1114409180,0.0132719727,42.6816101074,-6.8156840006,57.5122782390
1.8370230198,-0.3236186523,0.1114409180,0.0132719727,46.4505310059,-6.8156840006,57.5122782390
1.8395950794,-0.3236186523,0.1114409180,0.0132719727,46.4505310059,-10.7219340006,58.1378885905
1.8421671391,-0.3236186523,0.1114409180,0.0318266601,49.0750427246,-8.9366556803,58.1378885905
1.8447439671,-0.3314311523,0.1089995117,0.0318266601,49.0750427246,-8.9366556803,57.7564188640
1.8475670815,-0.3314311523,0.1089995117,0.0318266601,50.9060974121,-10.5846048990,57.7564188640
1.8501441479,-0.3314311523,0.1089995117,0.0318266601,50.9060974121,-10.5846048990,57.5427958171
1.8527221680,-0.3314311523,0.1070463867,0.0411040039,53.8663024902,-11.4848734537,57.5427958171
1.8552889824,-0.3016459960,0.1070463867,0.0411040039,53.8663024902,-11.4848734537,53.6365458171
1.8579909801,-0.3016459960,0.1070463867,0.0411040039,51.5622253418,-13.2396341959,55.7117411296
1.8605690002,-0.3016459960,0.1070463867,0.0411040039,51.5622253418,-13.2396341959,55.7117411296
1.8631420135,-0.3006694336,0.0528471680,0.0879790039,47.9001159668,-13.4990336100,52.9041239421
1.8657150269,-0.3006694336,0.0528471680,0.0879790039,47.9001159668,-13.4990336100,52.9041239421
1.8685421944,-0.3006694336,0.0528471680,0.0879790039,44.7873229981,-13.0260111490,50.8594462077
1.8712391853,-0.3006694336,0.0528471680,0.0879790039,44.7873229981,-13.0260111490,50.8594462077
1.8739349842,-0.2620952148,0.0640776367,0.0996977539,44.3295593262,-11.1034037272,50.5695292155
1.8766222000,-0.2620952148,0.0640776367,0.0996977539,44.3295593262,-11.1034037272,50.5695292155
1.8794281483,-0.2620952148,0.0640776367,0.0996977539,46.0232849121,-10.1878763834,52.6752421061
1.8821201324,-0.2620952148,0.0640776367,0.0996977539,46.0232849121,-10.1878763834,52.6752421061
1.8848140240,-0.1756694336,0.1509916992,0.1480375977,47.9916687012,-8.5704447428,56.4136454265
1.8875200748,-0.1756694336,0.1509916992,0.1480375977,47.9916687012,-8.5704447428,56.4136454265
1.8903021812,-0.1756694336,0.1509916992,0.1480375977,51.8826599121,-7.2124125162,59.0839335124
1.8929960728,-0.1756694336,0.1602690430,0.1602446289,51.8826599121,-7.2124125162,59.0839335124
1.8956911564,-0.1214702148,0.1602690430,0.1602446289,57.5436706543,-6.1137797037,58.9466044108
1.8984601498,-0.1214702148,0.1602690430,0.1602446289,57.5436706543,-6.1137797037,58.9466044108
1.9011580944,-0.1214702148,0.1602690430,0.1602446289,63.9981384277,-7.4412943522,58.7329813640
1.9038519859,-0.0667827148,0.2618315430,0.2110258789,63.9981384277,-7.4412943522,58.7329813640
1.9065480232,-0.0667827148,0.2618315430,0.2110258789,69.8422546387,-9.8369242350,60.1978251140
1.9092741013,-0.0667827148,0.2618315430,0.2110258789,69.8422546387,-9.8369242350,60.1978251140
1.9120721817,-0.0667827148,0.2618315430,0.2110258789,74.3588562012,-11.2865091959,61.3880106608
1.9147629738,-0.0101420898,0.2867338867,0.2491118164,74.3588562012,-11.2865091959,61.3880106608
1.9174680710,-0.0101420898,0.2867338867,0.2491118164,79.4247741699,-13.1633402506,61.6931864421
1.9201781750,-0.0101420898,0.2867338867,0.2491118164,79.4247741699,-13.1633402506,61.6931864421
1.9228889942,-0.0101420898,0.1617338867,0.2603422851,81.7135925293,-14.6281840006,58.7482401530
1.9256491661,0.0377094727,0.0943510742,0.2603422851,81.7135925293,-14.6281840006,58.7482401530
1.9286851883,0.0377094727,0.0943510742,0.2603422851,85.7266540527,-15.8794047037,51.3782450358
1.9313981533,0.0377094727,0.0943510742,0.2603422851,85.7266540527,-15.8794047037,51.3782450358
1.9341089725,0.0860493164,-0.1483247070,0.2212797851,93.6154479981,-17.3595072428,42.7417704265
1.9368190765,0.0860493164,-0.1483247070,0.2212797851,93.6154479981,-17.3595072428,42.7417704265
1.9395351410,0.0860493164,-0.1483247070,0.2212797851,101.0769958496,-17.7409769694,33.2355448405
1.9422411919,0.0860493164,-0.1483247070,0.2212797851,101.0769958496,-17.7409769694,33.2355448405
1.9449460506,0.1495258790,-0.2733247070,0.1446196289,106.3107604981,-19.0990091959,23.8208719890
1.9476711750,0.1495258790,-0.2733247070,0.1446196289,106.3107604981,-19.0990091959,23.8208719890
1.9503791332,0.1495258790,-0.2733247070,0.1446196289,110.9494323731,-22.8679300944,16.6034647624
1.9530839920,0.1495258790,-0.2733247070,0.1045805664,110.9494323731,-22.8679300944,16.6034647624
1.9557940960,0.1573383790,-0.1912934570,0.1045805664,114.9167175293,-25.0957132975,11.4765116374
1.9584469795,0.1573383790,-0.1912934570,0.1045805664,114.9167175293,-25.0957132975,11.4765116374
1.9610240459,0.1573383790,-0.1912934570,0.1045805664,117.8616638184,-24.5311381022,4.2896219890
1.9636011124,0.1573383790,-0.3221528320,0.0323149414,117.8616638184,-24.5311381022,4.2896219890
1.9661769867,0.1524555664,-0.3221528320,0.0323149414,121.5390319824,-23.6461283366,-6.4525655110
1.9688220024,0.1524555664,-0.3221528320,0.0323149414,121.5390319824,-23.6461283366,-6.4525655110
1.9714009762,0.1524555664,-0.3221528320,0.0323149414,122.4850769043,-22.8221537272,-16.6912129720
1.9739739895,0.1524555664,-0.3743989258,-0.0287202149,122.4850769043,-22.8221537272,-16.6912129720
1.9766600132,0.1817524414,-0.3743989258,-0.0287202149,119.8300476074,-22.6543070475,-25.0988057454
1.9793550968,0.1817524414,-0.3743989258,-0.0287202149,119.8300476074,-22.6543070475,-25.0988057454
1.9819321632,0.1817524414,-0.3743989258,-0.0287202149,113.1466979981,-23.2646586100,-31.8889668782
1.9845111370,0.1588032227,-0.3294770508,-0.0829194336,113.1466979981,-23.2646586100,-31.8889668782
1.9871411324,0.1588032227,-0.3294770508,-0.0829194336,103.2590026855,-23.6766459147,-37.3668721517
1.9898631573,0.1588032227,-0.3294770508,-0.0829194336,103.2590026855,-23.6766459147,-37.3668721517
1.9925761223,0.1588032227,-0.3294770508,-0.0829194336,94.1495056152,-23.6919047037,-42.7990010579
1.9952831268,0.1617329102,-0.2650239258,-0.1083100586,94.1495056152,-23.6919047037,-42.7990010579
1.9979920387,0.1617329102,-0.2650239258,-0.1083100586,85.7113952637,-23.3104349772,-49.1008809407
2.0006990433,0.1617329102,-0.2650239258,-0.1083100586,85.7113952637,-23.3104349772,-49.1008809407
2.0034050941,0.1617329102,-0.2650239258,-0.1190522461,77.0901794434,-23.1425882975,-55.0975850423
2.0061120987,0.1641743164,-0.2249848633,-0.1190522461,77.0901794434,-23.1425882975,-55.0975850423
2.0087740421,0.1641743164,-0.2249848633,-0.1190522461,65.3714294434,-23.7224222819,-61.6436055501
2.0113480091,0.1641743164,-0.2249848633,-0.1190522461,66.7142028809,-23.7224222819,-61.6436055501
2.0139210224,0.1641743164,-0.2249848633,-0.1293061523,66.7142028809,-23.7224222819,-67.5945332845
2.0164961815,0.1631977540,-0.2352387696,-0.1293061523,55.3311462402,-24.1496683756,-67.5945332845
2.0190730095,0.1631977540,-0.2352387696,-0.1293061523,55.3311462402,-24.1496683756,-73.4233907063
2.0216519833,0.1631977540,-0.2352387696,-0.1293061523,42.5290222168,-25.2177836100,-73.4233907063
2.0242280960,0.1631977540,-0.2347504883,-0.1273530273,42.5290222168,-25.2177836100,-77.3296407063
2.0268051624,0.1441547852,-0.2347504883,-0.1273530273,28.1247253418,-26.2858988444,-79.6184590657
2.0295131207,0.1441547852,-0.2347504883,-0.1273530273,28.1247253418,-26.2858988444,-87.4309590657
2.0322079659,0.1441547852,-0.2347504883,-0.1273530273,14.0103454590,-26.9420267740,-85.2184346517
2.0348961353,0.1212055664,-0.2122895508,-0.1200288086,14.0103454590,-26.9420267740,-85.2184346517
2.0375931263,0.1212055664,-0.2122895508,-0.1200288086,1.2539978027,-27.0640970866,-90.1012471517
2.0403661728,0.1212055664,-0.2122895508,-0.1200288086,1.2539978027,-27.0640970866,-90.1012471517
2.0430750847,0.1212055664,-0.2122895508,-0.1200288086,-10.8004455566,-26.8352152506,-94.9077657063
2.0458920002,0.0914204102,-0.1795747070,-0.1102631836,-10.8004455566,-26.8352152506,-102.7202657063
2.0485870838,0.0914204102,-0.1795747070,-0.1102631836,-22.2597961426,-26.4537455240,-99.4548848470
2.0513010025,0.0914204102,-0.1795747070,-0.1102631836,-22.2597961426,-26.4537455240,-99.4548848470
2.0540120602,0.0914204102,-0.1795747070,-0.1112397461,-32.1780090332,-26.2096048990,-103.1169942220
2.0567240715,0.0772602540,-0.1170747070,-0.1112397461,-32.1780090332,-26.2096048990,-103.1169942220
2.0593590736,0.0772602540,-0.1170747070,-0.1112397461,-40.2346496582,-26.0875345866,-106.4586690267
2.0619320869,0.0772602540,-0.1170747070,-0.1112397461,-40.2346496582,-26.0875345866,-106.4586690267
2.0646710396,0.0772602540,-0.0540864258,-0.0912202149,-46.1855773926,-25.9196879069,-109.6630147298
2.0676121712,0.0660297852,-0.0540864258,-0.0912202149,-46.1855773926,-25.9196879069,-113.5692647298
2.0703270435,0.0660297852,-0.0540864258,-0.0912202149,-50.8700256348,-24.9126078287,-113.2030537923
2.0730361938,0.0660297852,-0.0540864258,-0.0912202149,-50.8700256348,-24.9126078287,-117.1093037923
2.0757441521,0.0372211914,-0.0267426758,-0.0843842773,-54.4558410645,-23.6003519694,-116.8651631673
2.0783970356,0.0372211914,-0.0267426758,-0.0843842773,-54.4558410645,-23.6003519694,-116.8651631673
2.0809690952,0.0372211914,-0.0267426758,-0.0843842773,-56.8209533691,-22.5932718912,-120.0542500813
2.0835461617,0.0372211914,-0.0267426758,-0.0843842773,-56.8209533691,-22.5932718912,-120.0542500813
2.0861260891,0.0255024414,0.0059721680,-0.0746186523,-58.2552795410,-21.7082621256,-123.3806660970
2.0888040066,0.0255024414,0.0059721680,-0.0746186523,-58.2552795410,-21.7082621256,-123.3806660970
2.0915060043,0.0255024414,0.0059721680,-0.0746186523,-58.4689025879,-20.6096293131,-127.4395039876
2.0942139626,0.0255024414,0.0059721680,-0.0746186523,-58.4689025879,-20.6096293131,-127.4395039876
2.0969631672,0.0093891602,0.0435698242,-0.0755952149,-57.2481994629,-19.1447855631,-130.9948018392
2.0995371342,0.0093891602,0.0435698242,-0.0755952149,-57.2481994629,-19.1447855631,-130.9948018392
2.1021111012,0.0093891602,0.0435698242,-0.0755952149,-55.2035217285,-18.3513285319,-134.7789815267
2.1047990322,0.0093891602,0.1685698242,-0.0594819336,-55.2035217285,-18.3513285319,-134.7789815267
2.1074161530,-0.0081889648,0.0714018554,-0.0594819336,-52.9909973145,-17.5273539225,-138.2427266439
2.1101090908,-0.0081889648,0.0714018554,-0.0594819336,-52.9909973145,-17.5273539225,-138.2427266439
2.1126930714,-0.0081889648,0.0714018554,-0.0594819336,-49.6798400879,-16.4744974772,-141.7217305501
2.1152720451,-0.0081889648,0.0992338867,-0.0502045899,-49.6798400879,-16.4744974772,-141.7217305501
2.1180779934,-0.0345561523,0.0992338867,-0.0502045899,-46.4449768066,-15.2537943522,-144.8955586751
2.1206569672,-0.0345561523,0.0992338867,-0.0502045899,-46.4449768066,-15.2537943522,-144.8955586751
2.1232330799,-0.0345561523,0.0992338867,-0.0502045899,-43.3321838379,-14.6434427897,-147.8099873860
2.1258101463,-0.0526225586,0.1055815430,-0.0379975586,-43.3321838379,-14.6434427897,-147.8099873860
2.1286211014,-0.0526225586,0.1055815430,-0.0379975586,-40.7076721191,-13.9415384928,-151.2737325032
2.1312980652,-0.0526225586,0.1055815430,-0.0379975586,-40.7076721191,-13.9415384928,-151.2737325032
2.1342070103,-0.0526225586,0.1055815430,-0.0379975586,-39.0749816895,-13.2701517740,-153.9135030110
2.1367840767,-0.0677592773,0.0972807617,-0.0492280273,-39.0749816895,-13.2701517740,-153.9135030110
2.1394190788,-0.0677592773,0.0972807617,-0.0492280273,-39.0749816895,-12.3088480631,-156.4312032063
2.1419970989,-0.0677592773,0.0972807617,-0.0492280273,-38.3425598145,-12.3088480631,-156.4312032063
2.1445720196,-0.0677592773,0.0972807617,-0.0492280273,-38.3425598145,-11.3475443522,-158.0638936360
2.1472110748,-0.0911967773,0.0919096680,-0.0458100586,-38.1136779785,-11.3475443522,-158.0638936360
2.1497721672,-0.0911967773,0.0919096680,-0.0458100586,-38.1136779785,-11.3475443522,-159.7271016439
2.1523420811,-0.0911967773,0.0919096680,-0.0458100586,-39.2275695801,-10.4167582194,-159.7271016439
2.1549170017,-0.0911967773,0.0919096680,-0.0570405273,-39.2275695801,-10.4167582194,-159.7271016439
2.1574959755,-0.1009624023,0.0718901367,-0.0570405273,-41.8215637207,-9.5775248209,-161.5123799642
2.1600620747,-0.1009624023,0.0718901367,-0.0570405273,-41.8215637207,-9.5775248209,-161.5123799642
2.1626350880,-0.1009624023,0.0718901367,-0.0570405273,-45.2547912598,-8.7535502116,-162.7330830892
2.1652030945,-0.1009624023,0.0718901367,-0.0511811523,-45.2547912598,-8.7535502116,-162.7330830892
2.1679611206,-0.1165874023,0.0533354492,-0.0511811523,-49.5577697754,-8.0669047037,-164.3505147298
2.1705331802,-0.1165874023,0.0533354492,-0.0511811523,-49.5577697754,-8.0669047037,-164.3505147298
2.1731061935,-0.1165874023,0.0533354492,-0.0511811523,-55.3255920410,-6.9377543131,-166.2883809407
2.1756851673,-0.1165874023,0.0396635742,-0.0462983399,-55.3255920410,-6.9377543131,-166.2883809407
2.1783721447,-0.1429545898,0.0396635742,-0.0462983399,-62.0242004395,-6.0222269694,-167.8447774251
2.1809511185,-0.1429545898,0.0396635742,-0.0462983399,-62.0242004395,-6.0222269694,-167.8447774251
2.1835310459,-0.1429545898,0.0396635742,-0.0462983399,-68.4786682129,-4.9998881022,-168.9586690267
2.1861081123,-0.1458842773,0.0533354492,-0.0531342773,-68.4786682129,-4.9998881022,-168.9586690267
2.1888711452,-0.1458842773,0.0533354492,-0.0531342773,-74.5058898926,-4.9235941569,-170.0267842610
2.1915831566,-0.1458842773,0.0533354492,-0.0531342773,-74.5058898926,-4.9235941569,-170.0267842610
2.1942870617,-0.1458842773,0.0533354492,-0.0531342773,-80.8840637207,-4.0080668131,-172.0562032063
2.1970081329,-0.1629741210,0.0635893554,-0.0257905273,-80.8840637207,-4.0080668131,-172.0562032063
2.1995911598,-0.1629741210,0.0635893554,-0.0257905273,-86.2093811035,-3.0772806803,-173.3074239095
2.2021691799,-0.1629741210,0.0635893554,-0.0257905273,-86.2093811035,-3.0772806803,-173.3074239095
2.2047531605,-0.1629741210,0.0635893554,-0.0257905273,-90.1156311035,-2.2227884928,-174.6807149251
2.2073471546,-0.1815288086,0.0738432617,-0.0126069336,-90.9243469238,-2.2227884928,-174.6807149251
2.2100620270,-0.1815288086,0.0738432617,-0.0126069336,-94.7085266113,-1.7497660319,-176.5422871907
2.2127959728,-0.1815288086,0.0738432617,-0.0126069336,-94.7085266113,-1.7497660319,-176.5422871907
2.2153720856,-0.1815288086,0.0738432617,-0.0126069336,-94.7085266113,-1.1394144694,-177.8545430501
2.2180240154,-0.2215678710,0.0733549804,0.0005766601,-96.2191467285,-1.1394144694,-177.8545430501
2.2206959724,-0.2215678710,0.0733549804,0.0005766601,-96.2191467285,2.7668355306,-179.1210225423
2.2235820293,-0.2215678710,0.0733549804,0.0005766601,-98.7826232910,-0.6816507975,-179.1210225423
2.2261581421,-0.2215678710,0.0484526367,0.0210844727,-98.7826232910,-0.1018168131,-180.4485371907
2.2288060188,-0.2479350586,0.0484526367,0.0210844727,-101.6054992676,-0.1018168131,-180.4485371907
2.2314941883,-0.2479350586,0.0484526367,0.0210844727,-101.6054992676,-0.1018168131,-181.6997578939
2.2340631485,-0.2479350586,0.0484526367,0.0210844727,-104.5657043457,0.2949117025,-181.6997578939
2.2366290092,-0.2723491210,0.0342924804,0.0396391601,-104.5657043457,0.2949117025,-182.4321797689
2.2392029762,-0.2723491210,0.0342924804,0.0396391601,-107.5411682129,1.0425923666,-182.4321797689
2.2417750359,-0.2723491210,0.0342924804,0.0396391601,-107.5411682129,1.0425923666,-182.4321797689
2.2443451881,-0.2723491210,0.0342924804,0.0396391601,-110.5166320801,1.5919087728,-183.0272725423
2.2469179630,-0.2757670898,0.0372221680,0.0567290039,-110.5166320801,1.5919087728,-183.0272725423
2.2495350838,-0.2757670898,0.0372221680,0.0567290039,-113.5073547363,1.9886372884,-183.8359883626
2.2521061897,-0.2757670898,0.0372221680,0.0567290039,-113.5073547363,1.9886372884,-183.8359883626
2.2546761036,-0.2757670898,0.0372221680,0.0567290039,-115.2621154785,2.3090718588,-184.3547871907
2.2572891712,-0.2738139648,0.0298979492,0.0601469727,-115.2621154785,2.3090718588,-184.3547871907
2.2598590851,-0.2738139648,0.0298979492,0.0601469727,-117.0473937988,1.3630269369,-184.4158223470
2.2624261379,-0.2738139648,0.0298979492,0.0601469727,-117.0473937988,1.3630269369,-184.4158223470
2.2649950981,-0.2738139648,0.0298979492,0.0601469727,-118.8326721191,1.1494038900,-185.1177266439
2.2676150799,-0.2830913086,0.0347807617,0.0821196289,-118.8326721191,1.1494038900,-185.1177266439
2.2701921463,-0.2830913086,0.0347807617,0.0821196289,-119.5803527832,1.5766499838,-185.2397969563
2.2727701664,-0.2830913086,0.0347807617,0.0821196289,-119.5803527832,1.5766499838,-185.2397969563
2.2753641605,-0.2830913086,0.0347807617,0.0821196289,-119.5803527832,1.3782857260,-185.0719502767
2.2780101299,-0.2996928710,0.0421049804,0.0806547851,-119.9160461426,1.3782857260,-185.0719502767
2.2807180882,-0.2996928710,0.0421049804,0.0806547851,-119.9160461426,0.9357808431,-185.7128194173
2.2834231853,-0.2996928710,0.0421049804,0.0806547851,-119.1378479004,0.9357808431,-185.7128194173
2.2861301899,-0.2996928710,0.0421049804,0.0772368164,-119.1378479004,1.6682027181,-185.9722188313
2.2888779640,-0.3128764648,0.0460112304,0.0772368164,-117.9476623535,1.6682027181,-185.9722188313
2.2915811539,-0.3128764648,0.0460112304,0.0772368164,-117.9476623535,2.0344136556,-185.9874776204
2.2943971157,-0.3128764648,0.0460112304,0.0772368164,-116.9710998535,2.0344136556,-185.9874776204
2.2971069813,-0.3128764648,0.0484526367,0.0689360351,-116.9710998535,2.7058003744,-186.0179951985
2.2996861935,-0.3231303710,0.0484526367,0.0689360351,-116.3302307129,2.7058003744,-186.0179951985
2.3022651672,-0.3231303710,0.0484526367,0.0689360351,-116.3302307129,6.6120503744,-185.9111836751
2.3048391342,-0.3231303710,0.0484526367,0.0689360351,-114.3160705566,3.7586568197,-185.9111836751
2.3074791431,-0.3285014648,0.0596831054,0.0489165039,-114.3160705566,3.7586568197,-185.4839375813
2.3101890087,-0.3285014648,0.0596831054,0.0489165039,-112.0272521973,4.4758199056,-185.4839375813
2.3128941059,-0.3285014648,0.0596831054,0.0489165039,-112.0272521973,4.4758199056,-184.8583272298
2.3156001568,-0.3285014648,0.0596831054,0.0489165039,-109.7231750488,5.4676411947,-184.8583272298
2.3183190823,-0.3475444336,0.0562651367,0.0708891601,-109.7231750488,5.4676411947,-183.7596944173
2.3210320473,-0.3475444336,0.0562651367,0.0708891601,-107.4038391113,5.6507466634,-183.7596944173
2.3237431049,-0.3475444336,0.0562651367,0.0708891601,-107.4038391113,5.6507466634,-182.6152852376
2.3264491558,-0.3475444336,0.0562651367,0.0708891601,-104.3215637207,5.7117818197,-182.6152852376
2.3291711807,-0.3407084960,0.0914213867,0.0450102539,-104.3215637207,5.7117818197,-181.6997578939
2.3318781853,-0.3407084960,0.0914213867,0.0450102539,-99.5455627441,6.3068745931,-181.6997578939
2.3347029686,-0.3407084960,0.0914213867,0.0450102539,-99.5455627441,6.3068745931,-179.6245625813
2.3378582001,-0.3241069336,0.1006987304,0.0313383789,-92.2213439941,7.2071431478,-179.6245625813
2.3405711651,-0.3241069336,0.1006987304,0.0313383789,-92.2213439941,7.8022359213,-178.0834248860
2.3432819843,-0.3241069336,0.1006987304,0.0313383789,-84.8055725098,7.8022359213,-178.0834248860
2.3459880352,-0.3241069336,0.1006987304,0.0313383789,-84.8055725098,8.1837056478,-176.2523701985
2.3486280441,-0.3241069336,0.0904448242,0.0259672851,-78.5342102051,8.1837056478,-176.2523701985
2.3512029648,-0.3241069336,0.0904448242,0.0259672851,-78.5342102051,8.1837056478,-174.7264912923
2.3537790775,-0.3241069336,0.0904448242,0.0259672851,-71.5304260254,8.7635396322,-174.7264912923
2.3563501835,-0.3241069336,0.0904448242,0.0259672851,-71.5304260254,8.7635396322,-173.1548360189
2.3591830730,-0.3299663086,0.0709135742,0.0264555664,-64.3282775879,9.5569966634,-173.1548360189
2.3618841171,-0.3299663086,0.0709135742,0.0264555664,-64.3282775879,9.5569966634,-171.2627461751
2.3645889759,-0.3299663086,0.0709135742,0.0264555664,-58.1942443848,9.9537251791,-171.2627461751
2.3672940731,-0.3299663086,0.0709135742,0.0249907227,-58.1942443848,9.9537251791,-168.9434102376
2.3698689938,-0.3148295898,0.0674956054,0.0249907227,-52.4111633301,10.5335591634,-168.9434102376
2.3724460602,-0.3148295898,0.0674956054,0.0249907227,-52.4111633301,10.5335591634,-168.9434102376
2.3750221729,-0.3148295898,0.0674956054,0.0249907227,-47.1468811035,11.0065816244,-166.2578633626
2.3776581287,-0.3148295898,0.0777495117,0.0284086914,-47.1468811035,11.0065816244,-166.2578633626
2.3802289963,-0.2689311523,0.0777495117,0.0284086914,-42.1419982910,10.2283833822,-163.4349873860
2.3828041553,-0.2689311523,0.0777495117,0.0284086914,-42.1419982910,10.2283833822,-163.4349873860
2.3853750229,-0.2689311523,0.0777495117,0.0284086914,-36.3436584473,9.5264790853,-160.2153828939
2.3879940510,-0.1439311523,0.1109526367,0.0401274414,-36.3436584473,9.5264790853,-160.2153828939
2.3905651569,-0.2313334960,0.1109526367,0.0401274414,-30.0417785645,8.4431050619,-156.2633565267
2.3931391239,-0.2313334960,0.1109526367,0.0401274414,-30.0417785645,8.4431050619,-156.2633565267
2.3957180977,-0.2313334960,0.1109526367,0.0401274414,-24.7317199707,7.1918843588,-151.6704610189
2.3985011578,-0.1952006836,0.1226713867,0.0562407227,-24.7317199707,7.1918843588,-151.6704610189
2.4011931419,-0.1952006836,0.1226713867,0.0562407227,-19.8641662598,5.6049702963,-148.0541280110
2.4038870335,-0.1952006836,0.1226713867,0.0562407227,-19.8641662598,5.6049702963,-148.0541280110
2.4065761566,-0.1952006836,0.1226713867,0.0562407227,-15.3017883301,3.3924458822,-144.1021016439
2.4092760086,-0.1478374023,0.1251127930,0.0552641601,-15.3017883301,3.3924458822,-144.1021016439
2.4119629860,-0.1478374023,0.1251127930,0.0552641601,-11.6854553223,1.2104390463,-139.7075703939
2.4146499634,-0.1478374023,0.1251127930,0.0552641601,-11.6854553223,1.2104390463,-139.7075703939
2.4176039696,-0.1478374023,0.1251127930,0.0547758789,-7.9775695801,-1.1851908366,-135.1146748860
2.4202680588,-0.1165874023,0.1251127930,0.0547758789,-7.9775695801,-1.1851908366,-135.1146748860
2.4238309860,-0.1165874023,0.1251127930,0.0547758789,-3.8576965332,-3.7181498209,-129.7588399251
2.4265460968,-0.1165874023,0.1251127930,0.0547758789,-3.8576965332,-3.7181498209,-129.7588399251
2.4292759895,-0.1043803710,0.1602690430,0.0332915039,0.5520935059,-6.7546488444,-123.2433369954
2.4319829941,-0.1043803710,0.1602690430,0.0332915039,0.5520935059,-6.7546488444,-123.2433369954
2.4346899986,-0.1043803710,0.1602690430,0.0332915039,6.5945739746,-8.6162211100,-116.9109395345
2.4374020100,-0.1043803710,0.1602690430,0.0332915039,6.5945739746,-8.6162211100,-116.9109395345
2.4401099682,-0.0716655273,0.2437651367,0.0083891601,14.3002624512,-10.6151224772,-110.4412129720
2.4428210258,-0.0716655273,0.2437651367,0.0083891601,14.3002624512,-10.6151224772,-110.4412129720
2.4455280304,-0.0716655273,0.2437651367,0.0083891601,22.8757019043,-12.8581644694,-103.3306172689
2.4482831955,-0.0716655273,0.2667143554,-0.0223725586,22.8757019043,-12.8581644694,-103.3306172689
2.4509930611,-0.0477397460,0.2667143554,-0.0223725586,31.2680358887,-14.7044779459,-96.3726094563
2.4537031651,-0.0477397460,0.2667143554,-0.0223725586,31.2680358887,-14.7044779459,-96.3726094563
2.4564080238,-0.0477397460,0.2667143554,-0.0223725586,39.0805358887,-16.2150980631,-89.2925313313
2.4590361118,-0.0579936523,0.2481596680,-0.0492280273,39.0805358887,-16.2150980631,-89.2925313313
2.4616091251,-0.0579936523,0.2481596680,-0.0492280273,44.9704284668,-16.1998392740,-82.5023701985
2.4641900063,-0.0579936523,0.2481596680,-0.0492280273,44.9704284668,-16.1998392740,-82.5023701985
2.4667651653,-0.0579936523,0.2481596680,-0.0492280273,48.5562438965,-15.1622416178,-74.9492696126
2.4694859982,-0.0828959960,0.1983549804,-0.0799897461,48.5562438965,-15.1622416178,-74.9492696126
2.4720730782,-0.0828959960,0.1983549804,-0.0799897461,50.0973815918,-12.9344584147,-66.6942647298
2.4746520519,-0.0828959960,0.1983549804,-0.0799897461,50.0973815918,-12.9344584147,-66.6942647298
2.4773750305,-0.0828959960,0.1983549804,-0.0799897461,50.0516052246,-9.8064066569,-57.7526143392
2.4800901413,-0.0911967773,0.1646635742,-0.1112397461,50.0516052246,-9.8064066569,-57.7526143392
2.4828031063,-0.0911967773,0.1646635742,-0.1112397461,47.1676940918,-6.8462015787,-48.2921651204
2.4855091572,-0.0911967773,0.1646635742,-0.1112397461,47.1676940918,-6.8462015787,-48.2921651204
2.4882080555,-0.0911967773,0.1646635742,-0.1283295899,43.2461853027,-3.4282328287,-38.1450703939
2.4908931255,-0.1014506836,0.1754057617,-0.1283295899,43.2461853027,-3.4282328287,-38.1450703939
2.4934761524,-0.1014506836,0.1754057617,-0.1283295899,37.9056091309,-0.1475931803,-27.2655537923
2.4960470200,-0.1014506836,0.1754057617,-0.1283295899,37.9056091309,-0.1475931803,-27.2655537923
2.4987089634,-0.1014506836,0.1915190430,-0.1273530273,32.6871032715,2.4769185384,-17.0726826985
2.5014200211,-0.0760600586,0.1915190430,-0.1273530273,32.6871032715,2.4769185384,-17.0726826985
2.5041170120,-0.0760600586,0.1915190430,-0.1273530273,27.6364440918,5.1166890463,-6.4983418782
2.5068280697,-0.0760600586,0.1915190430,-0.1273530273,27.6364440918,5.1166890463,-6.4983418782
2.5095491409,-0.0623881836,0.2022612304,-0.1083100586,23.4555358887,7.0087788900,3.6334940593
2.5122551918,-0.0623881836,0.2022612304,-0.1083100586,23.4555358887,7.0087788900,3.6334940593
2.5149621964,-0.0623881836,0.2022612304,-0.1083100586,19.5492858887,8.2599995931,12.8498026530
2.5176820755,-0.0623881836,0.2022612304,-0.1083100586,20.1596374512,8.2599995931,12.8498026530
2.5203881264,-0.0589702148,0.2003081054,-0.0785249023,20.1596374512,9.1144917806,20.7385965983
2.5230941772,-0.0589702148,0.2003081054,-0.0785249023,17.7792663574,9.1144917806,20.7385965983
2.5257961750,-0.0589702148,0.2003081054,-0.0785249023,13.8730163574,10.0452779134,28.4137674968
2.5285141468,-0.0589702148,0.2003081054,-0.0672944336,14.4223327637,10.0452779134,28.4137674968
2.5312170982,-0.0462749023,0.1714995117,-0.0672944336,10.5160827637,10.9608052572,35.9363505046
2.5340061188,-0.0462749023,0.1714995117,-0.0672944336,11.6452331543,10.9608052572,35.9363505046
2.5371091366,-0.0462749023,0.1714995117,-0.0672944336,6.9913024902,11.5101216634,43.0164286296
2.5396850109,-0.0428569336,0.1426909180,-0.0423920899,6.9913024902,11.5101216634,43.0164286296
2.5422570705,-0.0428569336,0.1426909180,-0.0423920899,2.3068542481,11.6779683431,50.5847880046
2.5448269844,-0.0428569336,0.1426909180,-0.0423920899,2.3068542481,11.6779683431,50.5847880046
2.5474650860,-0.0428569336,0.1426909180,-0.0423920899,-1.5993957519,11.8458150228,58.3209940593
2.5501801968,-0.0618999023,0.1363432617,-0.0155366211,-2.6675109863,11.8458150228,58.3209940593
2.5528821945,-0.0618999023,0.1363432617,-0.0155366211,-10.4800109863,11.3270161947,65.1874491374
2.5556950569,-0.0618999023,0.1363432617,-0.0155366211,-7.9165344238,11.3270161947,65.1874491374
2.5584030151,-0.0618999023,0.1363432617,-0.0155366211,-11.8227844238,7.1155904134,64.1345926921
2.5611050129,-0.0648295898,-0.0970551758,0.1597563477,-12.5094299316,7.1155904134,64.1345926921
2.5638101101,-0.0648295898,-0.0970551758,0.1597563477,-20.3219299316,0.4169820150,59.9384256999
2.5665111542,-0.0648295898,-0.0970551758,0.1597563477,-21.0390930176,0.4169820150,59.9384256999
2.5691499710,-0.0648295898,-0.3470551758,0.2041899414,-21.0390930176,0.7374165853,60.8997294108
2.5717260838,-0.1209819336,-0.4373872070,0.2041899414,-26.6085510254,0.7374165853,60.8997294108
2.5743041039,-0.1209819336,-0.4373872070,0.2041899414,-26.6085510254,0.7374165853,58.0921122233
2.5768799782,-0.1209819336,-0.4373872070,0.2041899414,-23.1142883301,-1.2614847819,58.0921122233
2.5794641972,-0.1209819336,-0.9686372070,0.1802641601,-23.1142883301,-1.2614847819,46.3733622233
2.5820400715,-0.1595561523,-0.9686372070,0.1802641601,-26.5169982910,-1.9176127116,48.8605448405
2.5846211910,-0.1595561523,-0.9686372070,0.1802641601,-26.5169982910,-1.9176127116,48.8605448405
2.5873770714,-0.1595561523,-0.9686372070,0.1802641601,-26.5322570801,3.2551167806,41.9025370280
2.5899491310,-0.3402202148,-1.0892426758,-0.2318452149,-26.5322570801,3.2551167806,41.9025370280
2.5925281048,-0.3402202148,-1.0892426758,-0.2318452149,-22.3055725098,8.6872456869,39.5221659343
2.5951020718,-0.3402202148,-1.0892426758,-0.2318452149,-22.3055725098,8.6872456869,39.5221659343
2.5978090763,-0.3402202148,-1.0892426758,-0.2318452149,-33.0782775879,11.9984029134,43.1537577311
2.6005091667,-0.2967631836,-0.6131684570,-0.3695405273,-33.0782775879,11.9984029134,43.1537577311
2.6032149792,-0.2967631836,-0.6131684570,-0.3695405273,-53.9675598145,12.8223775228,51.0883280437
2.6059260368,-0.2967631836,-0.6131684570,-0.3695405273,-53.9675598145,12.8223775228,51.0883280437
2.6086750031,-0.2967631836,-0.6131684570,-0.3695405273,-68.3565979004,13.6616109213,60.4724833171
2.6113791466,-0.2786967773,-0.1683442383,-0.2225678711,-68.3565979004,13.6616109213,60.4724833171
2.6140890121,-0.2786967773,-0.1683442383,-0.2225678711,-74.0633850098,14.2261861166,68.9563700358
2.6167910099,-0.2786967773,-0.1683442383,-0.2225678711,-74.0633850098,14.2261861166,68.9563700358
2.6194951534,-0.2786967773,-0.1683442383,-0.0057709961,-75.8944396973,12.5477193197,75.6092020671
2.6220710278,-0.3202006836,0.0445463867,-0.0057709961,-75.8944396973,12.5477193197,75.6092020671
2.6246411800,-0.3202006836,0.0445463867,-0.0057709961,-72.2018127441,8.9924214681,79.7748514811
2.6272749901,-0.3202006836,0.0445463867,-0.0057709961,-72.2018127441,8.9924214681,79.7748514811
2.6299760342,-0.3202006836,0.0147612304,0.0210844727,-60.1778869629,4.8115132650,82.6435038249
2.6326770782,-0.3368022460,0.0147612304,0.0210844727,-60.1778869629,4.8115132650,82.6435038249
2.6353871822,-0.3368022460,0.0147612304,0.0210844727,-42.5845031738,2.2175191244,84.4287821452
2.6381051540,-0.3368022460,0.0147612304,0.0210844727,-42.5845031738,2.2175191244,84.4287821452
2.6408910751,-0.3075053710,0.0030424804,-0.1234467773,-25.9676818848,1.3782857260,84.7339579265
2.6435840130,-0.3075053710,0.0030424804,-0.1234467773,-25.9676818848,1.3782857260,84.7339579265
2.6462700367,-0.3075053710,0.0030424804,-0.1234467773,-15.4543762207,0.2033589681,83.3911844890
2.6489591599,-0.3075053710,0.0030424804,-0.1234467773,-15.4543762207,0.2033589681,83.3911844890
2.6517260075,-0.1927592773,-0.0399262696,-0.1224702149,-11.8685607910,-2.2990824381,80.3241678874
2.6545970440,-0.1927592773,-0.0399262696,-0.1224702149,-11.8685607910,-2.2990824381,80.3241678874
2.6576871872,-0.1927592773,-0.0399262696,-0.1224702149,-12.9366760254,-5.7628275553,76.1890360515
2.6604790688,-0.0677592773,-0.1131684570,0.0015532227,-12.9366760254,-5.7628275553,76.1890360515
2.6631760597,-0.1034038086,-0.1131684570,0.0015532227,-16.2630920410,-8.7382914225,71.9165751140
2.6658730507,-0.1034038086,-0.1131684570,0.0015532227,-16.2630920410,-8.7382914225,71.9165751140
2.6685080528,-0.1034038086,-0.1131684570,0.0015532227,-18.8723449707,-9.5775248209,68.1781717937
2.6711981297,-0.1019389648,-0.1185395508,0.0454985351,-18.8723449707,-9.5775248209,68.1781717937
2.6737740040,-0.1019389648,-0.1185395508,0.0454985351,-20.4592590332,-8.6162211100,65.0806376140
2.6763570309,-0.1019389648,-0.1185395508,0.0454985351,-20.4592590332,-8.6162211100,65.0806376140
2.6790549755,-0.1019389648,-0.1185395508,0.0454985351,-23.2973937988,-8.3110453287,63.0664774577
2.6817901134,-0.1375834960,-0.1043793946,0.0479399414,-23.2973937988,-8.3110453287,63.0664774577
2.6846220493,-0.1375834960,-0.1043793946,0.0479399414,-28.5464172363,-9.0282084147,61.6626688640
2.6873350143,-0.1375834960,-0.1043793946,0.0479399414,-28.5464172363,-9.0282084147,61.6626688640
2.6899061203,-0.1375834960,-0.1043793946,0.0479399414,-32.6968078613,-9.5927836100,60.7776590983
2.6924932003,-0.1458842773,-0.0658051758,0.0767485351,-32.6968078613,-9.5927836100,60.7776590983
2.6950631142,-0.1458842773,-0.0658051758,0.0767485351,-34.1311340332,-10.3252054850,59.5874735515
2.6976840496,-0.1458842773,-0.0658051758,0.0767485351,-34.1311340332,-10.3252054850,59.5874735515
2.7002589703,-0.1458842773,-0.0658051758,0.1436430664,-33.0325012207,-10.7982279459,58.2904764811
2.7028369904,-0.1517436523,0.0137846680,0.1436430664,-33.0325012207,-10.7982279459,58.2904764811
2.7054171562,-0.1517436523,0.0137846680,0.1436430664,-29.1262512207,-11.2407328287,56.4441630046
2.7081511021,-0.1517436523,0.0137846680,0.1436430664,-28.8515930176,-11.2407328287,56.4441630046
2.7107310295,-0.1517436523,0.1016752930,0.2144438477,-28.8515930176,-11.5001322428,54.1553446452
2.7133131027,-0.1414897460,0.1016752930,0.2144438477,-22.0614318848,-11.5001322428,54.1553446452
2.7158930302,-0.1414897460,0.1016752930,0.2144438477,-22.0614318848,-11.5001322428,50.6305643718
2.7185831070,-0.1414897460,0.1016752930,0.2144438477,-15.5459289551,-12.1104838053,50.6305643718
2.7211601734,-0.1263530273,0.1089995117,0.2261625977,-15.5459289551,-12.1104838053,46.3733622233
2.7238869667,-0.1263530273,0.1089995117,0.2261625977,-8.9388732910,-12.3088480631,46.3733622233
2.7264599800,-0.1263530273,0.1089995117,0.2261625977,-8.9388732910,-12.3088480631,41.8567606608
2.7292010784,-0.1263530273,0.1089995117,0.2261625977,-1.7519836426,-10.2031351725,41.8567606608
2.7318661213,-0.1063334960,0.0313627930,0.1045805664,7.2201843262,-8.1737162272,37.4469706218
2.7354121208,-0.1063334960,0.0313627930,0.1045805664,7.2201843262,-8.1737162272,37.4469706218
2.7380549908,-0.1063334960,0.0313627930,0.1045805664,15.0326843262,-5.8696390787,32.9761454265
2.7406330109,-0.1063334960,0.0313627930,-0.0204194336,15.2005310059,-5.8696390787,32.9761454265
2.7432081699,-0.0951030273,-0.0423676758,-0.0204194336,15.2005310059,-5.8696390787,29.5581766765
2.7457811832,-0.0951030273,-0.0423676758,-0.0204194336,18.8778991699,-5.5949808756,29.5581766765
2.7485201359,-0.0951030273,-0.0423676758,-0.0204194336,18.8778991699,-5.5949808756,26.6132303874
2.7510950565,-0.0951030273,-0.0140473633,-0.0345795899,19.8392028809,-6.0374857584,26.6132303874
2.7536730766,-0.0785014648,-0.0140473633,-0.0345795899,19.8392028809,-6.0374857584,22.7069803874
2.7562420368,-0.0785014648,-0.0140473633,-0.0345795899,20.7699890137,-7.2581888834,23.9734598796
2.7588300705,-0.0785014648,-0.0140473633,-0.0345795899,20.7699890137,-7.2581888834,23.9734598796
2.7614140511,-0.0785014648,-0.0111176758,0.0264555664,24.3405456543,-7.8380228678,20.2350565593
2.7639839649,-0.1053569336,-0.0111176758,0.0264555664,24.3405456543,-7.8380228678,20.2350565593
2.7665569782,-0.1053569336,-0.0111176758,0.0264555664,28.8266296387,-7.6091410319,15.7489725749
2.7691791058,-0.1053569336,-0.0111176758,0.0264555664,28.8266296387,-7.6091410319,15.7489725749
2.7717549801,-0.1117045898,-0.0731293946,0.0181547851,33.3432312012,-8.3720804850,11.7969462077
2.7743291855,-0.1117045898,-0.0731293946,0.0181547851,33.3432312012,-8.3720804850,11.7969462077
2.7769010067,-0.1117045898,-0.0731293946,0.0181547851,35.9067077637,-8.5857035319,8.9893290202
2.7795510292,-0.1117045898,-0.0731293946,0.0181547851,35.9067077637,-8.5857035319,8.9893290202
2.7821371555,-0.0936381836,-0.1043793946,0.0000883789,35.7846374512,-8.9213968912,6.7920633952
2.7847170830,-0.0936381836,-0.1043793946,0.0000883789,35.7846374512,-8.9213968912,6.7920633952
2.7874071598,-0.0936381836,-0.1043793946,0.0000883789,33.2364196777,-9.6538187662,4.7168680827
2.7901191711,-0.0936381836,-0.1043793946,0.0000883789,33.2364196777,-9.6538187662,4.7168680827
2.7928240299,-0.0809428710,-0.1112153320,0.0098540039,30.0168151855,-9.7148539225,4.1065165202
2.7955350876,-0.0809428710,-0.1112153320,0.0098540039,30.0168151855,-9.7148539225,4.1065165202
2.7982831001,-0.0809428710,-0.1112153320,0.0098540039,25.8969421387,-9.4249369303,3.0841776530
2.8009920120,-0.0809428710,-0.1112153320,0.0288969727,25.8969421387,-9.4249369303,3.0841776530
2.8037049770,-0.0877788086,-0.1200043946,0.0288969727,21.7007751465,-10.3709818522,1.8787333171
2.8064141273,-0.0877788086,-0.1200043946,0.0288969727,21.7007751465,-10.3709818522,1.8787333171
2.8091340065,-0.0877788086,-0.1200043946,0.0288969727,17.3062438965,-10.3404642740,1.4209696452
2.8119561672,-0.0877788086,-0.1370942383,0.0303618164,17.3062438965,-10.3404642740,1.4209696452
2.8146650791,-0.0902202148,-0.1370942383,0.0303618164,12.3013610840,-10.8134867350,1.5430399577
2.8173580170,-0.0902202148,-0.1370942383,0.0303618164,12.3013610840,-10.8134867350,1.5430399577
2.8199410439,-0.0902202148,-0.1370942383,0.0303618164,7.3727722168,-11.1949564616,2.0465799968
2.8225221634,-0.0907084960,-0.1405122070,0.0401274414,7.3727722168,-11.1949564616,2.0465799968
2.8251020908,-0.0907084960,-0.1405122070,0.0401274414,3.4665222168,-11.5306498209,2.5196024577
2.8277280331,-0.0907084960,-0.1405122070,0.0401274414,2.3678894043,-11.5306498209,2.5196024577
2.8304281235,-0.0907084960,-0.1405122070,0.0401274414,2.3678894043,-11.3780619303,2.2144266765
2.8331329823,-0.0907084960,-0.1292817383,0.0454985351,-1.6146545410,-11.3780619303,2.2144266765
2.8358399868,-0.0907084960,-0.1292817383,0.0454985351,-1.6146545410,-10.5846048990,1.5582987468
2.8385651112,-0.0907084960,-0.1292817383,0.0454985351,-3.6288146973,-10.5846048990,1.5582987468
2.8412721157,-0.0907084960,-0.1292817383,0.0454985351,-3.6288146973,-9.6995951334,1.1157938640
2.8442530632,-0.0824077148,-0.1204926758,0.0547758789,-3.2320861816,-9.6995951334,1.1157938640
2.8473451138,-0.0824077148,-0.1204926758,0.0547758789,-1.7062072754,-9.6995951334,0.3833719890
2.8500599861,-0.0824077148,-0.1204926758,0.0547758789,-1.7062072754,-9.6995951334,0.3833719890
2.8527691364,-0.0726420898,-0.1058442383,0.0655180664,-0.4244689941,-9.2876078287,-1.1730244954
2.8554761410,-0.0726420898,-0.1058442383,0.0655180664,-0.4244689941,-9.2876078287,-1.1730244954
2.8581900597,-0.0726420898,-0.1058442383,0.0655180664,2.3984069824,-9.0739847819,-2.1495869954
2.8609001637,-0.0726420898,-0.1058442383,0.0655180664,2.3984069824,-9.0739847819,-2.1495869954
2.8636021614,-0.0745952148,-0.0999848633,0.0728422851,5.9231872559,-8.5399271647,-3.2177022298
2.8663120270,-0.0745952148,-0.0999848633,0.0728422851,5.9231872559,-8.5399271647,-3.2177022298
2.8689680099,-0.0745952148,-0.0999848633,0.0728422851,10.0430603027,-7.6701761881,-4.9419453939
2.8715441227,-0.0745952148,-0.0999848633,0.0728422851,10.0430603027,-7.6701761881,-4.9419453939
2.8741211891,-0.0785014648,-0.1048676758,0.0787016601,13.9493103027,-6.7241312662,-6.6204121907
2.8768119812,-0.0785014648,-0.1048676758,0.0787016601,14.4528503418,-6.7241312662,-6.6204121907
2.8793990612,-0.0785014648,-0.1048676758,0.0787016601,14.4528503418,-5.8848978678,-7.9937032063
2.8819811344,-0.0785014648,-0.1048676758,0.0660063477,17.6419372559,-5.8848978678,-7.9937032063
2.8845620155,-0.0785014648,-0.1009614258,0.0660063477,17.6419372559,-5.8848978678,-8.6345723470
2.8872001171,-0.0785014648,-0.1009614258,0.0660063477,19.8544616699,-4.8778177897,-8.6345723470
2.8897790909,-0.0785014648,-0.1009614258,0.0660063477,19.8544616699,-4.8778177897,-8.6345723470
2.8923590183,-0.0785014648,-0.0804536133,0.0616118164,20.5258483887,-4.2827250162,-8.7413838704
2.8949360847,-0.0819194336,-0.0804536133,0.0616118164,20.5258483887,-4.2827250162,-8.7413838704
2.8976001740,-0.0819194336,-0.0804536133,0.0616118164,20.8005065918,-3.5350443522,-9.3212178548
2.9001820087,-0.0819194336,-0.0804536133,0.0616118164,20.8005065918,-3.5350443522,-9.3212178548
2.9027631283,-0.0819194336,-0.1175629883,0.0669829101,21.7618103027,-2.5584818522,-9.2144063313
2.9053390026,-0.0868022460,-0.1175629883,0.0669829101,21.7618103027,-2.5584818522,-9.2144063313
2.9081079960,-0.0868022460,-0.1175629883,0.0669829101,21.6244812012,-1.9023539225,-9.1381123860
2.9108250141,-0.0868022460,-0.1175629883,0.0669829101,21.6244812012,-1.9023539225,-9.1381123860
2.9135310650,-0.0902202148,-0.1405122070,0.0464750977,20.3732604981,-1.5819193522,-8.6650899251
2.9162440300,-0.0902202148,-0.1405122070,0.0464750977,20.3732604981,-1.5819193522,-8.6650899251
2.9188649654,-0.0902202148,-0.1405122070,0.0464750977,18.9694519043,-1.4445902506,-7.5359395345
2.9214320183,-0.0902202148,-0.1405122070,0.0464750977,18.9694519043,-1.4445902506,-7.5359395345
2.9240040779,-0.0921733398,-0.1297700196,0.0508696289,16.7569274902,-1.0020853678,-6.3304951985
2.9265730381,-0.0921733398,-0.1297700196,0.0508696289,16.7569274902,-1.0020853678,-6.3304951985
2.9293060303,-0.0921733398,-0.1297700196,0.0508696289,13.2779235840,-0.2086283366,-5.2471211751
2.9320120811,-0.0921733398,-0.1297700196,0.0508696289,13.2779235840,-0.2086283366,-5.2471211751
2.9347081184,-0.0877788086,-0.1331879883,0.0625883789,11.0653991699,0.1118062338,-4.3315938313
2.9374451637,-0.0877788086,-0.1331879883,0.0625883789,11.0653991699,0.1118062338,-4.3315938313
2.9401261806,-0.0877788086,-0.1331879883,0.0625883789,11.2942810059,0.1575826010,-3.5076192220
2.9427011013,-0.0877788086,-0.1331879883,0.0694243164,11.2942810059,0.1575826010,-3.5076192220
2.9452831745,-0.0750834960,-0.1278168946,0.0694243164,11.9809265137,-0.3459574381,-1.9817403157
2.9479219913,-0.0750834960,-0.1278168946,0.0694243164,11.9809265137,-0.3459574381,-1.9817403157
2.9506261349,-0.0750834960,-0.1278168946,0.0694243164,13.4152526855,-1.2462259928,-0.5779317220
2.9533371925,-0.0741069336,-0.1190278320,0.0650297851,13.4152526855,-1.2462259928,-0.5779317220
2.9560401440,-0.0741069336,-0.1190278320,0.0650297851,15.2768249512,-1.5514017740,1.6040751140
2.9587631226,-0.0741069336,-0.1190278320,0.0650297851,15.2768249512,-1.5514017740,1.6040751140
2.9614679813,-0.0741069336,-0.1190278320,0.0650297851,17.0163269043,-1.7192484537,1.1920878093
2.9644000530,-0.0868022460,-0.1268403320,0.0611235351,17.0163269043,-1.7192484537,1.1920878093
2.9674880505,-0.0868022460,-0.1268403320,0.0611235351,19.4272155762,-1.5819193522,1.6956278483
2.9700691700,-0.0868022460,-0.1268403320,0.0611235351,19.4272155762,-1.5819193522,1.6956278483
2.9726490974,-0.0868022460,-0.1268403320,0.0767485351,22.0822448731,-1.5514017740,3.4503885905
2.9752221107,-0.0965678710,-0.1151215820,0.0767485351,22.0822448731,-1.5514017740,3.4503885905
2.9778990746,-0.0965678710,-0.1151215820,0.0767485351,24.4778747559,-1.0783793131,4.5490214030
2.9806091785,-0.0965678710,-0.1151215820,0.0767485351,24.4778747559,-1.0783793131,4.5490214030
2.9833099842,-0.0965678710,-0.1248872070,0.0694243164,25.6680603027,-0.8494974772,5.9986063640
2.9860191345,-0.0863139648,-0.1248872070,0.0694243164,25.6680603027,-0.8494974772,5.9986063640
2.9887351990,-0.0863139648,-0.1248872070,0.0694243164,25.3628845215,-0.9257914225,5.6323954265
2.9914391041,-0.0863139648,-0.1248872070,0.0694243164,25.3628845215,-0.9257914225,5.6323954265
2.9941480160,-0.0990092773,-0.0980317383,0.0777250977,25.2102966309,-0.9105326334,5.9528299968
2.9968571663,-0.0990092773,-0.0980317383,0.0777250977,25.2102966309,-0.9105326334,5.9528299968
2.9994480610,-0.0990092773,-0.0980317383,0.0777250977,25.2102966309,-0.5138041178,7.0667215983
3.0020260811,-0.0990092773,-0.0980317383,0.0777250977,25.1187438965,-0.5138041178,7.0667215983
3.0047039986,-0.0877788086,-0.0848481446,0.0674711914,25.1187438965,0.2643941244,7.4176737468
3.0073051453,-0.0877788086,-0.0848481446,0.0674711914,25.2865905762,0.2643941244,7.4176737468
3.0098781586,-0.0877788086,-0.0848481446,0.0674711914,25.2865905762,0.2643941244,9.8133036296
3.0124530792,-0.0877788086,-0.0848481446,0.0674711914,26.0800476074,0.6916402181,9.8133036296
3.0150279999,-0.0775249023,-0.0819184570,0.0694243164,26.0800476074,0.6916402181,11.9647928874
3.0177690983,-0.0775249023,-0.0819184570,0.0694243164,26.6751403809,1.6834615072,11.9647928874
3.0203461647,-0.0775249023,-0.0819184570,0.0694243164,26.6751403809,1.6834615072,11.9647928874
3.0229260921,-0.0775249023,-0.0819184570,0.0694243164,25.2713317871,1.7597554525,10.5304667155
3.0254991055,-0.1204936523,-0.1058442383,0.0586821289,25.2713317871,1.7597554525,10.5304667155
3.0282139778,-0.1204936523,-0.1058442383,0.0586821289,21.9143981934,1.9276021322,10.1337381999
3.0310490131,-0.1204936523,-0.1058442383,0.0586821289,21.9143981934,1.9276021322,10.1337381999
3.0336201191,-0.1204936523,-0.0726411133,0.0645415039,19.7171325684,1.5156148275,12.4530741374
3.0361950397,-0.0858256836,-0.0726411133,0.0645415039,19.7171325684,1.5156148275,12.4530741374
3.0390431881,-0.0858256836,-0.0726411133,0.0645415039,18.9999694824,1.6834615072,15.3675028483
3.0418190956,-0.0858256836,-0.0726411133,0.0645415039,18.9999694824,1.6834615072,16.4966532390
3.0449941158,-0.1004741210,-0.0755708008,0.0401274414,19.1067810059,1.9581197103,16.4966532390
3.0475711823,-0.1004741210,-0.0755708008,0.0401274414,19.1067810059,1.9581197103,16.4966532390
3.0501391888,-0.1004741210,-0.0755708008,0.0401274414,19.1678161621,1.6376851400,16.2219950358
3.0527091026,-0.1004741210,-0.0755708008,0.0401274414,19.1678161621,1.6376851400,16.2219950358
3.0552761555,-0.0843608398,-0.0731293946,0.0479399414,18.3438415527,1.0883687338,17.5189921061
3.0578720570,-0.0843608398,-0.0731293946,0.0479399414,18.3438415527,1.0883687338,17.5189921061
3.0604441166,-0.0843608398,-0.0731293946,0.0479399414,17.6724548340,0.7221577963,17.4884745280
3.0630121231,-0.0843608398,-0.0731293946,0.0479399414,17.6724548340,0.7221577963,17.4884745280
3.0655820370,-0.0706889648,-0.0531098633,0.0699125977,18.0997009277,1.2104390463,17.7020975749
3.0683031082,-0.0706889648,-0.0531098633,0.0699125977,18.0997009277,1.2104390463,17.7020975749
3.0708761215,-0.0706889648,-0.0531098633,0.0699125977,17.3825378418,1.1951802572,18.8617655437
3.0734481812,-0.0706889648,-0.0531098633,0.0699125977,17.3825378418,1.1951802572,18.8617655437
3.0760161877,-0.0780131836,-0.0594575196,0.0840727539,18.1607360840,1.3935445150,18.7244364421
3.0786609650,-0.0780131836,-0.0594575196,0.0840727539,18.1607360840,1.3935445150,18.7244364421
3.0812270641,-0.0780131836,-0.0594575196,0.0840727539,18.1759948731,1.6071675619,17.6563212077
3.0838010311,-0.0780131836,-0.0594575196,0.0762602539,18.1759948731,1.6071675619,17.6563212077
3.0863649845,-0.0838725586,-0.0409028320,0.0762602539,18.1759948731,2.4006245931,17.7326151530
3.0890979767,-0.0838725586,-0.0409028320,0.0762602539,17.5809020996,2.4006245931,17.7326151530
3.0916640759,-0.0838725586,-0.0409028320,0.0762602539,17.5809020996,2.4006245931,18.6939188640
3.0942280293,-0.0838725586,-0.0365083008,0.0616118164,16.7874450684,2.2480367025,18.6939188640
3.0967960358,-0.0716655273,-0.0365083008,0.0616118164,16.7874450684,2.2480367025,17.8546854655
3.0994870663,-0.0716655273,-0.0365083008,0.0616118164,16.5738220215,2.7058003744,17.8546854655
3.1020569801,-0.0716655273,-0.0365083008,0.0616118164,16.5738220215,2.7058003744,17.8546854655
3.1046249866,-0.0716655273,-0.0047700196,0.0743071289,16.3601989746,2.9804585775,16.4661356608
3.1072599888,-0.0750834960,-0.0047700196,0.0743071289,16.3601989746,2.9804585775,16.4661356608
3.1098320484,-0.0750834960,-0.0047700196,0.0743071289,15.0174255371,3.0109761556,16.4966532390
3.1124000549,-0.0750834960,-0.0047700196,0.0743071289,15.0174255371,3.0109761556,16.4966532390
3.1149711609,-0.0589702148,0.0035307617,0.0728422851,14.3155212402,2.8126118978,16.5576883952
3.1175470352,-0.0589702148,0.0035307617,0.0728422851,14.3155212402,2.8126118978,16.5576883952
3.1201150417,-0.0589702148,0.0035307617,0.0728422851,14.2697448731,2.7515767416,16.8323465983
3.1226890087,-0.0589702148,0.0035307617,0.0728422851,14.2697448731,2.7515767416,16.8323465983
3.1252579689,-0.0599467773,-0.0003754883,0.0713774414,14.4833679199,3.4534810384,16.4203592937
3.1278691292,-0.0599467773,-0.0003754883,0.0713774414,14.4833679199,3.4534810384,16.4203592937
3.1305470467,-0.0599467773,-0.0003754883,0.0713774414,13.8577575684,3.6518452963,15.9473368327
3.1331219673,-0.0599467773,-0.0003754883,0.0713774414,13.8577575684,3.6518452963,15.9473368327
3.1356849670,-0.0785014648,-0.0189301758,0.0718657227,13.5373229981,3.9722798666,15.1081034343
3.1382670403,-0.0785014648,-0.0189301758,0.0718657227,13.5373229981,3.9722798666,15.1081034343
3.1409170628,-0.0785014648,-0.0189301758,0.0718657227,13.5373229981,4.5978902181,15.6726786296
3.1434869766,-0.0785014648,-0.0189301758,0.0718657227,13.2626647949,4.5978902181,15.6726786296
3.1460599899,-0.0921733398,-0.0203950196,0.0445219727,13.2626647949,4.4300435384,15.5353495280
3.1487410069,-0.0921733398,-0.0203950196,0.0445219727,13.1100769043,4.4300435384,15.5353495280
3.1514480114,-0.0921733398,-0.0203950196,0.0445219727,13.1100769043,4.2316792806,15.7337137858
3.1542379856,-0.0921733398,-0.0203950196,0.0445219727,13.0490417481,4.2316792806,15.7337137858
3.1577131748,-0.0872905273,-0.0101411133,0.0450102539,12.2250671387,4.8725484213,16.0541483561
3.1602971554,-0.0872905273,-0.0101411133,0.0450102539,12.2250671387,4.8725484213,16.0541483561
3.1628701687,-0.0872905273,-0.0101411133,0.0450102539,12.0724792481,4.5978902181,16.8476053874
3.1654391289,-0.0706889648,0.0064604492,0.0503813477,12.0724792481,4.5978902181,16.8476053874
3.1680810452,-0.0706889648,0.0064604492,0.0503813477,12.0724792481,4.2011617025,17.2901102702
3.1706500053,-0.0706889648,0.0064604492,0.0503813477,11.5536804199,4.2011617025,17.2901102702
3.1732201576,-0.0706889648,0.0064604492,0.0503813477,11.5536804199,4.2011617025,17.4426981608
3.1757919788,-0.0618999023,0.0089018554,0.0645415039,11.3095397949,3.4687398275,17.4426981608
3.1784391403,-0.0618999023,0.0089018554,0.0645415039,11.3095397949,3.4687398275,18.3582255046
3.1810100079,-0.0618999023,0.0089018554,0.0645415039,11.6147155762,3.0872701010,18.3582255046
3.1835820675,-0.0618999023,0.0089018554,0.0645415039,11.6147155762,3.0872701010,14.4519755046
3.1861510277,-0.0721538086,0.0064604492,0.0567290039,11.7215270996,3.2245992025,17.8546854655
3.1887791157,-0.0721538086,0.0064604492,0.0567290039,11.7215270996,3.2245992025,17.8546854655
3.1913471222,-0.0721538086,0.0064604492,0.0567290039,11.2942810059,3.2703755697,18.2208964030
3.1939141750,-0.0721538086,0.0064604492,0.0567290039,11.2942810059,3.2703755697,18.2208964030
3.1965930462,-0.0819194336,0.0069487304,0.0655180664,10.6686706543,3.7586568197,17.7936503093
3.1992030144,-0.0819194336,0.0069487304,0.0655180664,10.6686706543,3.7586568197,17.7936503093
3.2017760277,-0.0819194336,0.0069487304,0.0655180664,10.8212585449,4.1859029134,17.3358866374
3.2043490410,-0.0819194336,0.0069487304,0.0655180664,10.8212585449,4.1859029134,17.3358866374
3.2070941925,-0.0819194336,0.0235502930,0.0733305664,11.2942810059,4.0180562338,17.5495096843
3.2096769810,-0.0819194336,0.0235502930,0.0733305664,11.2942810059,4.0180562338,17.5495096843
3.2122521400,-0.0819194336,0.0235502930,0.0733305664,11.4316101074,4.2316792806,17.8546854655
3.2148230076,-0.0819194336,0.0235502930,0.0733305664,11.4316101074,4.2316792806,17.8546854655
3.2175540924,-0.0706889648,0.0342924804,0.0650297851,11.6604919434,3.9570210775,18.0683085124
3.2201290131,-0.0706889648,0.0342924804,0.0650297851,11.6604919434,3.9570210775,18.0683085124
3.2226991653,-0.0706889648,0.0342924804,0.0650297851,12.3776550293,4.0638326010,18.2361551921
3.2252709866,-0.0706889648,0.0342924804,0.0640532227,12.3776550293,4.0638326010,18.2361551921
3.2278721333,-0.0721538086,0.0430815430,0.0640532227,12.3776550293,4.1706441244,18.0225321452
3.2304461002,-0.0721538086,0.0430815430,0.0640532227,13.0185241699,4.1706441244,18.0225321452
3.2330219746,-0.0721538086,0.0430815430,0.0640532227,13.0185241699,4.1706441244,18.4497782390
3.2355980873,-0.0721538086,0.0557768554,0.0616118164,13.4152526855,3.9417622884,18.4497782390
3.2382271290,-0.0677592773,0.0557768554,0.0616118164,13.4152526855,3.9417622884,18.7244364421
3.2407979965,-0.0677592773,0.0557768554,0.0616118164,14.2850036621,3.4382222494,18.7244364421
3.2433731556,-0.0677592773,0.0557768554,0.0616118164,14.2850036621,3.4382222494,18.7244364421
3.2459421158,-0.0677592773,0.0489409180,0.0577055664,15.4141540527,3.2703755697,18.4955546061
3.2485191822,-0.0770366210,0.0489409180,0.0577055664,15.4141540527,3.2703755697,18.4955546061
3.2510950565,-0.0770366210,0.0489409180,0.0577055664,15.7345886231,3.6060689291,19.1974589030
3.2536680698,-0.0770366210,0.0489409180,0.0577055664,15.7345886231,3.6060689291,19.1974589030
3.2562391758,-0.0946147460,0.0255034180,0.0318266601,14.7732849121,3.9417622884,19.9756571452
3.2589280605,-0.0946147460,0.0255034180,0.0318266601,14.7732849121,3.9417622884,19.9756571452
3.2614951134,-0.0946147460,0.0255034180,0.0318266601,13.3999938965,4.5673726400,21.2421366374
3.2640609741,-0.0946147460,0.0255034180,0.0318266601,13.3999938965,4.5673726400,21.2421366374
3.2666330338,-0.0946147460,0.0123198242,0.0450102539,11.8893737793,5.8948872884,22.4018046061
3.2693400383,-0.0946147460,0.0123198242,0.0450102539,11.8893737793,5.8948872884,22.4018046061
3.2719120979,-0.0946147460,0.0123198242,0.0450102539,10.6839294434,6.4136861166,23.9734598796
3.2747390270,-0.0946147460,0.0123198242,0.0450102539,10.6839294434,6.4136861166,23.9734598796
3.2774150372,-0.0682475586,0.0425932617,0.0874907227,10.0278015137,6.3373921713,24.4769999187
3.2801401615,-0.0682475586,0.0425932617,0.0874907227,10.0278015137,6.3373921713,24.4769999187
3.2828471661,-0.0682475586,0.0425932617,0.0874907227,9.9515075684,6.2763570150,24.7821756999
3.2855551243,-0.0682475586,0.0425932617,0.0909086914,9.9515075684,6.2763570150,24.7821756999
3.2882690430,-0.0413920898,0.0909331054,0.0909086914,10.6686706543,5.4523824056,24.3854471843
3.2909731865,-0.0413920898,0.0909331054,0.0909086914,10.6686706543,5.4523824056,24.3854471843
3.2936739922,-0.0413920898,0.0909331054,0.0909086914,12.2861022949,4.8267720541,23.6072489421
3.2963721752,-0.0413920898,0.1099760742,0.0586821289,12.2861022949,4.8267720541,23.6072489421
3.2990942001,-0.0345561523,0.1099760742,0.0586821289,13.7051696777,4.1859029134,23.1494852702
3.3017990589,-0.0345561523,0.1099760742,0.0586821289,13.7051696777,4.1859029134,23.1494852702
3.3044991493,-0.0345561523,0.1099760742,0.0586821289,15.2920837402,3.8349507650,22.1424051921
3.3072450161,-0.0291850586,0.1290190430,0.0406157227,15.2920837402,3.8349507650,22.1424051921
3.3098220825,-0.0291850586,0.1290190430,0.0406157227,16.7264099121,3.3008931478,21.3031717937
3.3123919964,-0.0291850586,0.1290190430,0.0406157227,16.7264099121,3.3008931478,21.3031717937
3.3149650097,-0.0291850586,0.1290190430,0.0406157227,16.7264099121,3.7433980306,20.4944559733
