# time_stamp before, Acceleration x, Acceleration y, Acceleration z, Gyro x, Gyro y, Gyro z
0.0000000000,0.0139371745,0.0257158204,0.0142145182,2.4870198568,3.0028533935,-29.5013936360
0.0032620430,0.0139371745,0.0257158204,0.0249567057,2.4870198568,3.0028533935,-28.9520772298
0.0058171749,0.0202848307,0.0398759766,0.0249567057,1.2052815755,3.2469940185,-28.9520772298
0.0084631443,0.0202848307,0.0398759766,0.0249567057,1.2052815755,3.2469940185,-28.9520772298
0.0110070705,0.0202848307,0.0398759766,0.0249567057,1.3273518880,3.1859588623,-28.4332784017
0.0135631561,0.0202848307,0.0398759766,0.0225152995,1.3273518880,3.1859588623,-28.4332784017
0.0161221027,0.0217496745,0.0320634766,0.0225152995,1.9987386068,3.6284637451,-27.8534444173
0.0186841488,0.0217496745,0.0320634766,0.0225152995,1.9987386068,3.6284637451,-27.8534444173
0.0212399960,0.0217496745,0.0320634766,0.0225152995,2.9142659505,4.3761444091,-26.5869649251
0.0237951279,0.0217496745,0.0320634766,0.0264215495,2.9142659505,4.3761444091,-26.5869649251
0.0263462067,0.0154020183,0.0130205078,0.0264215495,2.9600423177,4.8796844482,-25.3662618001
0.0289001465,0.0154020183,0.0130205078,0.0264215495,2.9600423177,4.8796844482,-25.3662618001
0.0314550400,0.0154020183,0.0130205078,0.0264215495,3.7687581380,5.2611541748,-24.2371114095
0.0340201855,0.0154020183,0.0388994141,0.0278863932,3.7687581380,5.2611541748,-24.2371114095
0.0367310047,0.0168668620,0.0388994141,0.0278863932,4.3791097005,4.8339080810,-23.7030537923
0.0393061638,0.0168668620,0.0388994141,0.0278863932,4.3791097005,4.8339080810,-23.7030537923
0.0418720245,0.0168668620,0.0388994141,0.0278863932,4.3791097005,4.8339080810,-23.7335713704
0.0444431305,0.0168668620,0.0662431641,0.0049371745,4.9742024739,4.8339080810,-23.7335713704
0.0470759869,0.0324918620,0.0662431641,0.0049371745,4.9742024739,4.8339080810,-23.1842549641
0.0496451855,0.0324918620,0.0662431641,0.0049371745,6.3169759114,4.9864959716,-23.1842549641
0.0523710251,0.0324918620,0.0662431641,0.0049371745,6.3169759114,4.9864959716,-23.0621846517
0.0549449921,0.0368863933,0.0647783204,0.0015192057,7.3087972005,5.3984832763,-23.0621846517
0.0577239990,0.0368863933,0.0647783204,0.0015192057,7.3087972005,5.3984832763,-23.0316670735
0.0604131222,0.0368863933,0.0647783204,0.0015192057,7.5224202474,5.4442596435,-23.0316670735
0.0631031990,0.0368863933,0.0647783204,0.0015192057,7.5224202474,5.4442596435,-23.2147725423
0.0657920837,0.0154020183,0.0550126954,0.0205621745,7.4919026692,4.8339080810,-23.2147725423
0.0685241222,0.0154020183,0.0550126954,0.0205621745,7.4919026692,4.8339080810,-23.0621846517
0.0712161064,0.0154020183,0.0550126954,0.0205621745,8.3006184896,4.7118377685,-23.0621846517
0.0739021301,0.0154020183,0.0550126954,0.0083551432,8.3006184896,4.7118377685,-22.5891621907
0.0766069889,0.0163785807,0.0496416016,0.0083551432,8.3158772786,4.9102020263,-22.5891621907
0.0792942047,0.0163785807,0.0496416016,0.0083551432,8.3158772786,4.9102020263,-21.7499287923
0.0819840431,0.0163785807,0.0496416016,0.0083551432,8.4379475911,5.4747772216,-21.7499287923
0.0846681595,0.0163785807,0.0418291016,-0.0023870443,8.4379475911,5.4747772216,-20.4376729329
0.0873701572,0.0197965495,0.0418291016,-0.0023870443,7.7818196614,5.8104705810,-20.4376729329
0.0900561810,0.0197965495,0.0418291016,-0.0023870443,7.7818196614,5.8104705810,-16.5314229329
0.0927422047,0.0197965495,0.0418291016,-0.0023870443,6.6526692708,5.5968475341,-19.1254170735
0.0954291821,0.0241910807,0.0535478516,0.0015192057,6.6526692708,5.5968475341,-19.1254170735
0.0981271267,0.0241910807,0.0535478516,0.0015192057,5.9507649739,5.7036590576,-17.6605733235
0.1008141041,0.0241910807,0.0535478516,0.0015192057,5.9507649739,5.7036590576,-13.7543233235
0.1035001278,0.0241910807,0.0535478516,0.0015192057,5.7829182942,5.8257293701,-15.3564961751
0.1062281132,0.0173551433,0.0188798828,0.0215387369,5.7829182942,5.8257293701,-15.3564961751
0.1088960171,0.0173551433,0.0188798828,0.0215387369,4.7605794271,6.1614227294,-14.2578633626
0.1116399765,0.0173551433,0.0188798828,0.0215387369,4.7605794271,6.1614227294,-14.2578633626
0.1144351959,0.0173551433,0.0188798828,0.0635309245,4.4706624349,6.6802215576,-13.6780293782
0.1172611713,-0.0182893880,-0.0030927734,0.0635309245,4.4706624349,6.6802215576,-13.6780293782
0.1199641228,-0.0182893880,-0.0030927734,0.0635309245,4.8368733724,6.9701385498,-12.8082784017
0.1226720810,-0.0182893880,-0.0030927734,0.0635309245,4.8368733724,6.9701385498,-12.8082784017
0.1253709793,-0.0134065755,0.0462236328,0.0400934245,5.4014485677,6.8175506591,-11.9995625813
0.1280341148,-0.0134065755,0.0462236328,0.0400934245,5.4014485677,6.8175506591,-11.9995625813
0.1306040287,-0.0134065755,0.0462236328,0.0400934245,6.5305989583,7.1379852294,-11.2976582845
0.1331770420,-0.0134065755,0.0462236328,0.0400934245,6.5305989583,7.1379852294,-11.2976582845
0.1357550621,-0.0265901693,0.0218095704,0.0347223307,7.5376790364,8.0229949951,-10.6415303548
0.1384119987,-0.0265901693,0.0218095704,0.0347223307,7.5376790364,8.0229949951,-10.6415303548
0.1410751343,-0.0265901693,0.0218095704,0.0347223307,7.5834554036,8.4502410888,-10.1837666829
0.1437489986,-0.0265901693,0.0218095704,0.0347223307,7.5834554036,8.4502410888,-10.1837666829
0.1465110779,-0.0182893880,0.0491533204,0.0259332682,7.7207845052,8.3129119873,-9.0546162923
0.1490921974,-0.0182893880,0.0491533204,0.0259332682,7.7207845052,8.3129119873,-9.0546162923
0.1516690254,-0.0182893880,0.0491533204,0.0259332682,9.0788167318,8.2823944091,-8.1543477376
0.1542429924,-0.0182893880,0.0491533204,0.0259332682,9.0788167318,8.2823944091,-8.1543477376
0.1570391655,-0.0011995443,0.0779619141,0.0210504557,10.6962483724,8.5723114013,-7.9254659017
0.1596140862,-0.0011995443,0.0779619141,0.0210504557,10.6962483724,8.5723114013,-7.9254659017
0.1621880531,-0.0011995443,0.0779619141,0.0210504557,12.4510091146,8.0535125732,-6.9183858235
0.1647701263,-0.0011995443,0.0779619141,0.0093317057,12.4510091146,8.0535125732,-6.9183858235
0.1675651073,-0.0036409505,0.0667314454,0.0093317057,12.9545491536,8.1145477294,-5.9723409017
0.1702680588,-0.0036409505,0.0667314454,0.0093317057,12.9545491536,8.1145477294,-5.9723409017
0.1729531288,-0.0036409505,0.0667314454,0.0093317057,13.5496419271,8.8774871826,-4.5685323079
0.1756420135,-0.0036409505,0.0564775391,0.0186090495,13.5496419271,8.8774871826,-4.5685323079
0.1782650948,-0.0041292317,0.0564775391,0.0186090495,13.8090413411,9.0605926513,-2.7985127767
0.1809489727,-0.0041292317,0.0564775391,0.0186090495,13.8090413411,9.0605926513,-2.7985127767
0.1835219860,-0.0041292317,0.0564775391,0.0186090495,13.9921468099,9.3505096435,-1.2115987141
0.1861000061,0.0056363933,0.0696611328,0.0278863932,13.9921468099,9.3505096435,-1.2115987141
0.1887931824,0.0056363933,0.0696611328,0.0278863932,13.9921468099,9.9150848388,0.6194559733
0.1914930344,0.0056363933,0.0696611328,0.0278863932,14.6635335286,9.9150848388,0.6194559733
0.1941821575,0.0056363933,0.0696611328,0.0278863932,14.6635335286,10.5864715576,2.4199930827
0.1970770359,0.0119840495,0.0764970704,0.0190973307,15.1365559896,10.5864715576,2.4199930827
0.1996510029,0.0119840495,0.0764970704,0.0190973307,15.1365559896,11.2425994873,3.7475077312
0.2022280693,0.0119840495,0.0764970704,0.0190973307,15.2281087239,11.2425994873,3.7475077312
0.2047951221,0.0119840495,0.0764970704,0.0190973307,15.2281087239,11.2425994873,5.2886454265
0.2075340748,0.0095426433,0.0760087891,0.0244684245,15.5485432942,11.5782928466,5.2886454265
0.2101991177,0.0095426433,0.0760087891,0.0244684245,15.5485432942,11.5782928466,6.7534891765
0.2129530907,0.0095426433,0.0760087891,0.0244684245,15.0450032552,11.8376922607,6.7534891765
0.2168459892,0.0095426433,0.0652666016,0.0322809245,14.7398274739,12.5548553466,8.0352274577
0.2194311619,0.0095426433,0.0652666016,0.0322809245,14.7398274739,12.5548553466,8.0352274577
0.2220041752,0.0095426433,0.0652666016,0.0322809245,14.3125813802,12.9363250732,9.2864481609
0.2245731354,0.0095426433,0.0652666016,0.0322809245,14.3125813802,12.9363250732,9.2864481609
0.2271530628,-0.0036409505,0.0745439454,0.0474176432,13.2902425130,13.6077117920,10.8733622233
0.2297210693,-0.0036409505,0.0745439454,0.0474176432,13.2902425130,13.6077117920,10.8733622233
0.2322871685,-0.0036409505,0.0745439454,0.0474176432,13.2902425130,14.3401336670,11.6210428874
0.2348601818,-0.0036409505,0.0745439454,0.0474176432,13.2749837239,14.3401336670,11.6210428874
0.2374830246,-0.0095003255,0.1033525391,0.0327692057,13.2749837239,14.3401336670,11.9109598796
0.2400619984,-0.0095003255,0.1033525391,0.0327692057,13.5343831380,14.1265106201,11.9109598796
0.2426362038,-0.0095003255,0.1033525391,0.0327692057,13.5343831380,14.1265106201,12.5823465983
0.2453150749,-0.0095003255,0.1033525391,0.0327692057,13.5801595052,13.7145233154,12.5823465983
0.2479021549,-0.0163362630,0.1028642578,0.0308160807,13.5801595052,13.7145233154,12.5823465983
0.2504720688,-0.0163362630,0.1028642578,0.0308160807,13.7480061849,13.5161590576,12.8417460124
0.2530481815,-0.0163362630,0.1028642578,0.0308160807,13.7480061849,13.5161590576,12.8417460124
0.2556250095,-0.0163362630,0.1028642578,0.0156793619,14.3583577474,13.7297821044,12.7807108562
0.2582800388,-0.0041292317,0.1253251954,0.0156793619,14.3583577474,13.7297821044,12.7807108562
0.2608580589,-0.0041292317,0.1253251954,0.0156793619,15.6858723958,13.5619354248,12.8722635905
0.2634291649,-0.0041292317,0.1253251954,0.0156793619,15.6858723958,13.5619354248,12.8722635905
0.2659959793,-0.0041292317,0.1385087891,0.0049371745,17.0439046224,13.5771942138,13.4063212077
0.2687439919,-0.0051057943,0.1385087891,0.0049371745,17.0439046224,13.5771942138,13.4063212077
0.2713119984,-0.0051057943,0.1385087891,0.0049371745,16.9676106771,13.5619354248,13.5283915202
0.2738862038,-0.0051057943,0.1385087891,0.0049371745,16.9676106771,13.5619354248,13.5283915202
0.2766351700,-0.0051057943,0.1341142578,0.0049371745,17.7458089192,13.8671112060,13.5894266765
0.2792019844,-0.0002229817,0.1341142578,0.0049371745,17.7458089192,13.8671112060,13.5894266765
0.2817771435,-0.0002229817,0.1341142578,0.0049371745,18.0967610677,14.3553924560,14.0471903483
0.2843561172,-0.0002229817,0.1341142578,0.0049371745,18.0967610677,14.3553924560,14.0471903483
0.2869482040,-0.0148714193,0.1336259766,0.0010309245,18.0967610677,14.6758270263,13.7877909343
0.2895250320,-0.0148714193,0.1336259766,0.0010309245,17.8678792318,14.6758270263,13.7877909343
0.2920961380,-0.0148714193,0.1336259766,0.0010309245,17.8678792318,15.0420379638,14.5659891765
0.2946660519,-0.0148714193,0.1336259766,0.0010309245,17.4101155599,15.0420379638,14.5659891765
0.2973489761,-0.0324495443,0.1414384766,-0.0311956381,17.4101155599,15.7134246826,15.5730692546
0.3001070023,-0.0324495443,0.1414384766,-0.0311956381,16.3420003255,15.7134246826,15.5730692546
0.3026840687,-0.0324495443,0.1414384766,-0.0311956381,16.3420003255,15.7134246826,16.5343729655
0.3052539825,-0.0324495443,0.1414384766,-0.0311956381,15.7011311849,15.9880828857,16.5343729655
0.3081171513,-0.0436800130,0.1502275391,-0.0390081381,15.7011311849,15.9880828857,17.2057596843
0.3106951714,-0.0436800130,0.1502275391,-0.0390081381,14.6177571614,16.3542938232,17.2057596843
0.3138620853,-0.0436800130,0.1502275391,-0.0390081381,14.6177571614,16.2627410888,18.1060282390
0.3165230751,-0.0436800130,0.1502275391,-0.0394964193,13.7937825521,16.2627410888,18.1060282390
0.3190879822,-0.0329378255,0.1521806641,-0.0394964193,13.7937825521,16.2627410888,18.6858622233
0.3216540813,-0.0329378255,0.1521806641,-0.0394964193,13.2444661458,15.6066131591,18.6858622233
0.3242251873,-0.0329378255,0.1521806641,-0.0394964193,13.2444661458,15.6066131591,22.5921122233
0.3267991543,-0.0329378255,0.1604814454,-0.0507268881,13.0766194661,15.1335906982,19.4030253093
0.3293781281,-0.0417268880,0.1604814454,-0.0507268881,13.0766194661,15.1335906982,19.4030253093
0.3319480419,-0.0417268880,0.1604814454,-0.0507268881,12.4052327474,14.6300506591,20.0133768718
0.3345160484,-0.0417268880,0.1604814454,-0.0507268881,12.4052327474,14.6300506591,20.0133768718
0.3371319771,-0.0417268880,0.1687822266,-0.0624456381,12.2373860677,14.9810028076,20.0896708171
0.3397080898,-0.0524690755,0.1687822266,-0.0624456381,12.2373860677,14.9810028076,20.0896708171
0.3422780037,-0.0524690755,0.1687822266,-0.0624456381,12.0390218099,15.0115203857,21.0357157390
0.3448550701,-0.0524690755,0.1687822266,-0.0624456381,12.0390218099,15.0115203857,21.0357157390
0.3474731445,-0.0480745443,0.1687822266,-0.0507268881,11.8711751302,15.3014373779,21.5850321452
0.3500430584,-0.0480745443,0.1687822266,-0.0507268881,11.8711751302,15.3014373779,21.5850321452
0.3526129723,-0.0480745443,0.1687822266,-0.0507268881,10.9709065755,15.6981658935,22.9278055827
0.3551790714,-0.0480745443,0.1687822266,-0.0507268881,10.9709065755,15.6981658935,22.9278055827
0.3578321934,-0.0593050130,0.1604814454,-0.0346136068,10.3910725911,16.2169647216,23.9806620280
0.3604130745,-0.0593050130,0.1604814454,-0.0346136068,10.3910725911,16.2169647216,23.9806620280
0.3629920483,-0.0593050130,0.1604814454,-0.0346136068,10.3910725911,16.9188690185,25.2776590983
0.3655691147,-0.0593050130,0.1604814454,-0.0346136068,9.4145100911,16.9188690185,25.2776590983
0.3683340549,-0.0920198567,0.1468095704,-0.0258245443,9.4145100911,17.9412078857,26.6662089030
0.3711400032,-0.0920198567,0.1468095704,-0.0258245443,7.3698323568,17.9412078857,26.6662089030
0.3738501072,-0.0920198567,0.1468095704,-0.0258245443,7.3698323568,18.2006072998,29.0618387859
0.3765711784,-0.0920198567,0.1468095704,-0.0258245443,5.8134358724,18.2006072998,29.0618387859
0.3792719841,-0.0793245443,0.1624345704,-0.0101995443,5.8134358724,19.0398406982,31.4574686687
0.3819730282,-0.0793245443,0.1624345704,-0.0101995443,4.5469563802,19.0398406982,31.4574686687
0.3846731186,-0.0793245443,0.1624345704,-0.0101995443,4.5469563802,19.3907928466,33.8530985515
0.3873810768,-0.0793245443,0.1541337891,0.0044488932,3.0210774739,19.3907928466,33.8530985515
0.3900790215,-0.0983675130,0.1541337891,0.0044488932,3.0210774739,20.0621795654,35.9282938640
0.3927731514,-0.0983675130,0.1541337891,0.0044488932,1.9987386068,20.0621795654,35.9282938640
0.3954792023,-0.0983675130,0.1541337891,0.0044488932,1.9987386068,20.2605438232,38.0187479655
0.3981041908,-0.1271761067,0.1346025391,0.0283746745,1.1900227864,20.2605438232,38.0187479655
0.4008331299,-0.1271761067,0.1346025391,0.0283746745,1.1900227864,20.2605438232,40.1397196452
0.4034080505,-0.1271761067,0.1346025391,0.0283746745,0.1676839192,20.6877899170,40.1397196452
0.4059791565,-0.1271761067,0.1346025391,0.0283746745,0.1676839192,20.6877899170,42.4285380046
0.4087221622,-0.1530550130,0.1516923828,0.0576715495,0.1829427083,20.7335662841,42.4285380046
0.4113900661,-0.1530550130,0.1516923828,0.0576715495,0.1829427083,20.7335662841,44.9004618327
0.4143869877,-0.1530550130,0.1516923828,0.0576715495,1.5104573568,20.3368377685,44.9004618327
0.4170520306,-0.1530550130,0.1516923828,0.1826715495,1.5104573568,20.3368377685,47.3876444499
0.4196240902,-0.1647737630,0.1380205078,0.0786676432,2.3954671224,19.4213104248,47.3876444499
0.4221930504,-0.1647737630,0.1380205078,0.0786676432,2.3954671224,19.4213104248,47.3876444499
0.4247620106,-0.1647737630,0.1380205078,0.0786676432,4.0128987630,17.7581024170,50.3020731609
0.4273421764,-0.1647737630,0.1380205078,0.0742731119,4.0128987630,17.7581024170,50.3020731609
0.4299151897,-0.1940706380,0.1204423828,0.0742731119,5.7524007161,16.5221405029,52.4383036296
0.4324841499,-0.1940706380,0.1204423828,0.0742731119,5.7524007161,16.5221405029,52.4383036296
0.4350571632,-0.1940706380,0.1204423828,0.0742731119,7.6902669271,15.1641082763,54.8034159343
0.4377830029,-0.1940706380,0.1346025391,0.0420465495,7.6902669271,15.1641082763,54.8034159343
0.4403541088,-0.2306917317,0.1346025391,0.0420465495,9.7349446614,13.3635711670,57.6262919109
0.4429271221,-0.2306917317,0.1346025391,0.0420465495,9.7349446614,13.3635711670,57.6262919109
0.4454920292,-0.2306917317,0.1346025391,0.0420465495,13.1681722005,11.3036346435,59.7777811687
0.4480991364,-0.2306917317,0.1175126954,0.0356988932,13.1681722005,11.3036346435,59.7777811687
0.4506740570,-0.2575472005,0.1175126954,0.0356988932,16.9828694661,9.7319793701,62.6922098796
0.4532461166,-0.2575472005,0.1175126954,0.0356988932,16.9828694661,9.7319793701,62.6922098796
0.4558200836,-0.2575472005,0.1175126954,0.0356988932,19.6378987630,7.2905731201,64.9657694499
0.4585490227,-0.2809847005,0.0965166016,0.0264215495,19.6378987630,7.2905731201,64.9657694499
0.4611151218,-0.2809847005,0.0965166016,0.0264215495,23.5441487630,4.7118377685,67.3613993327
0.4636960030,-0.2809847005,0.0965166016,0.0264215495,23.3152669271,4.7118377685,67.3613993327
0.4663591385,-0.2809847005,0.0965166016,0.0264215495,23.3152669271,1.7668914794,68.2921854655
0.4689300060,-0.3200472005,0.0872392578,0.0288629557,27.1909993489,1.7668914794,68.2921854655
0.4715030193,-0.3200472005,0.0872392578,0.0288629557,27.1909993489,1.7668914794,69.4976298015
0.4740700722,-0.3200472005,0.0872392578,0.0288629557,30.3343098958,-1.5747833252,69.4976298015
0.4766511917,-0.3200472005,0.0872392578,0.0288629557,30.3343098958,-1.5747833252,73.4038798015
0.4792251587,-0.3429964193,0.0979814454,0.0029840495,33.7065022786,-4.3213653565,71.7406717937
0.4817941189,-0.3429964193,0.0979814454,0.0029840495,33.7065022786,-4.3213653565,71.7406717937
0.4843699932,-0.3429964193,0.0979814454,0.0029840495,38.8487141927,-7.2357940674,73.2665506999
0.4869899750,-0.3429964193,0.0979814454,0.0029840495,38.8487141927,-7.2357940674,73.2665506999
0.4896960258,-0.3400667317,0.0818681641,0.0361871745,49.1026204427,-11.0962677002,72.6561991374
0.4924101830,-0.3400667317,0.0818681641,0.0361871745,49.1026204427,-11.0962677002,72.6561991374
0.4951150417,-0.3400667317,0.0818681641,0.0361871745,58.3647054036,-14.6515655518,73.2818094890
0.4977710247,-0.3400667317,0.0818681641,0.0361871745,58.3647054036,-14.6515655518,73.2818094890
0.5004611015,-0.3669222005,0.1048173828,0.0049371745,68.0540364583,-17.3065948487,74.8382059733
0.5030660629,-0.3669222005,0.1048173828,0.0049371745,68.0540364583,-17.3065948487,74.8382059733
0.5056471825,-0.3669222005,0.1048173828,0.0049371745,78.5826009114,-18.9545440674,75.6164042155
0.5084850788,-0.3669222005,0.1370439454,0.0161676432,78.5826009114,-18.9545440674,75.6164042155
0.5111670494,-0.3840120443,0.1370439454,0.0161676432,87.9209798177,-20.1599884034,76.1046854655
0.5145161152,-0.3840120443,0.1370439454,0.0161676432,87.9209798177,-20.1599884034,76.1046854655
0.5171611309,-0.3840120443,0.1370439454,0.0161676432,97.9154866536,-19.6869659424,76.2725321452
0.5197410583,-0.4059847005,0.1116533204,0.0557184245,97.9154866536,-19.6869659424,76.2725321452
0.5223121643,-0.4059847005,0.1116533204,0.0557184245,99.6549886068,-18.5425567627,74.3804423015
0.5248870850,-0.4059847005,0.1116533204,0.0557184245,99.6549886068,-18.5425567627,74.3804423015
0.5275151730,-0.4059847005,0.1116533204,0.0557184245,90.5302327474,-19.3207550049,69.7112528483
0.5300900936,-0.3722932943,-0.0641279296,0.1216363932,90.5302327474,-19.3207550049,69.7112528483
0.5326700211,-0.3722932943,-0.0641279296,0.1216363932,86.2882893880,-18.6798858643,64.4011942546
0.5352389812,-0.3722932943,-0.0641279296,0.1216363932,86.2882893880,-18.6798858643,64.4011942546
0.5378592014,-0.3722932943,-0.0641279296,0.1216363932,88.8059895833,-17.4897003174,61.5020243327
0.5404369831,-0.3039339193,0.0164384766,0.1328668619,88.8059895833,-17.4897003174,61.5020243327
0.5430111885,-0.3039339193,0.0164384766,0.1328668619,91.5373128255,-16.0553741456,61.7309061687
0.5455791950,-0.3039339193,0.0164384766,0.1328668619,91.5373128255,-16.0553741456,61.7309061687
0.5481600761,-0.3039339193,0.0164384766,0.1328668619,95.4435628255,-13.7970733643,63.2567850749
0.5507311821,-0.1720979817,0.1414384766,0.1572809245,96.0081380208,-13.7970733643,63.2567850749
0.5533151627,-0.1720979817,0.1414384766,0.1572809245,96.0081380208,-13.7970733643,65.0268046062
0.5558891296,-0.1720979817,0.1414384766,0.1572809245,99.1819661458,-12.3322296143,65.0268046062
0.5585939884,-0.1720979817,0.1414384766,0.1802301432,99.1819661458,-12.3322296143,65.9728495280
0.5611770153,-0.1232698567,0.2327470704,0.1802301432,99.1209309896,-11.3251495362,65.9728495280
0.5638639927,-0.1232698567,0.2327470704,0.1802301432,99.1209309896,-11.3251495362,65.7287089030
0.5666191578,-0.1232698567,0.2327470704,0.1802301432,99.2277425130,-11.1573028565,65.7287089030
0.5693299770,-0.1232698567,0.2268876954,0.2061090495,99.2277425130,-11.1573028565,65.0573221843
0.5720381737,-0.0837190755,0.2268876954,0.2061090495,95.9318440755,-12.3017120362,65.0573221843
0.5747480392,-0.0837190755,0.2268876954,0.2061090495,95.9318440755,-12.3017120362,62.2039286296
0.5774571896,-0.0837190755,0.2268876954,0.2061090495,90.0419514974,-13.7818145752,62.2039286296
0.5801620483,0.0735074870,0.1692705078,0.1958551432,90.0419514974,-13.7818145752,57.7788798015
0.5828740597,0.0735074870,0.1692705078,0.1958551432,91.2168782552,-16.1316680909,57.7788798015
0.5855829716,0.0735074870,0.1692705078,0.1958551432,91.2168782552,-16.1316680909,51.6753641765
0.5883340836,0.0735074870,0.1692705078,0.1958551432,98.9073079427,-17.1845245362,51.6753641765
0.5910501480,0.1926481120,0.0188798828,0.1406793619,98.9073079427,-17.1845245362,43.2830301921
0.5937571526,0.1926481120,0.0188798828,0.1406793619,108.1693929036,-17.8406524659,43.2830301921
0.5965089798,0.1926481120,0.0188798828,0.1406793619,108.1693929036,-17.8406524659,33.6699930827
0.5990819931,0.1926481120,-0.2311201172,0.1021051432,110.2751057942,-19.4275665284,33.6699930827
0.6016581059,0.2463590495,-0.1661787109,0.1021051432,110.2751057942,-19.4275665284,33.6699930827
0.6042439938,0.2463590495,-0.1661787109,0.1021051432,108.0015462239,-25.8057403565,22.3021952312
0.6068592072,0.2463590495,-0.1661787109,0.1021051432,108.0015462239,-25.8057403565,22.3021952312
0.6095681190,0.2463590495,-0.3370771484,0.1006402995,107.7726643880,-31.9397735596,8.5082499187
0.6122741699,0.2849332683,-0.3370771484,0.1006402995,107.7726643880,-31.9397735596,8.5082499187
0.6149821281,0.2849332683,-0.3370771484,0.1006402995,107.0097249349,-33.7097930909,-7.4371846517
0.6177451611,0.2849332683,-0.3370771484,0.1006402995,107.0097249349,-33.7097930909,-7.4371846517
0.6204531193,0.2746793620,-0.4781904296,-0.0136175131,104.0800374349,-31.9855499268,-22.3755391438
0.6232461929,0.2746793620,-0.4781904296,-0.0136175131,104.0800374349,-31.9855499268,-22.3755391438
0.6259620190,0.2746793620,-0.4781904296,-0.0136175131,99.4566243489,-30.2460479737,-33.3618672688
0.6287779808,0.2746793620,-0.4781904296,-0.0136175131,99.4566243489,-30.2460479737,-33.3618672688
0.6314840317,0.3274137370,-0.4708662109,-0.0932073568,91.7814534505,-29.6051788330,-41.5710957845
0.6341900826,0.3274137370,-0.4708662109,-0.0932073568,91.7814534505,-29.6051788330,-41.5710957845
0.6369380951,0.3274137370,-0.4708662109,-0.0932073568,82.5346272786,-29.2237091065,-49.9176534017
0.6396431923,0.3274137370,-0.4278974609,-0.1518011068,82.5346272786,-29.2237091065,-49.9176534017
0.6423501968,0.3606168620,-0.4278974609,-0.1518011068,71.7466634114,-28.6743927002,-58.8593037923
0.6450581551,0.3606168620,-0.4278974609,-0.1518011068,71.7466634114,-28.6743927002,-58.8593037923
0.6477081776,0.3606168620,-0.4278974609,-0.1518011068,59.3870442708,-27.4842071534,-66.9769795735
0.6502830982,0.3913785807,-0.2989912109,-0.1850042318,59.3870442708,-27.4842071534,-66.9769795735
0.6528551579,0.3913785807,-0.2989912109,-0.1850042318,48.7364095052,-26.6297149659,-73.4009297688
0.6554310322,0.3913785807,-0.2989912109,-0.1850042318,48.7364095052,-26.6297149659,-73.4009297688
0.6580631733,0.3913785807,-0.2989912109,-0.1850042318,40.3288167318,-27.0569610596,-80.2063496907
0.6606380939,0.4153043620,-0.2027998046,-0.1693792318,40.3288167318,-27.0569610596,-80.2063496907
0.6632151604,0.4153043620,-0.2027998046,-0.1693792318,33.4013264974,-27.7130889893,-87.4390157063
0.6657931805,0.4153043620,-0.2027998046,-0.1693792318,33.4013264974,-27.7130889893,-87.4390157063
0.6685290337,0.4153043620,-0.2027998046,-0.1693792318,26.7179768880,-28.8727569580,-95.9686787923
0.6711080074,0.3860074870,-0.1656904296,-0.1405706381,26.7179768880,-28.8727569580,-95.9686787923
0.6736841202,0.3860074870,-0.1656904296,-0.1405706381,19.8057454427,-30.1392364502,-104.5593770345
0.6763591766,0.3860074870,-0.1656904296,-0.1405706381,19.8057454427,-30.1392364502,-104.5593770345
0.6790680885,0.3860074870,-0.1656904296,-0.1405706381,13.2139485677,-31.4362335206,-113.5468037923
0.6817750931,0.3469449870,-0.1725263672,-0.1268987631,13.2139485677,-31.4362335206,-113.5468037923
0.6844811440,0.3469449870,-0.1725263672,-0.1268987631,6.7442220052,-32.7332305909,-122.5494893391
0.6871960163,0.3469449870,-0.1725263672,-0.1268987631,6.7442220052,-32.7332305909,-122.5494893391
0.6899011135,0.3469449870,-0.1725263672,-0.1337347005,-1.4955240886,-34.0912628174,-131.4453633626
0.6927161217,0.3327848307,-0.1959638672,-0.1337347005,-1.4955240886,-34.0912628174,-131.4453633626
0.6954231262,0.3327848307,-0.1959638672,-0.1337347005,-8.8807779948,-34.3354034424,-139.3341573079
0.6980521679,0.3327848307,-0.1959638672,-0.1337347005,-8.8807779948,-34.3354034424,-139.3341573079
0.7006261349,0.3327848307,-0.1930341796,-0.1493597005,-16.6932779948,-35.0983428956,-146.1548360188
0.7032060623,0.2990934245,-0.1930341796,-0.1493597005,-16.9221598308,-35.0983428956,-146.1548360188
0.7057821751,0.2990934245,-0.1930341796,-0.1493597005,-16.9221598308,-35.4645538330,-152.3041280110
0.7084760666,0.2990934245,-0.1930341796,-0.1493597005,-24.8567301432,-35.4645538330,-152.3041280110
0.7111821175,0.2600309245,-0.1363935546,-0.1732854818,-24.8567301432,-35.3730010987,-158.0109151204
0.7138931751,0.2600309245,-0.1363935546,-0.1732854818,-32.0131022136,-35.3730010987,-158.0109151204
0.7166070938,0.2600309245,-0.1363935546,-0.1732854818,-32.0131022136,-35.2051544190,-163.0157979329
0.7193171978,0.2600309245,-0.1363935546,-0.1732854818,-37.2316080729,-35.2051544190,-163.0157979329
0.7220270634,0.2068082683,-0.0651044922,-0.1630315755,-37.2316080729,-35.2051544190,-168.5547383626
0.7247281075,0.2068082683,-0.0651044922,-0.1630315755,-41.8245035808,-34.8847198487,-168.5547383626
0.7274420261,0.2068082683,-0.0651044922,-0.1630315755,-41.8245035808,-34.8847198487,-174.1547139485
0.7301480770,0.2068082683,-0.0651044922,-0.1747503255,-43.9149576823,-33.7860870362,-174.1547139485
0.7328550816,0.1809293620,-0.0084638672,-0.1747503255,-43.9149576823,-29.8798370362,-179.2206319173
0.7355611324,0.1809293620,-0.0084638672,-0.1747503255,-45.6239420573,-32.8858184815,-179.2206319173
0.7382700443,0.1809293620,-0.0084638672,-0.1747503255,-45.6239420573,-32.8858184815,-184.2407735188
0.7409791946,0.1809293620,0.0271806641,-0.1615667318,-46.9819742839,-32.4127960206,-184.2407735188
0.7436850071,0.1452848307,0.0271806641,-0.1615667318,-46.9819742839,-32.4127960206,-189.2303975423
0.7463870049,0.1452848307,0.0271806641,-0.1615667318,-47.4549967448,-31.6956329346,-189.2303975423
0.7489659786,0.1452848307,0.0271806641,-0.1615667318,-47.4549967448,-31.6956329346,-194.0826924641
0.7515430450,0.0984098307,0.0740556641,-0.1557073568,-47.6533610026,-31.3599395752,-194.0826924641
0.7541160583,0.0984098307,0.0740556641,-0.1557073568,-47.6533610026,-31.3599395752,-197.9889424641
0.7568621635,0.0984098307,0.0740556641,-0.1557073568,-46.6310221354,-30.5664825440,-198.8586934407
0.7595670223,0.0984098307,0.0740556641,-0.1557073568,-46.6310221354,-30.5664825440,-202.7649434407
0.7622730732,0.0583707683,0.1429033204,-0.1425237631,-43.9149576823,-29.8798370362,-202.7191670735
0.7649831772,0.0583707683,0.1429033204,-0.1425237631,-43.9149576823,-29.8798370362,-206.6254170735
0.7677400112,0.0583707683,0.1429033204,-0.1425237631,-41.3209635417,-29.1474151612,-206.7932637532
0.7704491615,0.0583707683,0.1429033204,-0.1571722005,-41.3209635417,-29.1474151612,-210.6995137532
0.7731549740,0.0178434245,0.1995439454,-0.1571722005,-37.9182535808,-27.4384307862,-210.6689961751
0.7758650780,0.0178434245,0.1995439454,-0.1571722005,-37.9182535808,-27.4384307862,-214.5752461751
0.7785761356,0.0178434245,0.1995439454,-0.1571722005,-34.1798502604,-26.9348907471,-214.2395528157
0.7812821865,0.0178434245,0.2180986328,-0.1737737631,-34.1798502604,-26.9348907471,-218.1458028157
0.7839930058,-0.0158479817,0.2180986328,-0.1737737631,-30.3346354167,-26.4008331299,-216.8488057454
0.7867419720,-0.0158479817,0.2180986328,-0.1737737631,-30.3346354167,-26.4008331299,-220.7550557454
0.7894489765,-0.0158479817,0.2180986328,-0.1737737631,-27.0845133464,-26.2940216065,-219.4427998860
0.7921559811,-0.0407503255,0.2322587891,-0.1864690755,-27.0845133464,-26.2940216065,-219.4427998860
0.7948679924,-0.0407503255,0.2322587891,-0.1864690755,-25.2381998698,-26.0041046143,-222.0520528157
0.7975261211,-0.0407503255,0.2322587891,-0.1864690755,-25.2381998698,-26.0041046143,-222.0520528157
0.8001019955,-0.0407503255,0.2322587891,-0.1864690755,-23.4681803386,-25.3022003174,-224.2645772298
0.8026721478,-0.0763948567,0.2268876954,-0.1972112631,-23.4681803386,-25.3022003174,-224.2645772298
0.8052551746,-0.0763948567,0.2268876954,-0.1972112631,-22.9341227214,-24.2798614502,-225.9125264485
0.8079690933,-0.0763948567,0.2268876954,-0.1972112631,-22.9341227214,-24.2798614502,-225.9125264485
0.8107621670,-0.0763948567,0.2268876954,-0.1972112631,-23.6970621745,-23.9136505127,-227.6367696126
0.8133502007,-0.1208284505,0.2132158204,-0.2084417318,-23.6970621745,-23.9136505127,-227.6367696126
0.8159291744,-0.1208284505,0.2132158204,-0.2084417318,-24.9177652995,-22.8455352784,-228.7811787923
0.8186800480,-0.1208284505,0.2132158204,-0.2084417318,-24.9177652995,-22.8455352784,-228.7811787923
0.8215479851,-0.1208284505,0.1897783204,-0.2099065755,-27.4354654948,-21.4417266846,-228.7659200032
0.8242239952,-0.1442659505,0.1897783204,-0.2099065755,-27.4354654948,-21.4417266846,-228.7659200032
0.8274931908,-0.1442659505,0.1897783204,-0.2099065755,-31.2806803386,-20.1447296143,-228.6285909017
0.8300690651,-0.1442659505,0.1897783204,-0.2099065755,-31.2806803386,-20.1447296143,-228.6285909017
0.8326511383,-0.1677034505,0.1736650391,-0.2108831381,-37.4147135417,-17.8711700440,-228.0487569173
0.8352241516,-0.1677034505,0.1736650391,-0.2108831381,-37.4147135417,-17.8711700440,-228.0487569173
0.8378040791,-0.1677034505,0.1736650391,-0.2108831381,-44.6931559245,-16.5741729737,-227.4689229329
0.8403730392,-0.1677034505,0.1736650391,-0.2108831381,-44.6931559245,-16.5741729737,-227.4689229329
0.8429441452,-0.1843050130,0.1629228516,-0.2045354818,-51.9868570964,-14.7431182862,-226.9043477376
0.8455221653,-0.1843050130,0.1629228516,-0.2045354818,-51.9868570964,-14.7431182862,-226.9043477376
0.8481001854,-0.1843050130,0.1629228516,-0.2045354818,-59.3873697917,-13.2782745362,-227.0569356282
0.8506731987,-0.1843050130,0.1629228516,-0.2045354818,-59.3873697917,-13.2782745362,-227.0569356282
0.8532540798,-0.1921175130,0.1609697266,-0.2055120443,-66.8336588542,-11.6303253174,-227.8503926595
0.8558220863,-0.1921175130,0.1609697266,-0.2055120443,-66.8336588542,-11.6303253174,-227.8503926595
0.8584439754,-0.1921175130,0.1609697266,-0.2055120443,-70.7399088542,-10.2265167237,-227.9114278157
0.8610160351,-0.1921175130,0.1609697266,-0.2055120443,-73.8679606120,-10.2265167237,-227.9114278157
0.8635871410,-0.1979768880,0.1682939454,-0.1976995443,-73.8679606120,-6.3202667237,-227.9266866048
0.8661630154,-0.1979768880,0.1682939454,-0.1976995443,-79.8036295573,-8.3191680909,-227.9266866048
0.8687431812,-0.1979768880,0.1682939454,-0.1976995443,-79.8036295573,-8.3191680909,-228.2013448079
0.8713181019,-0.1979768880,0.1682939454,-0.1976995443,-85.8308512370,-6.0303497315,-228.2013448079
0.8739051819,-0.2067659505,0.1599931641,-0.1884222005,-85.8308512370,-6.0303497315,-228.2013448079
0.8766460419,-0.2067659505,0.1599931641,-0.1884222005,-90.9272867839,-4.0619659424,-228.6285909017
0.8792331219,-0.2067659505,0.1599931641,-0.1884222005,-90.9272867839,-4.0619659424,-228.6285909017
0.8818120956,-0.2067659505,0.1599931641,-0.1566839193,-95.5659586589,-2.0630645752,-229.7424825032
0.8845071793,-0.2326448567,0.1472978516,-0.1566839193,-95.5659586589,-2.0630645752,-229.7424825032
0.8872749805,-0.2326448567,0.1472978516,-0.1566839193,-100.5861002604,0.5919647216,-230.2917989095
0.8899781704,-0.2326448567,0.1472978516,-0.1566839193,-100.5861002604,0.5919647216,-230.2917989095
0.8926820755,-0.2575472005,0.1458330078,-0.1420354818,-105.4383951823,2.1483612060,-230.6122334798
0.8953900337,-0.2575472005,0.1458330078,-0.1420354818,-105.4383951823,2.1483612060,-230.6122334798
0.8980550766,-0.2575472005,0.1458330078,-0.1420354818,-110.3059488932,4.5592498779,-230.2155049641
0.9006340504,-0.2575472005,0.1458330078,-0.1420354818,-110.3059488932,4.5592498779,-230.2155049641
0.9032061100,-0.2682893880,0.1609697266,-0.1283636068,-114.6547037761,7.4279022216,-229.6814473470
0.9057819843,-0.2682893880,0.1609697266,-0.1283636068,-114.6547037761,7.4279022216,-229.6814473470
0.9084801674,-0.2682893880,0.1609697266,-0.1283636068,-116.9740397136,9.4573211670,-228.3691914876
0.9111871719,-0.2682893880,0.1609697266,-0.1283636068,-116.9740397136,9.4573211670,-228.3691914876
0.9139261246,-0.2795198567,0.1765947266,-0.1107854818,-117.6912027995,10.8458709716,-227.8809102376
0.9166681767,-0.2795198567,0.1765947266,-0.1107854818,-117.6912027995,10.8458709716,-227.8809102376
0.9193329811,-0.2795198567,0.1765947266,-0.1107854818,-117.1266276042,12.6158905029,-228.5980733235
0.9220631123,-0.2795198567,0.1765947266,-0.0946722005,-117.1266276042,12.6158905029,-228.5980733235
0.9249851704,-0.2936800130,0.1634111328,-0.0946722005,-115.7533365886,15.2251434326,-229.0558369954
0.9277400970,-0.2936800130,0.1634111328,-0.0946722005,-115.7533365886,15.2251434326,-229.0558369954
0.9304461479,-0.2936800130,0.1634111328,-0.0946722005,-113.6323649089,16.8425750732,-228.9490254720
0.9331521988,-0.3117464193,0.1409501954,-0.0731878255,-113.6323649089,16.8425750732,-228.9490254720
0.9358530045,-0.3117464193,0.1409501954,-0.0731878255,-111.9996744792,17.7428436279,-227.5757344563
0.9385681152,-0.3117464193,0.1409501954,-0.0731878255,-111.9996744792,17.7428436279,-227.5757344563
0.9412710667,-0.3117464193,0.1409501954,-0.0731878255,-109.9855143229,19.1924285888,-225.7904561360
0.9439780712,-0.3371370443,0.1389970704,-0.0560979818,-109.9855143229,19.1924285888,-225.7904561360
0.9467132092,-0.3371370443,0.1389970704,-0.0560979818,-107.2389322917,21.3591766357,-223.3185323079
0.9494152069,-0.3371370443,0.1389970704,-0.0560979818,-107.2389322917,21.3591766357,-223.3185323079
0.9519951344,-0.3371370443,0.1389970704,0.0689020182,-106.1402994792,22.7172088623,-220.6329854329
0.9545710087,-0.3317659505,0.1321611328,-0.0292425131,-106.1402994792,22.7172088623,-220.6329854329
0.9571599960,-0.3317659505,0.1321611328,-0.0292425131,-105.0569254558,22.9155731201,-217.0929463704
0.9597439766,-0.3317659505,0.1321611328,-0.0292425131,-105.0569254558,22.9155731201,-217.0929463704
0.9623281956,-0.3317659505,0.1321611328,-0.0453557943,-103.1800944011,24.7466278076,-214.1327412923
0.9649131298,-0.3327425130,0.1150712891,-0.0453557943,-103.1800944011,24.7466278076,-214.1327412923
0.9676311016,-0.3327425130,0.1150712891,-0.0453557943,-100.9980875651,27.2948455810,-210.9283955891
0.9702081680,-0.3327425130,0.1150712891,-0.0453557943,-100.9980875651,27.2948455810,-210.9283955891
0.9727861881,-0.3327425130,0.1097001954,-0.0658636068,-100.9980875651,30.1482391357,-207.4799092610
0.9753620625,-0.3386018880,0.1097001954,-0.0658636068,-99.1212565104,30.1482391357,-207.4799092610
0.9781410694,-0.3386018880,0.1097001954,-0.0658636068,-99.1212565104,32.2692108154,-203.8177998860
0.9808480740,-0.3386018880,0.1097001954,-0.0658636068,-98.6329752604,32.2692108154,-203.8177998860
0.9835510254,-0.3405550130,0.1043291016,-0.0590276693,-94.7267252604,33.8103485107,-199.7894795735
0.9862730503,-0.3405550130,0.1043291016,-0.0590276693,-97.6716715495,33.8103485107,-199.7894795735
0.9889800549,-0.3405550130,0.1043291016,-0.0590276693,-97.6716715495,34.6190643310,-194.9219258626
0.9916892052,-0.3405550130,0.1043291016,-0.0590276693,-95.7948404948,34.6190643310,-194.9219258626
0.9944009781,-0.3151643880,0.1302080078,-0.0351018881,-95.7948404948,35.6719207763,-189.9017842610
0.9971101284,-0.3151643880,0.1302080078,-0.0351018881,-94.8640543620,35.6719207763,-189.9017842610
0.9996881485,-0.3151643880,0.1302080078,-0.0351018881,-94.8640543620,39.5781707763,-184.8358662923
1.0022680759,-0.3151643880,0.1302080078,-0.0351018881,-93.8417154948,37.1062469482,-184.8358662923
1.0048480034,-0.2565706380,0.1448564454,-0.0263128255,-93.8417154948,37.1062469482,-179.8004659017
1.0075500011,-0.2565706380,0.1448564454,-0.0263128255,-92.3921305339,37.6555633544,-179.8004659017
1.0102601051,-0.2565706380,0.1448564454,-0.0263128255,-92.3921305339,37.6555633544,-174.9481709798
1.0130732059,-0.2565706380,0.1448564454,0.0059137369,-90.0575358073,36.8163299560,-174.9481709798
1.0158240795,-0.1862581380,0.1785478516,0.0059137369,-90.0575358073,36.8163299560,-169.2261250813
1.0186431408,-0.1862581380,0.1785478516,0.0059137369,-86.7158610026,36.2670135498,-169.2261250813
1.0213232040,-0.1862581380,0.1785478516,0.0059137369,-81.6652018229,35.2751922607,-163.6108907063
1.0245490074,-0.0871370443,0.2263994141,0.0430231119,-81.6652018229,35.2751922607,-163.6108907063
1.0271670818,-0.0871370443,0.2263994141,0.0430231119,-77.7589518229,32.2997283935,-157.7057393391
1.0297501087,-0.0871370443,0.2263994141,0.0430231119,-76.5535074870,32.2997283935,-157.7057393391
1.0323200226,-0.0871370443,0.2263994141,0.0430231119,-76.5535074870,28.3934783935,-151.3275655110
1.0348951817,-0.0031526693,0.2552080078,0.0664606119,-71.2434488932,28.5765838623,-151.3275655110
1.0375599861,-0.0031526693,0.2552080078,0.0664606119,-71.2434488932,28.5765838623,-144.5984395345
1.0401351452,-0.0031526693,0.2552080078,0.0664606119,-65.8418375651,25.5095672607,-144.5984395345
1.0427119732,-0.0031526693,0.2552080078,0.0664606119,-65.8418375651,25.5095672607,-140.6921895345
1.0452821255,0.0529996745,0.2639970704,0.1148004557,-60.7759195964,21.3744354248,-138.1287129720
1.0479149818,0.0529996745,0.2639970704,0.1148004557,-60.7759195964,21.3744354248,-138.1287129720
1.0504870415,0.0529996745,0.2639970704,0.1148004557,-54.7029215495,17.5292205810,-131.5979512532
1.0530571938,0.0529996745,0.2639970704,0.1148004557,-54.7029215495,17.5292205810,-131.5979512532
1.0556321144,0.0647184245,0.3079423828,0.0967340495,-46.8293863932,13.5314178466,-124.0601094563
1.0582699776,0.0647184245,0.3079423828,0.0967340495,-46.8293863932,13.5314178466,-124.0601094563
1.0608401299,0.0647184245,0.3079423828,0.0967340495,-38.1776529948,10.2812957763,-115.8966573079
1.0634160042,0.0647184245,0.3079423828,0.0908746745,-38.1776529948,10.2812957763,-115.8966573079
1.0659911633,0.0852262370,0.3714189454,0.0908746745,-28.6561686198,7.5652313232,-107.7179463704
1.0687370300,0.0852262370,0.3714189454,0.0908746745,-28.6561686198,7.5652313232,-107.7179463704
1.0713171959,0.0852262370,0.3714189454,0.0908746745,-18.1276041667,4.8339080810,-99.5087178548
1.0738921165,0.0852262370,0.4021806641,0.0772027995,-18.1276041667,4.8339080810,-99.5087178548
1.0767350197,0.0642301433,0.4021806641,0.0772027995,-7.7363688151,2.9418182373,-90.5518086751
1.0794370174,0.0642301433,0.4021806641,0.0772027995,-7.7363688151,2.9418182373,-90.5518086751
1.0821352005,0.0642301433,0.4021806641,0.0772027995,2.1665852864,1.8431854248,-80.7404073079
1.0848410130,0.0676481120,0.3816728516,0.0552301432,2.1665852864,1.8431854248,-80.7404073079
1.0874941349,0.0676481120,0.3816728516,0.0552301432,10.7420247396,1.7821502685,-70.9747823079
1.0900690556,0.0676481120,0.3816728516,0.0552301432,10.7420247396,1.7821502685,-70.9747823079
1.0926480293,0.0676481120,0.3816728516,0.0552301432,17.3185628255,2.4840545654,-60.7208760579
1.0952200890,0.0578824870,0.3284501954,0.0122613932,17.3185628255,2.4840545654,-60.7208760579
1.0979239941,0.0578824870,0.3284501954,0.0122613932,21.2248128255,3.5369110107,-51.1688741048
1.1006281376,0.0578824870,0.3284501954,0.0122613932,21.1942952474,3.5369110107,-51.1688741048
1.1033301353,0.0578824870,0.3284501954,0.0122613932,25.1005452474,5.6578826904,-40.9607442220
1.1060340405,0.0451871745,0.2903642578,-0.0204534505,23.5136311849,5.6578826904,-40.9607442220
1.1087460518,0.0451871745,0.2903642578,-0.0204534505,23.5136311849,8.1450653076,-31.5002950032
1.1114451885,0.0451871745,0.2903642578,-0.0204534505,23.8645833333,8.1450653076,-31.5002950032
1.1141490936,0.0451871745,0.2742509766,-0.0331487631,19.9583333333,9.8998260498,-21.2616475423
1.1168541908,0.0378629557,0.2742509766,-0.0331487631,22.8422444661,9.8998260498,-21.2616475423
1.1195631027,0.0378629557,0.2742509766,-0.0331487631,22.8422444661,11.3036346435,-10.7483418782
1.1222681999,0.0378629557,0.2742509766,-0.0331487631,20.7823079427,11.3036346435,-10.7483418782
1.1249670982,0.0241910807,0.2835283204,-0.0199651693,20.7823079427,12.7532196044,-0.5707295735
1.1277241707,0.0241910807,0.2835283204,-0.0199651693,17.7458089192,12.7532196044,-0.5707295735
1.1304249763,0.0241910807,0.2835283204,-0.0199651693,17.7458089192,13.6534881591,9.9120585124
1.1332790852,0.0241910807,0.2835283204,-0.0199651693,15.4417317708,13.6534881591,9.9120585124
1.1359920502,0.0144254557,0.3055009766,-0.0092229818,11.5354817708,13.6077117920,19.8302714030
1.1386201382,0.0144254557,0.3055009766,-0.0092229818,12.1000569661,13.6077117920,19.8302714030
1.1411921978,0.0144254557,0.3055009766,-0.0092229818,12.1000569661,13.6077117920,28.9397684733
1.1438701153,0.0144254557,0.3055009766,-0.0092229818,8.3921712239,13.7450408935,28.9397684733
1.1465141773,0.0261442057,0.3118486328,0.0156793619,8.3921712239,13.7450408935,37.9271952312
1.1492211819,0.0261442057,0.3118486328,0.0156793619,4.1502278646,13.6687469482,37.9271952312
1.1519200802,0.0261442057,0.3118486328,0.0156793619,4.1502278646,13.6687469482,46.7620340983
1.1546220779,0.0261442057,0.3250322266,0.0693902995,-0.2748209636,13.5009002685,46.7620340983
1.1573309898,0.0446988933,0.3250322266,0.0693902995,-0.2748209636,13.5009002685,55.1848856609
1.1600310802,0.0446988933,0.3250322266,0.0693902995,-2.8688151042,12.2801971435,55.1848856609
1.1627290249,0.0446988933,0.3250322266,0.0693902995,-2.8688151042,12.2801971435,63.6840311687
1.1654272079,0.0603238933,0.3479814454,0.0864801432,-4.4557291667,10.8763885498,63.6840311687
1.1680531502,0.0603238933,0.3479814454,0.0864801432,-4.4557291667,10.8763885498,69.4365946452
1.1706240177,0.0603238933,0.3479814454,0.0864801432,-6.4241129558,8.8164520263,69.4365946452
1.1731882095,0.0603238933,0.3479814454,0.0864801432,-6.4241129558,8.8164520263,69.4365946452
1.1757581234,-0.0627229817,0.0174150391,0.0107965495,-6.4241129558,6.7107391357,62.6769510905
1.1784551144,-0.0627229817,0.0174150391,0.0107965495,-6.4241129558,6.7107391357,62.6769510905
1.1810259819,-0.0627229817,0.0174150391,0.0107965495,-19.5466715495,9.2894744873,66.5832010905
1.1836030483,-0.0627229817,0.0174150391,0.0107965495,-19.5466715495,9.2894744873,66.5832010905
1.1861841679,-0.1305940755,-0.4049482422,-0.1264104818,-26.4894205729,12.8142547607,71.4354960124
1.1890480518,-0.1305940755,-0.4049482422,-0.1264104818,-26.4894205729,12.8142547607,71.4354960124
1.1917521954,-0.1305940755,-0.4049482422,-0.1264104818,-28.7934977214,14.7673797607,64.3706766765
1.1944580078,-0.1305940755,-0.4049482422,-0.1351995443,-28.7934977214,14.7673797607,64.3706766765
1.1971709728,-0.2678011067,-1.0904951172,-0.1351995443,-40.5122477214,14.0807342529,59.8693339030
1.1998751163,-0.2678011067,-1.0904951172,-0.1351995443,-40.5122477214,14.0807342529,59.8693339030
1.2025849819,-0.2678011067,-1.0904951172,-0.1351995443,-51.2696940104,8.7554168701,60.4186503093
1.2052891254,-0.3928011067,-1.0245771484,-0.0336370443,-51.2696940104,8.7554168701,60.4186503093
1.2081182003,-0.2844026693,-1.0245771484,-0.0336370443,-57.7089029948,2.6061248779,64.1570536296
1.2108161449,-0.2844026693,-1.0245771484,-0.0336370443,-57.7089029948,2.6061248779,64.1570536296
1.2135171890,-0.2844026693,-1.0245771484,-0.0336370443,-60.8979899089,1.9805145263,72.3205057780
1.2162320614,-0.3449495443,-0.2980146484,-0.0976018881,-60.8979899089,1.9805145263,72.3205057780
1.2188091278,-0.3449495443,-0.2980146484,-0.0976018881,-64.0260416667,2.6061248779,84.1155497233
1.2214190960,-0.3449495443,-0.2980146484,-0.0976018881,-64.0260416667,2.6061248779,84.1155497233
1.2239902020,-0.3449495443,-0.2980146484,-0.0976018881,-69.0004069011,4.1320037841,95.0561014812
1.2266101837,-0.3654573567,0.3377275391,-0.0526800131,-69.0004069011,4.1320037841,95.0561014812
1.2292861938,-0.3654573567,0.3377275391,-0.0526800131,-70.4347330729,3.3995819091,101.7394510905
1.2320539951,-0.3654573567,0.3377275391,-0.0526800131,-70.4347330729,3.3995819091,101.7394510905
1.2347190380,-0.3654573567,0.3377275391,-0.0526800131,-69.2445475261,-1.6205596924,101.1748758952
1.2379870415,-0.2785432943,0.3030595704,0.0571832682,-69.2445475261,-1.6205596924,101.1748758952
1.2405641079,-0.2785432943,0.3030595704,0.0571832682,-67.2761637370,-9.0058135987,97.4975077312
1.2431349754,-0.2785432943,0.3030595704,0.0571832682,-67.2761637370,-9.0058135987,97.4975077312
1.2457101345,-0.0285432943,0.0828447266,-0.0492620443,-62.3170572917,-16.1316680909,92.4468485515
1.2485210896,-0.1213167317,0.0828447266,-0.0492620443,-62.3170572917,-16.1316680909,92.4468485515
1.2510972023,-0.1213167317,0.0828447266,-0.0492620443,-52.1547037761,-17.8559112549,87.9760233562
1.2536740303,-0.1213167317,0.0828447266,-0.0492620443,-52.1547037761,-17.8559112549,87.9760233562
1.2562670708,-0.0475862630,0.0638017578,-0.2709417318,-42.4195963542,-16.0401153565,83.6577860515
1.2588450909,-0.0475862630,0.0638017578,-0.2709417318,-42.4195963542,-16.0401153565,83.6577860515
1.2614250183,-0.0475862630,0.0638017578,-0.2709417318,-36.8501383464,-14.6515655518,79.9499003093
1.2640030384,-0.0475862630,0.0638017578,-0.2709417318,-36.8501383464,-14.6515655518,79.9499003093
1.2665841579,-0.0324495443,0.0413408204,-0.2313909505,-36.8501383464,-16.9556427002,75.8758036296
1.2691681385,-0.0324495443,0.0413408204,-0.2313909505,-34.3324381511,-16.9556427002,75.8758036296
1.2718470097,-0.0324495443,0.0413408204,-0.2313909505,-34.3324381511,-20.8618927002,72.0916239421
1.2744231224,-0.0324495443,0.0413408204,-0.2313909505,-30.8229166667,-20.7703399659,72.0916239421
1.2769989967,-0.0051057943,-0.0353193359,-0.0770940755,-30.8229166667,-20.7703399659,68.7194315593
1.2795741558,-0.0051057943,-0.0353193359,-0.0770940755,-26.0926920573,-22.4335479737,68.7194315593
1.2821521759,-0.0051057943,-0.0353193359,-0.0770940755,-26.0926920573,-22.4335479737,64.8131815593
1.2847290039,-0.0051057943,-0.0353193359,-0.0770940755,-22.8273111979,-23.0591583252,65.5608622233
1.2874491215,-0.0138948567,-0.0069990234,0.0132379557,-22.8273111979,-23.0591583252,65.5608622233
1.2900271416,-0.0138948567,-0.0069990234,0.0132379557,-24.0480143229,-24.1883087159,62.0665995280
1.2926042080,-0.0138948567,-0.0069990234,0.0132379557,-24.0480143229,-24.1883087159,62.0665995280
1.2951860428,-0.0138948567,-0.0069990234,0.0132379557,-28.1678873698,-25.8057403565,58.2061258952
1.2978551388,-0.0104768880,-0.0050458984,0.0586481119,-28.1678873698,-25.8057403565,58.2061258952
1.3004221916,-0.0104768880,-0.0050458984,0.0586481119,-33.7678629558,-26.5229034424,54.0862528483
1.3030030727,-0.0104768880,-0.0050458984,0.0586481119,-33.7678629558,-26.5229034424,54.0862528483
1.3055770397,-0.0104768880,-0.0050458984,0.1563043619,-38.4217936198,-26.9806671143,51.3396708171
1.3081591129,-0.0773714193,0.1741533204,0.1563043619,-38.4217936198,-26.9806671143,51.3396708171
1.3107399940,-0.0773714193,0.1741533204,0.1563043619,-38.3454996745,-28.1250762940,55.4137674968
1.3133111000,-0.0773714193,0.1741533204,0.1563043619,-38.3454996745,-28.1250762940,55.4137674968
1.3158869743,-0.0773714193,0.5491533204,0.1582574869,-35.8583170573,-27.2248077393,61.2426249187
1.3184721470,-0.1994417317,0.5535478516,0.1582574869,-35.8583170573,-27.2248077393,61.2426249187
1.3210430145,-0.1994417317,0.5535478516,0.1582574869,-20.2333170573,-21.2738800049,55.0322977702
1.3237271309,-0.1994417317,0.5535478516,0.1582574869,-23.4986979167,-21.2738800049,55.0322977702
1.3264889717,-0.0744417317,0.2918291016,-0.0101995443,-23.4986979167,-14.4684600830,42.2912089030
1.3290760517,-0.0710237630,0.2918291016,-0.0101995443,-5.7222086589,-14.4684600830,42.2912089030
1.3321790695,-0.0710237630,0.2918291016,-0.0101995443,-0.9767252604,-14.3616485596,32.4798075359
1.3356630802,-0.0710237630,0.2918291016,-0.1351995443,-0.9767252604,-14.3616485596,32.4798075359
1.3382940292,0.0437223307,0.0921220704,-0.0834417318,-7.0954996745,-16.3605499268,25.8574930827
1.3408679962,0.0437223307,0.0921220704,-0.0834417318,-7.0954996745,-16.3605499268,25.8574930827
1.3434340954,0.0437223307,0.0921220704,-0.0834417318,-5.1728922526,-16.9556427002,20.8831278483
1.3460121155,0.0437223307,0.0921220704,-0.0961370443,-5.1728922526,-16.9556427002,20.8831278483
1.3486301899,0.0373746745,0.0598955078,-0.0961370443,2.9142659505,-15.7196807862,15.7714335124
1.3512079716,0.0373746745,0.0598955078,-0.0961370443,2.9142659505,-15.7196807862,15.7714335124
1.3537800312,0.0373746745,0.0598955078,-0.0961370443,10.7267659505,-14.5905303956,8.5540262859
1.3563539982,0.0373746745,0.1848955078,-0.0580511068,9.5670979818,-14.5905303956,8.5540262859
1.3589351177,0.0202848307,0.1541337891,-0.0580511068,9.5670979818,-14.5905303956,0.7262674968
1.3615100384,0.0202848307,0.1541337891,-0.0580511068,18.4019368489,-14.1022491456,0.7262674968
1.3640871048,0.0202848307,0.1541337891,-0.0580511068,18.4019368489,-14.1022491456,-6.6437276204
1.3667111397,0.0202848307,0.0633134766,-0.0438909505,27.4198811849,-14.1785430909,-6.6437276204
1.3692831993,0.0080777995,0.0633134766,-0.0438909505,27.4198811849,-14.1785430909,-14.4562276204
1.3718621731,0.0080777995,0.0633134766,-0.0438909505,34.1947835286,-14.7583770752,-12.1979268391
1.3744380474,0.0080777995,0.0633134766,-0.0438909505,34.1947835286,-14.7583770752,-12.1979268391
1.3770930767,-0.0109651693,0.0052080078,-0.0629339193,37.6737874349,-14.8651885987,-15.8447774251
1.3796710968,-0.0109651693,0.0052080078,-0.0629339193,37.6737874349,-14.8651885987,-15.8447774251
1.3822481632,-0.0109651693,0.0052080078,-0.0629339193,36.4683430989,-15.3076934815,-18.0267842610
1.3848211765,-0.0109651693,0.0052080078,-0.0629339193,36.4683430989,-15.3076934815,-18.0267842610
1.3875072002,-0.0178011067,-0.0323896484,-0.0736761068,32.1501057942,-16.0095977784,-19.4458516438
1.3900880814,-0.0178011067,-0.0323896484,-0.0736761068,32.1501057942,-16.0095977784,-19.4458516438
1.3926701546,-0.0178011067,-0.0323896484,-0.0736761068,25.2836507161,-16.4826202393,-19.4153340657
1.3952450752,-0.0178011067,-0.0323896484,-0.0736761068,25.2836507161,-16.4826202393,-19.4153340657
1.3979871273,-0.0060823567,-0.0743818359,-0.0468206381,18.4782307942,-16.9403839112,-19.5221455891
1.4005720615,-0.0060823567,-0.0743818359,-0.0468206381,18.4782307942,-16.9403839112,-19.5221455891
1.4031460285,-0.0060823567,-0.0743818359,-0.0468206381,12.9850667318,-17.4286651612,-18.9728291829
1.4057199955,-0.0060823567,-0.0743818359,-0.0468206381,12.9850667318,-17.4286651612,-18.9728291829
1.4083051682,-0.0134065755,-0.0953779296,-0.0399847005,5.1725667318,-17.5507354737,-17.8741963704
1.4108760357,-0.0134065755,-0.0953779296,-0.0399847005,7.3698323568,-17.5507354737,-17.8741963704
1.4134571552,-0.0134065755,-0.0953779296,-0.0399847005,7.3698323568,-21.4569854737,-17.1417744954
1.4160301685,-0.0134065755,-0.0953779296,-0.0399847005,2.4412434896,-18.2068634034,-17.1417744954
1.4187881947,-0.0119417317,-0.0802412109,-0.0141057943,2.4412434896,-18.2068634034,-16.0584004720
1.4215021133,-0.0119417317,-0.0802412109,-0.0141057943,-1.9685465495,-18.3136749268,-16.0584004720
1.4242110252,-0.0119417317,-0.0802412109,-0.0141057943,-1.9685465495,-14.4074249268,-15.4633076985
1.4269280434,-0.0119417317,-0.0802412109,0.0161676432,-4.2421061198,-17.4897003174,-15.4633076985
1.4296371937,0.0046598307,-0.0558271484,0.0161676432,-4.2421061198,-17.4897003174,-15.6464131673
1.4323430061,0.0046598307,-0.0558271484,0.0161676432,-4.5472819011,-16.3605499268,-15.6464131673
1.4350531101,0.0046598307,-0.0558271484,0.0161676432,-4.5472819011,-16.3605499268,-16.2415059407
1.4377720356,0.0114957683,-0.0294599609,0.0317926432,-3.9674479167,-15.0025177002,-16.2415059407
1.4404771328,0.0114957683,-0.0294599609,0.0317926432,-3.9674479167,-11.0962677002,-16.9891866048
1.4432551861,0.0114957683,-0.0294599609,0.0317926432,-3.6012369792,-13.9191436768,-16.9891866048
1.4459631443,0.0114957683,-0.0294599609,0.0317926432,-3.6012369792,-13.9191436768,-17.6910909017
1.4486691952,0.0080777995,-0.0236005859,0.0327692057,-3.6622721354,-12.3017120362,-17.6910909017
1.4513790607,0.0080777995,-0.0236005859,0.0327692057,-3.6622721354,-12.3017120362,-18.3319600423
1.4540860653,0.0080777995,-0.0236005859,0.0327692057,-1.4650065104,-11.6455841065,-18.3319600423
1.4567921162,0.0080777995,-0.0236005859,0.0327692057,-1.4650065104,-11.6455841065,-19.1406758626
1.4593720436,0.0139371745,-0.0216474609,0.0459527995,2.4412434896,-11.0352325440,-19.1406758626
1.4620630741,0.0139371745,-0.0216474609,0.0459527995,2.4412434896,-11.0352325440,-20.4987080891
1.4646391869,0.0139371745,-0.0216474609,0.0459527995,7.2325032552,-10.3943634034,-20.4987080891
1.4672710896,0.0139371745,-0.0216474609,0.0474176432,7.2325032552,-10.3943634034,-20.4987080891
1.4699800014,0.0266324870,-0.0216474609,0.0474176432,13.1223958333,-9.5246124268,-20.9259541829
1.4726881981,0.0266324870,-0.0216474609,0.0474176432,13.1223958333,-9.5246124268,-20.9259541829
1.4754011631,0.0266324870,-0.0216474609,0.0474176432,19.0428059896,-8.9447784424,-21.2769063313
1.4780650139,0.0276090495,-0.0216474609,0.0142145182,19.0428059896,-8.9447784424,-21.2769063313
1.4806411266,0.0276090495,-0.0216474609,0.0142145182,25.1768391927,-7.8156280518,-21.2616475423
1.4832220078,0.0276090495,-0.0216474609,0.0142145182,25.1768391927,-7.8156280518,-21.2616475423
1.4857971668,0.0276090495,-0.0216474609,0.0142145182,30.1054280599,-7.3578643799,-21.4905293782
1.4885351658,0.0114957683,-0.0196943359,0.0044488932,30.1054280599,-7.3578643799,-21.4905293782
1.4911119938,0.0114957683,-0.0196943359,0.0044488932,32.8977864583,-7.3120880127,-21.0327657063
1.4936900139,0.0114957683,-0.0196943359,0.0044488932,32.8977864583,-7.3120880127,-21.0327657063
1.4963572025,0.0114957683,-0.0196943359,0.0044488932,33.9811604818,-7.4646759034,-20.1477559407
1.4990630150,0.0066129557,-0.0528974609,0.0230035807,33.9811604818,-7.4646759034,-20.1477559407
1.5017721653,0.0066129557,-0.0528974609,0.0230035807,36.2242024739,-8.1208038330,-19.4611104329
1.5044770241,0.0066129557,-0.0528974609,0.0230035807,36.2242024739,-8.1208038330,-19.4611104329
1.5071551800,0.0066129557,-0.0528974609,0.0230035807,41.3816731771,-7.1595001221,-17.9504903157
1.5097332001,-0.0046175130,-0.0719404296,0.0200738932,41.3816731771,-7.1595001221,-17.9504903157
1.5123100281,-0.0046175130,-0.0719404296,0.0200738932,45.1811116536,-6.8390655518,-15.4633076985
1.5148880482,-0.0046175130,-0.0719404296,0.0200738932,45.1811116536,-6.8390655518,-15.4633076985
1.5175611973,-0.0046175130,-0.0719404296,-0.0282659505,42.8159993489,-6.2592315674,-13.8306172688
1.5202631950,-0.0280550130,-0.1119794922,-0.0282659505,42.8159993489,-6.2592315674,-13.8306172688
1.5229680538,-0.0280550130,-0.1119794922,-0.0282659505,36.4073079427,-6.5033721924,-11.3129170735
1.5257790089,-0.0280550130,-0.1119794922,-0.0282659505,36.4073079427,-6.5033721924,-11.3129170735
1.5285441875,-0.0134065755,-0.0880537109,-0.0424261068,28.3506673177,-7.8156280518,-9.4971211751
1.5311200619,-0.0134065755,-0.0880537109,-0.0424261068,28.3506673177,-7.8156280518,-9.4971211751
1.5337049961,-0.0134065755,-0.0880537109,-0.0424261068,22.3387044271,-8.4107208252,-6.6284688313
1.5363941193,-0.0134065755,-0.0880537109,-0.0424261068,22.3387044271,-8.4107208252,-6.6284688313
1.5390651226,0.0031949870,-0.0284833984,-0.0180120443,18.8597005208,-8.8532257080,-4.8431905110
1.5418419838,0.0031949870,-0.0284833984,-0.0180120443,18.8597005208,-8.8532257080,-4.8431905110
1.5445141792,0.0031949870,-0.0284833984,-0.0180120443,18.2340901692,-9.0210723877,-4.4159444173
1.5481309891,0.0031949870,-0.0284833984,-0.0009222005,18.2340901692,-9.0210723877,-4.4159444173
1.5507080555,0.0071012370,-0.0211591796,-0.0009222005,17.9136555989,-8.3191680909,-3.5767110188
1.5532810688,0.0071012370,-0.0211591796,-0.0009222005,17.9136555989,-8.3191680909,-3.5767110188
1.5558531284,0.0071012370,-0.0211591796,-0.0009222005,18.5240071614,-7.3578643799,-2.2949727376
1.5584909916,0.0071012370,-0.0192060546,0.0220270182,18.5240071614,-7.3578643799,-2.2949727376
1.5610589981,0.0051481120,-0.0192060546,0.0220270182,20.2024739583,-6.5796661377,-1.5625508626
1.5636310577,0.0051481120,-0.0192060546,0.0220270182,20.2024739583,-6.5796661377,-1.5625508626
1.5662531853,0.0051481120,-0.0192060546,0.0220270182,22.5981038411,-5.9540557862,-1.3794453938
1.5688340664,0.0056363933,0.0110673828,0.0415582682,22.5981038411,-5.9540557862,-1.3794453938
1.5714070797,0.0056363933,0.0110673828,0.0415582682,22.5981038411,-5.0995635987,-1.3947041829
1.5739741325,0.0056363933,0.0110673828,0.0415582682,25.6193440755,-5.0995635987,-1.3947041829
1.5765731335,0.0056363933,0.0110673828,0.0415582682,25.6193440755,-5.0995635987,-1.5167744954
1.5791451931,0.0124723307,0.0232744141,0.0405817057,28.3659261068,-3.9856719971,-1.5167744954
1.5817201138,0.0124723307,0.0232744141,0.0405817057,28.3659261068,-3.9856719971,-1.5167744954
1.5842971802,0.0124723307,0.0232744141,0.0405817057,30.3190511068,-2.9938507080,-1.4709981282
1.5869221687,0.0124723307,0.0232744141,0.0405817057,30.3190511068,-2.9938507080,-1.4709981282
1.5896050930,0.0056363933,0.0027666016,0.0439996745,30.8683675130,-2.1851348877,-0.6775410970
1.5921771526,0.0056363933,0.0027666016,0.0439996745,30.8683675130,-2.1851348877,-0.6775410970
1.5947520733,0.0056363933,0.0027666016,0.0439996745,29.3119710286,-1.4679718018,0.6804911296
1.5974450111,0.0056363933,0.0027666016,0.0439996745,29.3119710286,-1.4679718018,0.6804911296
1.6000261307,-0.0075472005,-0.0167646484,0.0313043619,27.7097981771,-0.5829620362,0.9704081218
1.6025991440,-0.0075472005,-0.0167646484,0.0313043619,27.7097981771,-0.5829620362,0.9704081218
1.6051781178,-0.0075472005,-0.0167646484,0.0313043619,26.3212483724,0.4241180420,3.1524149577
1.6079411507,-0.0075472005,-0.0167646484,0.0313043619,26.3212483724,0.4241180420,3.1524149577
1.6106321812,-0.0148714193,-0.0323896484,0.0098199869,24.3070882161,0.8208465576,5.5175272624
1.6133260727,-0.0148714193,-0.0323896484,0.0098199869,24.3070882161,0.8208465576,5.5175272624
1.6160190105,-0.0148714193,-0.0323896484,0.0098199869,22.1861165364,0.9581756591,6.4483133952
1.6187021732,-0.0148714193,-0.0323896484,0.0010309245,22.1861165364,0.9581756591,6.4483133952
1.6213979721,-0.0383089193,-0.0660810546,0.0010309245,19.5463460286,0.9734344482,6.9518534343
1.6240551472,-0.0383089193,-0.0660810546,0.0010309245,19.5463460286,0.9734344482,6.9518534343
1.6267690659,-0.0383089193,-0.0660810546,0.0010309245,16.7234700521,1.3243865966,8.9354960124
1.6294760704,-0.0344026693,-0.0314130859,0.0015192057,16.7234700521,1.3243865966,8.9354960124
1.6331040859,-0.0344026693,-0.0314130859,0.0015192057,14.4499104818,1.6905975341,11.4074198405
1.6356780529,-0.0344026693,-0.0314130859,0.0015192057,14.4499104818,1.6905975341,11.4074198405
1.6382830143,-0.0344026693,-0.0314130859,0.0015192057,12.6341145833,1.4006805420,12.5976053874
1.6408581734,-0.0168245443,-0.0011396484,0.0083551432,12.6341145833,1.4006805420,12.5976053874
1.6434311867,-0.0168245443,-0.0011396484,0.0083551432,12.3747151692,1.7668914794,12.8417460124
1.6460011005,-0.0168245443,-0.0011396484,0.0083551432,12.3747151692,1.7668914794,12.8417460124
1.6486320496,-0.0168245443,-0.0011396484,0.0083551432,12.4357503255,2.2704315185,13.2995096843
1.6512041092,-0.0070589193,0.0276689454,0.0073785807,12.4357503255,2.2704315185,13.2995096843
1.6538970470,-0.0070589193,0.0276689454,0.0073785807,12.5578206380,1.8126678466,13.5283915202
1.6565411091,-0.0070589193,0.0276689454,0.0073785807,12.5578206380,1.8126678466,13.5283915202
1.6591110229,-0.0070589193,0.0276689454,0.0112848307,13.1681722005,1.6600799560,14.0777079265
1.6616771221,0.0007535807,0.0472001954,0.0112848307,13.1681722005,1.6600799560,14.0777079265
1.6642429829,0.0007535807,0.0472001954,0.0112848307,14.0531819661,2.1483612060,14.3065897624
1.6669661999,0.0007535807,0.0472001954,0.0112848307,14.0531819661,2.1483612060,14.3065897624
1.6695420742,0.0007535807,0.0545244141,0.0176324869,14.0531819661,2.7129364013,13.8488260905
1.6721131802,0.0012418620,0.0545244141,0.0176324869,14.9381917318,2.7129364013,13.8488260905
1.6746811867,0.0012418620,0.0545244141,0.0176324869,14.9381917318,2.7129364013,13.8335673015
1.6773200035,0.0012418620,0.0545244141,0.0176324869,16.1283772786,3.5979461670,13.8335673015
1.6798851490,-0.0016878255,0.0457353516,0.0449762369,16.1283772786,3.5979461670,13.3452860515
1.6824560165,-0.0016878255,0.0457353516,0.0449762369,17.0896809896,4.1014862060,13.3452860515
1.6850261688,-0.0016878255,0.0457353516,0.0449762369,17.0896809896,4.1014862060,13.3452860515
1.6876780987,-0.0016878255,0.0457353516,0.0449762369,17.7763264974,4.3761444091,14.5965067546
1.6903870106,0.0036832683,0.0545244141,0.0327692057,17.7763264974,4.3761444091,14.5965067546
1.6930940151,0.0036832683,0.0545244141,0.0327692057,18.4019368489,4.7576141357,15.3747049968
1.6958050728,0.0036832683,0.0545244141,0.0327692057,18.4019368489,4.7576141357,19.2809549968
1.6985580921,0.0036832683,0.0545244141,0.0327692057,18.3409016927,5.4747772216,16.0003153483
1.7012660503,-0.0011995443,0.0677080078,0.0205621745,18.3409016927,5.4747772216,16.0003153483
1.7039752007,-0.0011995443,0.0677080078,0.0205621745,18.3714192708,6.1919403076,16.7632548015
1.7067410946,-0.0011995443,0.0677080078,0.0205621745,18.3714192708,6.1919403076,16.7632548015
1.7093172073,-0.0011995443,0.0677080078,0.0396051432,17.8221028646,6.2377166748,17.4193827312
1.7118930817,-0.0021761067,0.0481767578,0.0396051432,17.8221028646,6.2377166748,17.4193827312
1.7144730091,-0.0021761067,0.0481767578,0.0396051432,17.7915852864,6.0546112060,19.8607889812
1.7171959877,-0.0021761067,0.0481767578,0.0396051432,17.7915852864,6.0546112060,19.8607889812
1.7197740078,-0.0021761067,0.0647783204,0.0308160807,17.6084798177,6.5428924560,20.0438944499
1.7223479748,0.0017301433,0.0647783204,0.0308160807,17.6084798177,6.5428924560,20.0438944499
1.7249281406,0.0017301433,0.0647783204,0.0308160807,18.3866780599,6.6191864013,20.3643290202
1.7276301384,0.0017301433,0.0647783204,0.0308160807,18.3866780599,6.6191864013,20.3643290202
1.7302060127,0.0017301433,0.0706376954,0.0161676432,19.1343587239,6.4513397216,21.6155497233
1.7328941822,-0.0173128255,0.0706376954,0.0161676432,19.1343587239,6.4513397216,21.6155497233
1.7354722023,-0.0173128255,0.0706376954,0.0161676432,19.1801350911,6.3140106201,23.1109110515
1.7382860184,-0.0173128255,0.0706376954,0.0161676432,19.1801350911,6.3140106201,23.1109110515
1.7408580780,-0.0168245443,0.0564775391,0.0176324869,17.6389973958,6.5428924560,24.8046366374
1.7434370518,-0.0168245443,0.0564775391,0.0176324869,17.6389973958,6.5428924560,24.8046366374
1.7460131645,-0.0168245443,0.0564775391,0.0176324869,15.9452718099,6.4055633544,25.9643046062
1.7488501072,-0.0168245443,0.0564775391,0.0176324869,15.9452718099,6.4055633544,25.9643046062
1.7521011829,-0.0192659505,0.0833330078,0.0093317057,14.9076741536,6.1614227294,27.0934549968
1.7548151016,-0.0192659505,0.0833330078,0.0093317057,14.9076741536,6.1614227294,27.0934549968
1.7575390339,-0.0192659505,0.0833330078,0.0093317057,15.0144856771,6.1003875732,27.7038065593
1.7602400780,-0.0192659505,0.1077470704,-0.0038518881,15.0144856771,6.1003875732,27.7038065593
1.7629439831,-0.0065706380,0.1077470704,-0.0038518881,15.8079427083,5.7036590576,28.1463114421
1.7656571865,-0.0065706380,0.1077470704,-0.0038518881,15.8079427083,5.7036590576,28.1463114421
1.7683742046,-0.0065706380,0.1077470704,-0.0038518881,17.3033040364,6.1156463623,28.8787333171
1.7710790634,-0.0124300130,0.1297197266,0.0142145182,17.3033040364,6.1156463623,28.8787333171
1.7737891674,-0.0124300130,0.1297197266,0.0142145182,18.4934895833,6.2987518310,29.3670145671
1.7765390873,-0.0124300130,0.1297197266,0.0142145182,18.4934895833,6.2987518310,29.3670145671
1.7792561054,-0.0124300130,0.1297197266,0.0142145182,19.8972981771,6.3292694091,29.3975321452
1.7819600105,-0.0158479817,0.1292314454,0.0264215495,19.8972981771,6.3292694091,29.3975321452
1.7847731113,-0.0158479817,0.1292314454,0.0264215495,20.8738606771,6.2987518310,30.1299540202
1.7874710560,-0.0158479817,0.1292314454,0.0264215495,20.8738606771,6.2987518310,30.1299540202
1.7900400162,-0.0158479817,0.1292314454,0.0010309245,21.0111897786,6.4360809326,30.9234110515
1.7926170826,-0.0309847005,0.1263017578,0.0010309245,21.0111897786,6.4360809326,30.9234110515
1.7951951027,-0.0309847005,0.1263017578,0.0010309245,20.8891194661,7.0769500732,31.9304911296
1.7978210449,-0.0309847005,0.1263017578,0.0010309245,20.8891194661,7.0769500732,31.9304911296
1.8003971577,-0.0309847005,0.1263017578,0.0039606119,20.4466145833,7.6415252685,33.3342997233
1.8029720783,-0.0461214193,0.1292314454,0.0039606119,20.4466145833,7.6415252685,33.3342997233
1.8055491447,-0.0461214193,0.1292314454,0.0039606119,20.4466145833,7.8246307373,34.4939676921
1.8083930016,-0.0461214193,0.1292314454,0.0039606119,20.5534261068,7.8246307373,34.4939676921
1.8110971451,-0.0480745443,0.1385087891,-0.0297307943,20.5534261068,7.8551483154,35.7299296062
1.8138020039,-0.0480745443,0.1385087891,-0.0297307943,19.2716878255,7.8551483154,35.7299296062
1.8165450096,-0.0480745443,0.1385087891,-0.0297307943,15.3654378255,8.0229949951,36.7827860515
1.8192510605,-0.0480745443,0.1385087891,-0.0297307943,17.7458089192,8.0229949951,36.7827860515
1.8219630718,-0.0666292317,0.1380205078,-0.0512151693,17.7458089192,9.4725799560,37.7593485515
1.8246681690,-0.0666292317,0.1380205078,-0.0512151693,15.9300130208,9.4725799560,37.7593485515
1.8273839951,-0.0666292317,0.1380205078,-0.0512151693,12.0237630208,11.1052703857,38.5680643718
1.8300890923,-0.0666292317,0.1380205078,-0.0512151693,14.0074055989,11.1052703857,38.5680643718
1.8327879906,-0.0915315755,0.1404619141,-0.0541448568,11.3523763021,13.2109832763,39.5141092937
1.8355550766,-0.0915315755,0.1404619141,-0.0541448568,11.3523763021,13.2109832763,39.5141092937
1.8382380009,-0.0915315755,0.1404619141,-0.0541448568,7.4461263021,13.6534881591,41.4367167155
1.8408131599,-0.0915315755,0.1404619141,-0.0243597005,9.1398518880,13.6534881591,41.4367167155
1.8436830044,-0.0822542317,0.1433916016,-0.0243597005,9.1398518880,13.7908172607,43.2067362468
1.8463070393,-0.0822542317,0.1433916016,-0.0243597005,7.6444905599,13.7908172607,43.2067362468
1.8489952087,-0.0822542317,0.1433916016,-0.0243597005,7.6444905599,13.4246063232,44.7631327312
1.8515670300,-0.0803011067,0.1512041016,0.0034723307,7.3698323568,13.4246063232,44.7631327312
1.8541381359,-0.0803011067,0.1512041016,0.0034723307,7.3698323568,13.4246063232,46.4263407390
1.8567609787,-0.0803011067,0.1512041016,0.0034723307,7.1867268880,13.2567596435,46.4263407390
1.8593330383,-0.0803011067,0.1512041016,0.0034723307,7.1867268880,13.2567596435,50.3325907390
1.8619000912,-0.1022737630,0.1731767578,-0.0058050131,7.1714680989,13.2262420654,47.5860087077
1.8644731045,-0.1022737630,0.1731767578,-0.0058050131,7.1714680989,13.2262420654,47.5860087077
1.8670961857,-0.1022737630,0.1731767578,-0.0058050131,6.9578450521,13.1346893310,48.9135233562
1.8696670532,-0.1022737630,0.1731767578,-0.0058050131,6.9578450521,13.1346893310,48.9135233562
1.8722350597,-0.1110628255,0.1614580078,-0.0043401693,6.3322347005,13.3635711670,50.8056131999
1.8748049736,-0.1110628255,0.1614580078,-0.0043401693,6.3322347005,13.3635711670,50.8056131999
1.8773841858,-0.1110628255,0.1614580078,-0.0043401693,6.0575764974,13.2262420654,51.9805399577
1.8799521923,-0.1110628255,0.1614580078,-0.0043401693,6.0575764974,13.2262420654,51.9805399577
1.8825252056,-0.1291292317,0.1736650391,0.0024957682,5.6455891927,12.5243377685,52.9571024577
1.8850901127,-0.1291292317,0.1736650391,0.0024957682,5.6455891927,12.5243377685,52.9571024577
1.8878221512,-0.1291292317,0.1736650391,0.0024957682,4.3485921224,12.0055389404,53.9031473796
1.8903892040,-0.1291292317,0.1736650391,0.0024957682,4.3485921224,12.0055389404,53.9031473796
1.8929591179,-0.1418245443,0.1653642578,-0.0106878255,2.9905598958,11.5325164794,54.8797098796
1.8955271244,-0.1418245443,0.1653642578,-0.0106878255,2.9905598958,11.5325164794,54.8797098796
1.8983211517,-0.1418245443,0.1653642578,-0.0106878255,1.5104573568,10.9679412841,56.9396464030
1.9010241032,-0.1418245443,0.1653642578,-0.0106878255,1.5104573568,10.9679412841,56.9396464030
1.9037201405,-0.1711214193,0.1599931641,-0.0043401693,-0.0459391276,10.5712127685,58.2671610515
1.9064741135,-0.1711214193,0.1599931641,-0.0043401693,-0.0459391276,10.5712127685,58.2671610515
1.9091720581,-0.1711214193,0.1599931641,-0.0043401693,0.0150960286,10.2050018310,59.5336405437
1.9119842052,-0.1711214193,0.1819658204,-0.0292425131,0.0150960286,10.2050018310,59.5336405437
1.9146831036,-0.1774690755,0.1819658204,-0.0292425131,0.3813069661,8.9995574951,60.5407206218
1.9173920155,-0.1774690755,0.1819658204,-0.0292425131,0.3813069661,8.9995574951,60.5407206218
1.9200911522,-0.1774690755,0.1819658204,-0.0292425131,1.6477864583,8.1450653076,62.0818583171
1.9227890968,-0.1823518880,0.1770830078,-0.0307073568,1.6477864583,8.1450653076,62.0818583171
1.9254870415,-0.1823518880,0.1770830078,-0.0307073568,3.3872884114,6.8633270263,62.9058329265
1.9281129837,-0.1823518880,0.1770830078,-0.0307073568,3.3872884114,6.8633270263,62.9058329265
1.9306809902,-0.1823518880,0.1770830078,-0.0307073568,3.3872884114,5.5663299560,63.2873026530
1.9332480431,-0.2287386067,0.1526689454,-0.0263128255,5.1878255208,5.5663299560,63.2873026530
1.9358201027,-0.2287386067,0.1526689454,-0.0263128255,5.1878255208,5.5663299560,63.3788553874
1.9386110306,-0.2287386067,0.1526689454,-0.0263128255,7.4919026692,5.5510711670,63.3788553874
1.9413201809,-0.2287386067,0.1526689454,-0.0263128255,7.4919026692,9.4573211670,63.3483378093
1.9440271854,-0.3224886067,0.1023759766,-0.0360784505,9.2619222005,6.4360809326,63.3483378093
1.9467451572,-0.3224886067,0.1023759766,-0.0360784505,9.2619222005,6.4360809326,64.1417948405
1.9494600296,-0.3224886067,0.1023759766,-0.0360784505,11.8711751302,6.7870330810,64.1417948405
1.9521670341,-0.4474886067,0.0691728516,-0.0018987631,11.8711751302,6.7870330810,66.3543192546
1.9549801350,-0.4054964193,0.0691728516,-0.0018987631,14.5872395833,7.0922088623,66.3543192546
1.9584190845,-0.4054964193,0.0691728516,-0.0018987631,18.9970296224,6.2377166748,70.5047098796
1.9609920979,-0.4054964193,0.0691728516,-0.0018987631,18.9970296224,6.2377166748,70.5047098796
1.9635632038,-0.4728792317,0.0388994141,0.0591363932,26.8095296224,4.5897674560,74.9602762859
1.9661321640,-0.4728792317,0.0388994141,0.0591363932,26.0618489583,4.5897674560,74.9602762859
1.9688320160,-0.4728792317,0.0388994141,0.0591363932,26.0618489583,1.5990447998,79.0801493327
1.9713981152,-0.4728792317,0.0388994141,0.0591363932,35.3391927083,1.5990447998,79.0801493327
1.9739701748,-0.5441682943,-0.0255537109,0.0938043619,35.3391927083,1.5990447998,81.7351786296
1.9766790867,-0.5441682943,-0.0255537109,0.0938043619,46.4628499349,-0.9491729737,81.7351786296
1.9792501926,-0.5441682943,-0.0255537109,0.0938043619,46.4628499349,-0.9491729737,83.4746805827
1.9818191528,-0.5441682943,-0.0255537109,0.0938043619,60.0736897786,-4.1230010987,83.4746805827
1.9843921661,-0.5920198567,-0.0987958984,0.1489801432,60.0736897786,-4.1230010987,83.4746805827
1.9869740009,-0.5920198567,-0.0987958984,0.1489801432,74.8289388021,-8.6090850830,84.5427958171
1.9895510674,-0.5920198567,-0.0987958984,0.1489801432,74.8289388021,-8.6090850830,84.5427958171
1.9921231270,-0.5920198567,-0.0987958984,0.1411676432,89.4315999349,-13.4461212159,85.1073710124
1.9946961403,-0.6613557943,-0.1661787109,0.1411676432,89.4315999349,-13.4461212159,85.1073710124
1.9973330498,-0.6613557943,-0.1661787109,0.1411676432,97.1678059896,-16.2079620362,85.9771219890
1.9999051094,-0.6613557943,-0.1661787109,0.1411676432,97.1678059896,-16.2079620362,85.9771219890
2.0024740696,-0.6613557943,-0.1661787109,0.1616754557,102.4473470052,-20.5719757080,87.9760233562
2.0050489902,-0.6789339193,-0.1837568359,0.1616754557,102.4473470052,-20.5719757080,87.9760233562
2.0077991486,-0.6789339193,-0.1837568359,0.1616754557,107.7421468099,-23.8373565674,89.8070780437
2.0103759766,-0.6789339193,-0.1837568359,0.1616754557,107.7421468099,-23.8373565674,89.8070780437
2.0129511356,-0.5539339193,-0.0773115234,0.1460504557,109.4969075521,-25.5005645752,90.5852762859
2.0155200958,-0.6095979817,-0.0773115234,0.1460504557,109.4969075521,-25.5005645752,90.5852762859
2.0182161331,-0.6095979817,-0.0773115234,0.1460504557,106.2010091146,-23.4406280518,91.5160624187
2.0207910538,-0.6095979817,-0.0773115234,0.1460504557,106.2010091146,-23.4406280518,91.5160624187
2.0233631134,-0.5676057943,-0.0826826172,0.1367731119,98.3885091146,-19.5038604737,91.7296854655
2.0259339809,-0.5676057943,-0.0826826172,0.1367731119,97.7476399739,-19.5038604737,91.7296854655
2.0285191536,-0.5676057943,-0.0826826172,0.1367731119,97.7476399739,-15.5976104737,88.7847391765
2.0310890675,-0.5676057943,-0.0826826172,0.1367731119,84.7624104818,-15.9485626221,88.7847391765
2.0336639881,-0.4787386067,-0.1251630859,0.2100152995,84.7624104818,-15.9485626221,84.6038309733
2.0363111496,-0.4787386067,-0.1251630859,0.2100152995,77.3466389974,-14.1938018799,84.6038309733
2.0392470360,-0.4787386067,-0.1251630859,0.2100152995,77.3466389974,-14.1938018799,84.6953837077
2.0418231487,-0.4787386067,-0.1251630859,0.2100152995,77.7433675130,-11.7523956299,84.6953837077
2.0443971157,-0.4382112630,0.1321611328,0.2266168619,77.7433675130,-11.7523956299,89.3950907390
2.0470991135,-0.4382112630,0.1321611328,0.2266168619,81.4207356771,-6.5796661377,89.3950907390
2.0497701168,-0.4382112630,0.1321611328,0.2266168619,81.4207356771,-6.5796661377,97.2075907390
2.0533339977,-0.4382112630,0.2010087891,0.2720270182,85.0981038411,-1.4984893799,95.1934305827
2.0559129715,-0.4303987630,0.2010087891,0.2720270182,81.1918538411,2.9570770263,96.6430155437
2.0586349964,-0.4303987630,0.2010087891,0.2720270182,80.5662434896,2.9570770263,96.6430155437
2.0612041950,-0.4303987630,0.2010087891,0.2720270182,80.5662434896,2.9570770263,93.2555643718
2.0637700558,-0.2331331380,0.1853837891,0.2124567057,77.8959554036,4.8644256591,93.2555643718
2.0663411617,-0.2331331380,0.1853837891,0.2124567057,77.8959554036,4.8644256591,88.8457743327
2.0689179897,-0.2331331380,0.1853837891,0.2124567057,78.9030354818,1.6753387451,88.8457743327
2.0714890957,-0.2331331380,0.1853837891,0.2124567057,78.9030354818,1.6753387451,88.8457743327
2.0740611553,0.0383512370,0.1223955078,0.2432184245,78.0027669271,-2.8717803956,81.9335428874
2.0766420364,0.0383512370,0.1223955078,0.2432184245,78.0027669271,-2.8717803956,81.9335428874
2.0792140961,0.0383512370,0.1223955078,0.2432184245,82.3972981771,-7.4341583252,70.9777323405
2.0817780495,0.0383512370,0.1223955078,0.2432184245,82.3972981771,-7.4341583252,70.9777323405
2.0843491554,0.1653043620,0.0179033204,0.3189020182,90.0877278646,-13.4308624268,56.8633524577
2.0869791508,0.1653043620,0.0179033204,0.3189020182,90.0877278646,-13.4308624268,56.8633524577
2.0895490646,0.1653043620,0.0179033204,0.3189020182,97.1372884114,-17.1845245362,42.1386210124
2.0921230316,0.1653043620,0.0179033204,0.3189020182,97.1372884114,-17.1845245362,42.1386210124
2.0946960449,0.0769254557,-0.2745771484,0.1934137369,102.4778645833,-16.1927032471,22.7599589030
2.0974249840,0.0769254557,-0.2745771484,0.1934137369,102.4778645833,-16.1927032471,22.7599589030
2.1000010967,0.0769254557,-0.2745771484,0.1934137369,105.1023763021,-16.0553741456,0.5736796062
2.1026880741,0.0769254557,-0.2745771484,0.1934137369,105.1023763021,-16.0553741456,0.5736796062
2.1052560806,0.1692106120,-0.5387373046,0.0625543619,105.2091878255,-16.0248565674,-18.2098897298
2.1079730988,0.1692106120,-0.5387373046,0.0625543619,105.2091878255,-16.0248565674,-18.2098897298
2.1105451584,0.1692106120,-0.5387373046,0.0625543619,97.3966878255,-15.5213165284,-30.2490743001
2.1131150723,0.1692106120,-0.5387373046,-0.0585393881,100.6468098958,-15.5213165284,-30.2490743001
2.1156830788,0.2873746745,-0.5900068359,-0.0585393881,100.6468098958,-15.5213165284,-37.9242451985
2.1182739735,0.2873746745,-0.5900068359,-0.0585393881,92.2239583333,-14.8957061768,-37.9242451985
2.1208391190,0.2873746745,-0.5900068359,-0.0585393881,92.2239583333,-14.8957061768,-46.7438252767
2.1234130859,0.2873746745,-0.5900068359,-0.0912542318,81.2528889974,-14.4532012940,-46.7438252767
2.1259911060,0.3918668620,-0.5685224609,-0.0912542318,81.2528889974,-14.4532012940,-57.8827412923
2.1287550926,0.3918668620,-0.5685224609,-0.0912542318,68.4965413411,-14.6973419190,-57.8827412923
2.1314611435,0.3918668620,-0.5685224609,-0.0912542318,68.4965413411,-14.6973419190,-69.5251973470
2.1341741085,0.3918668620,-0.4674482422,-0.1200628255,56.2437337239,-14.5905303956,-69.5251973470
2.1369290352,0.4636442057,-0.4674482422,-0.1200628255,56.2437337239,-14.5905303956,-81.5491231282
2.1396391392,0.4636442057,-0.4674482422,-0.1200628255,45.8219807942,-13.6750030518,-81.5491231282
2.1423490047,0.4636442057,-0.4674482422,-0.1200628255,45.8219807942,-13.6750030518,-93.2678731282
2.1450510025,0.4934293620,-0.3570966796,-0.1181097005,37.3533528646,-13.1256866456,-92.3828633626
2.1477720737,0.4934293620,-0.3570966796,-0.1181097005,37.3533528646,-13.1256866456,-104.1016133626
2.1504781246,0.4934293620,-0.3570966796,-0.1181097005,29.6018880208,-12.3932647706,-102.7588399251
2.1531870365,0.4934293620,-0.3570966796,-0.1181097005,29.6018880208,-12.3932647706,-110.5713399251
2.1559000015,0.4773160807,-0.2955732422,-0.1156682943,20.7823079427,-12.6221466065,-112.4481709798
2.1585140228,0.4773160807,-0.2955732422,-0.1156682943,20.7823079427,-12.6221466065,-112.4481709798
2.1610910892,0.4773160807,-0.2955732422,-0.1156682943,11.7185872396,-13.7818145752,-122.5647481282
2.1637880802,0.4773160807,-0.2955732422,-0.0853948568,11.7185872396,-13.7818145752,-122.5647481282
2.1665441990,0.4358121745,-0.2789716796,-0.0853948568,3.0210774739,-15.3076934815,-133.4137471517
2.1692440510,0.4358121745,-0.2789716796,-0.0853948568,3.0210774739,-15.3076934815,-133.4137471517
2.1719481945,0.4358121745,-0.2789716796,-0.0853948568,-4.3946940104,-16.3605499268,-144.6442159017
2.1746520996,0.3855192057,-0.2657880859,-0.0829534505,-4.3946940104,-16.3605499268,-144.6442159017
2.1773700714,0.3855192057,-0.2657880859,-0.0829534505,-11.1390787761,-17.5507354737,-155.2032979329
2.1800770760,0.3855192057,-0.2657880859,-0.0829534505,-11.1390787761,-17.5507354737,-155.2032979329
2.1827800274,0.3855192057,-0.2657880859,-0.0829534505,-18.1733805339,-18.7409210206,-164.0076192220
2.1854870319,0.3239957683,-0.2428388672,-0.0780706381,-18.1733805339,-18.7409210206,-164.0076192220
2.1882131100,0.3239957683,-0.2428388672,-0.0780706381,-24.6888834636,-19.4123077393,-173.2544453938
2.1909182072,0.3239957683,-0.2428388672,-0.0780706381,-24.6888834636,-19.4123077393,-173.2544453938
2.1936299801,0.3239957683,-0.2428388672,-0.0780706381,-31.2501627604,-20.4956817627,-181.9214375813
2.1963441372,0.3122770183,-0.2555341796,-0.0853948568,-31.2501627604,-20.4956817627,-181.9214375813
2.1989200115,0.3122770183,-0.2555341796,-0.0853948568,-38.5743815104,-21.6248321534,-191.0461934407
2.2015011311,0.3122770183,-0.2555341796,-0.0853948568,-38.5743815104,-21.6248321534,-191.0461934407
2.2040791512,0.3122770183,-0.2555341796,-0.0868597005,-45.0746256511,-22.6319122315,-198.5687764485
2.2066831589,0.2727262370,-0.2164716796,-0.0868597005,-45.0746256511,-22.6319122315,-198.5687764485
2.2092680931,0.2727262370,-0.2164716796,-0.0868597005,-51.8495279948,-23.4558868409,-205.3436787923
2.2118442059,0.2727262370,-0.2164716796,-0.0868597005,-51.8495279948,-23.4558868409,-205.3436787923
2.2144250870,0.2727262370,-0.0914716796,-0.0800237631,-56.8696695964,-23.3643341065,-211.7828877767
2.2171580791,0.2102262370,-0.1422529296,-0.0800237631,-56.8696695964,-23.3643341065,-211.7828877767
2.2198710442,0.2102262370,-0.1422529296,-0.0800237631,-60.3181559245,-22.8455352784,-217.8711446126
2.2225821018,0.2102262370,-0.1422529296,-0.0800237631,-60.3181559245,-22.8455352784,-217.8711446126
2.2252900600,0.1506559245,-0.0777998046,-0.0731878255,-64.1023356120,-22.7845001221,-223.3490498860
2.2281231880,0.1506559245,-0.0777998046,-0.0731878255,-64.1023356120,-22.7845001221,-223.3490498860
2.2309420109,0.1506559245,-0.0777998046,-0.0731878255,-67.7339274089,-22.3419952393,-228.6438496907
2.2336490154,0.1506559245,-0.0777998046,-0.0731878255,-67.7339274089,-22.3419952393,-228.6438496907
2.2363731861,0.1106168620,-0.0309248046,-0.0863714193,-72.1894938151,-22.4335479737,-234.4269307454
2.2390840054,0.1106168620,-0.0309248046,-0.0863714193,-72.1894938151,-22.4335479737,-234.4269307454
2.2417910099,0.1106168620,-0.0309248046,-0.0863714193,-75.5769449870,-22.2351837159,-240.0269063313
2.2446551323,0.1106168620,0.0940751954,-0.0985784505,-75.5769449870,-22.2351837159,-240.0269063313
2.2474160194,0.0451871745,0.0174150391,-0.0985784505,-77.7131754558,-21.3043975830,-244.4519551595
2.2499971390,0.0451871745,0.0174150391,-0.0985784505,-77.7131754558,-21.3043975830,-244.4519551595
2.2526731491,0.0451871745,0.0174150391,-0.0985784505,-77.7436930339,-19.9005889893,-248.1293233235
2.2560009956,-0.0221956380,0.0891923828,-0.1044378255,-77.7436930339,-19.9005889893,-248.1293233235
2.2586569786,-0.0221956380,0.0891923828,-0.1044378255,-77.9115397136,-18.0237579346,-251.3184102376
2.2612311840,-0.0221956380,0.0891923828,-0.1044378255,-77.9115397136,-18.0237579346,-251.3184102376
2.2638061047,-0.0221956380,0.0891923828,-0.1044378255,-77.6368815104,-16.1011505127,-254.4312032063
2.2663781643,-0.0563753255,0.1263017578,-0.1049261068,-77.6368815104,-16.1011505127,-254.4312032063
2.2689530849,-0.0563753255,0.1263017578,-0.1049261068,-77.3164469401,-14.7278594971,-257.5745137532
2.2715201378,-0.0563753255,0.1263017578,-0.1049261068,-77.3164469401,-14.7278594971,-257.5745137532
2.2740900517,-0.0563753255,0.1263017578,-0.1049261068,-76.7823893229,-13.7665557862,-261.1298116048
2.2767121792,-0.0934847005,0.1629228516,-0.0863714193,-76.7823893229,-13.7665557862,-261.1298116048
2.2792840004,-0.0934847005,0.1629228516,-0.0863714193,-76.7823893229,-12.3169708252,-264.8071797688
2.2818570137,-0.0934847005,0.1629228516,-0.0863714193,-74.9513346354,-12.3169708252,-264.8071797688
2.2844290733,-0.0934847005,0.1629228516,-0.0863714193,-74.9513346354,-12.3169708252,-268.0573018391
2.2870140076,-0.1315706380,0.2019853516,-0.0658636068,-72.5099283854,-11.1573028565,-268.0573018391
2.2895941734,-0.1315706380,0.2019853516,-0.0658636068,-72.5099283854,-11.1573028565,-271.0327657063
2.2921731472,-0.1315706380,0.2019853516,-0.0658636068,-69.5649820964,-9.7534942627,-271.0327657063
2.2948651314,-0.1315706380,0.2019853516,-0.0551214193,-69.5649820964,-9.7534942627,-273.9471944173
2.2976222038,-0.1564729817,0.2166337891,-0.0551214193,-67.4440104167,-7.9376983643,-273.9471944173
2.3001999855,-0.1564729817,0.2166337891,-0.0551214193,-67.4440104167,-7.9376983643,-273.9471944173
2.3027720451,-0.1564729817,0.2166337891,-0.0551214193,-65.8113199870,-7.3578643799,-275.5493672688
2.3053491116,-0.1564729817,0.2195634766,-0.0448675131,-65.8113199870,-7.3578643799,-275.5493672688
2.3080880642,-0.1847932943,0.2195634766,-0.0448675131,-64.4380289714,-6.0913848877,-277.1210225423
2.3107771873,-0.1847932943,0.2195634766,-0.0448675131,-64.4380289714,-6.0913848877,-277.1210225423
2.3134679794,-0.1847932943,0.2195634766,-0.0448675131,-63.7666422526,-4.6570587159,-278.5858662923
2.3161621094,-0.2067659505,0.2112626954,-0.0399847005,-63.7666422526,-4.6570587159,-278.5858662923
2.3188540936,-0.2067659505,0.2112626954,-0.0399847005,-62.8968912761,-3.8636016846,-279.8370869954
2.3215441704,-0.2067659505,0.2112626954,-0.0399847005,-62.8968912761,-3.8636016846,-279.8370869954
2.3242361546,-0.2067659505,0.2112626954,-0.0399847005,-61.9508463542,-3.1769561768,-281.6376241048
2.3269371986,-0.2272737630,0.2014970704,-0.0482854818,-61.9508463542,-3.1769561768,-281.6376241048
2.3296260834,-0.2272737630,0.2014970704,-0.0482854818,-62.0881754558,-3.1006622315,-282.8735860188
2.3323180676,-0.2272737630,0.2014970704,-0.0482854818,-62.0881754558,-3.1006622315,-282.8735860188
2.3350090981,-0.2272737630,0.2014970704,-0.0482854818,-64.0107828776,-2.9785919190,-284.5978291829
2.3377430439,-0.2585237630,0.1844072266,-0.0370550131,-64.0107828776,-2.9785919190,-284.5978291829
2.3404321671,-0.2585237630,0.1844072266,-0.0370550131,-65.3688151042,-2.5360870362,-286.3831075032
2.3431220055,-0.2585237630,0.1844072266,-0.0370550131,-65.3688151042,-2.5360870362,-286.3831075032
2.3458161354,-0.2585237630,0.1761064454,-0.0180120443,-68.7410074870,-1.9409942627,-287.8937276204
2.3485150337,-0.3088167317,0.1761064454,-0.0180120443,-68.7410074870,-1.9409942627,-287.8937276204
2.3512079716,-0.3088167317,0.1761064454,-0.0180120443,-72.4031168620,-2.0020294190,-289.5569356282
2.3538961411,-0.3088167317,0.1761064454,-0.0180120443,-72.4031168620,-2.0020294190,-289.5569356282
2.3566071987,-0.3483675130,0.1673173828,-0.0175237631,-75.6837565104,-1.6815948487,-290.3046162923
2.3594071865,-0.3483675130,0.1673173828,-0.0175237631,-75.6837565104,-1.6815948487,-290.3046162923
2.3620991707,-0.3483675130,0.1673173828,-0.0175237631,-79.2543131511,-1.5595245362,-290.8081563313
2.3649301529,-0.3483675130,0.1673173828,-0.0175237631,-79.2543131511,-1.5595245362,-291.2506612141
2.3683772087,-0.3888948567,0.1531572266,-0.0062932943,-84.1523844401,-2.0020294190,-291.2506612141
2.3709530830,-0.3888948567,0.1531572266,-0.0062932943,-84.1523844401,-2.0020294190,-291.2506612141
2.3735280037,-0.3888948567,0.1531572266,-0.0062932943,-89.0351969401,-2.0172882080,-291.7999776204
2.3760941029,-0.5138948567,0.1629228516,-0.0018987631,-89.0351969401,-2.0172882080,-291.7999776204
2.3789660931,-0.4255159505,0.1629228516,-0.0018987631,-92.0716959636,-2.1393585206,-292.9749043782
2.3815431595,-0.4255159505,0.1629228516,-0.0018987631,-92.0716959636,-2.1393585206,-292.9749043782
2.3843929768,-0.4255159505,0.1629228516,-0.0018987631,-93.4449869792,-1.8036651612,-294.3481953938
2.3869881630,-0.4777620443,0.1355791016,-0.0106878255,-93.4449869792,-1.8036651612,-294.3481953938
2.3895680904,-0.4777620443,0.1355791016,-0.0106878255,-95.0166422526,-1.5442657471,-295.3247578938
2.3921430111,-0.4777620443,0.1355791016,-0.0106878255,-95.0166422526,-1.5442657471,-295.3247578938
2.3947100639,-0.4777620443,0.1355791016,-0.0106878255,-98.4040934245,-1.1780548096,-295.9045918782
2.3973331451,-0.5241487630,0.1170244141,-0.0077581381,-98.4040934245,-1.1780548096,-295.9045918782
2.3999021053,-0.5241487630,0.1170244141,-0.0077581381,-102.6765543620,-0.9949493409,-296.6370137532
2.4024779797,-0.5241487630,0.1170244141,-0.0077581381,-102.6765543620,-0.9949493409,-296.6370137532
2.4050590992,-0.5241487630,0.1170244141,-0.0077581381,-106.3081461589,0.1952362060,-297.3694356282
2.4076809883,-0.5871370443,0.1306962891,-0.0258245443,-106.3081461589,0.1952362060,-297.3694356282
2.4102571011,-0.5871370443,0.1306962891,-0.0258245443,-109.4209391276,3.2012176513,-297.8577168782
2.4128320217,-0.5871370443,0.1306962891,-0.0258245443,-109.4209391276,3.2012176513,-297.8577168782
2.4153990746,-0.5871370443,0.1306962891,-0.0258245443,-113.3271891276,6.2529754638,-297.5220235188
2.4179840088,-0.6471956380,0.1829423828,-0.0160589193,-110.8705240886,6.2529754638,-297.5220235188
2.4205520153,-0.6471956380,0.1829423828,-0.0160589193,-110.8705240886,6.2529754638,-295.0806172688
2.4232339859,-0.6471956380,0.1829423828,-0.0160589193,-115.6007486979,6.9091033935,-295.0806172688
2.4258170128,-0.6471956380,0.1829423828,-0.0160589193,-115.6007486979,6.9091033935,-290.8997090657
2.4285600185,-0.6896761067,0.2840166016,-0.0409612631,-115.6160074870,8.3586883544,-290.8997090657
2.4311370850,-0.6896761067,0.2840166016,-0.0409612631,-115.6160074870,8.3586883544,-287.2070821126
2.4337069988,-0.6896761067,0.2840166016,-0.0409612631,-108.4901529948,14.7063446044,-287.2070821126
2.4363741875,-0.6896761067,0.2840166016,-0.0795354818,-108.4901529948,14.7063446044,-279.3945821126
2.4389560223,-0.7136018880,0.4026689454,-0.0795354818,-103.6836344401,19.6654510498,-281.2256368001
2.4415249825,-0.7136018880,0.4026689454,-0.0795354818,-103.6836344401,19.6654510498,-281.2256368001
2.4440991879,-0.7136018880,0.4026689454,-0.0795354818,-104.3702799479,22.9155731201,-270.5139668782
2.4467461109,-0.7136018880,0.3684892578,-0.0189886068,-104.3702799479,22.9155731201,-270.5139668782
2.4494311810,-0.6681917317,0.3684892578,-0.0189886068,-109.3141276042,26.3640594482,-257.7576192220
2.4520061016,-0.6681917317,0.3684892578,-0.0189886068,-109.3141276042,26.3640594482,-257.7576192220
2.4545791149,-0.6681917317,0.3684892578,-0.0189886068,-110.7637125651,29.0038299560,-243.3533223470
2.4572479725,-0.5431917317,0.4378251954,0.0513238932,-110.7637125651,29.0038299560,-243.3533223470
2.4598209858,-0.5832307943,0.4378251954,0.0513238932,-110.5500895182,30.8959197998,-227.1332295735
2.4633901119,-0.5832307943,0.4378251954,0.0513238932,-110.5500895182,30.8959197998,-227.1332295735
2.4659759998,-0.5832307943,0.4378251954,0.0513238932,-112.1217447917,30.6670379638,-209.9670918782
2.4685561657,-0.3200472005,0.5813798828,0.1694879557,-112.1217447917,30.6670379638,-209.9670918782
2.4711291790,-0.3200472005,0.5813798828,0.1694879557,-114.0596110026,28.0272674560,-194.4946797688
2.4737050533,-0.3200472005,0.5813798828,0.1694879557,-114.0596110026,28.0272674560,-194.4946797688
2.4762611389,-0.3200472005,0.5813798828,0.1694879557,-113.1898600261,22.2289276123,-179.1290791829
2.4788360596,-0.0134065755,0.7986650391,0.3086481119,-113.1898600261,22.2289276123,-179.1290791829
2.4814171791,-0.0134065755,0.7986650391,0.3086481119,-103.6378580729,14.3248748779,-163.9618428548
2.4839930534,-0.0134065755,0.7986650391,0.3086481119,-103.6378580729,14.3248748779,-163.9618428548
2.4866130352,-0.0134065755,0.7986650391,0.3086481119,-81.8177897136,6.5734100341,-147.5739034017
2.4892861843,0.1125699870,1.1565751954,0.2974176432,-81.8177897136,6.5734100341,-147.5739034017
2.4918551445,0.1125699870,1.1565751954,0.2974176432,-52.8871256511,-0.6592559815,-129.7974141438
2.4944369793,0.1125699870,1.1565751954,0.2974176432,-52.8871256511,-0.6592559815,-129.7974141438
2.4970111847,0.1125699870,1.2815751954,0.1646051432,-21.6371256511,-5.6488800049,-111.0443623860
2.4995841980,0.1760465495,1.3333330078,0.1646051432,-20.7215983073,-5.6488800049,-111.0443623860
2.5021569729,0.1760465495,1.3333330078,0.1646051432,-20.7215983073,-9.5551300049,-91.5741475423
2.5047240257,0.1760465495,1.3333330078,0.1646051432,8.6515706380,-8.0292510987,-91.5741475423
2.5074620247,0.1760465495,1.1385087891,0.0254449869,8.6515706380,-8.0292510987,-72.7905782063
2.5100381374,0.0813199870,1.1385087891,0.0254449869,30.9294026692,-8.4412384034,-72.7905782063
2.5126061440,0.0813199870,1.1385087891,0.0254449869,30.9294026692,-8.4412384034,-53.2593282063
2.5151801109,0.0813199870,1.1385087891,0.0254449869,42.7244466146,-5.6336212159,-52.2217305501
2.5179231167,-0.0617464193,0.9456376954,-0.0824651693,42.7244466146,-5.6336212159,-32.6904805501
2.5206291676,-0.0617464193,0.9456376954,-0.0824651693,45.9440511068,-1.2848663330,-31.6528828938
2.5233421326,-0.0617464193,0.9456376954,-0.0824651693,45.9440511068,-1.2848663330,-8.2153828938
2.5260519981,-0.0617464193,0.9456376954,-0.0824651693,43.3195393880,4.6202850341,-11.4197285970
2.5287749767,-0.1501253255,0.8147783204,-0.1503362631,43.3195393880,4.6202850341,4.2052714030
2.5314810276,-0.1501253255,0.8147783204,-0.1503362631,36.6972249349,11.4714813232,6.7840067546
2.5341911316,-0.1501253255,0.8147783204,-0.1503362631,36.6972249349,11.4714813232,26.3152567546
2.5369460583,-0.1501253255,0.8147783204,-0.1503362631,27.3435872396,18.3226776123,24.2553202312
2.5396480560,-0.1847932943,0.7639970704,-0.1693792318,27.3435872396,18.3226776123,39.8803202312
2.5423510075,-0.1847932943,0.7639970704,-0.1693792318,17.3795979818,24.8076629638,41.7113749187
2.5450680256,-0.1847932943,0.7639970704,-0.1693792318,17.3795979818,24.8076629638,61.2426249187
2.5477201939,-0.1847932943,0.7527666016,-0.1293401693,8.7126057942,29.5378875732,59.0453592937
2.5503079891,-0.1896761067,0.7527666016,-0.1293401693,8.7126057942,29.5378875732,59.0453592937
2.5531570911,-0.1896761067,0.7527666016,-0.1293401693,0.3965657552,32.2997283935,75.9826151530
2.5557351112,-0.1896761067,0.7527666016,-0.1293401693,0.3965657552,32.2997283935,75.9826151530
2.5584230423,-0.1174104817,0.7107744141,-0.0502386068,-7.3854166667,32.5286102294,91.7449442546
2.5610001087,-0.1174104817,0.7107744141,-0.0502386068,-7.3854166667,32.5286102294,107.3699442546
2.5641710758,-0.1174104817,0.7107744141,-0.0502386068,-16.0218912761,30.8959197998,107.0495096843
2.5668311119,-0.1174104817,0.7107744141,-0.0502386068,-16.0218912761,30.8959197998,107.0495096843
2.5694169998,-0.0925081380,0.3670244141,0.0835504557,-24.7804361979,27.4016571044,116.7388407390
2.5719900131,-0.0925081380,0.3670244141,0.0835504557,-24.7804361979,27.4016571044,116.7388407390
2.5745611191,-0.0925081380,0.3670244141,0.0835504557,-29.4191080729,17.8801727294,112.7410380046
2.5772759914,-0.0925081380,0.3670244141,0.0835504557,-29.4191080729,17.8801727294,112.7410380046
2.5798480511,-0.1257112630,0.1971025391,0.2871637369,-46.4631754558,13.4398651123,125.6041971843
2.5824220181,-0.1257112630,0.1971025391,0.2871637369,-46.4631754558,13.4398651123,125.6041971843
2.5849940777,-0.1257112630,0.1971025391,0.2871637369,-37.6435953776,17.9869842529,127.0232645671
2.5875720978,-0.1257112630,0.1971025391,0.0371637369,-37.6435953776,17.9869842529,127.0232645671
2.5901451111,-0.3898714193,-0.9108076172,0.0430231119,-26.8098551432,22.6714324951,113.1835428874
2.5927231312,-0.3898714193,-0.9108076172,0.0430231119,-26.8098551432,22.6714324951,113.1835428874
2.5952930450,-0.3898714193,-0.9108076172,0.0430231119,-34.3476969401,20.5962371826,104.4555155437
2.5979001522,-0.3898714193,-0.9108076172,-0.1703557943,-34.3476969401,20.5962371826,104.4555155437
2.6004731655,-0.4338167317,-1.2208662109,-0.1703557943,-46.0664469401,11.1968231201,106.4696756999
2.6030390263,-0.4338167317,-1.2208662109,-0.1703557943,-46.6005045573,11.1968231201,106.4696756999
2.6056110859,-0.4338167317,-1.2208662109,-0.1703557943,-46.6005045573,4.2235565185,114.2516581218
2.6083571911,-0.4338167317,-0.4820966796,-0.1264104818,-62.4391276042,4.2235565185,114.2516581218
2.6109290123,-0.3063753255,-0.4820966796,-0.1264104818,-62.4391276042,4.2235565185,124.0630594890
2.6135051250,-0.3063753255,-0.4820966796,-0.1264104818,-78.0488688151,3.0181121826,124.0630594890
2.6161870956,-0.3063753255,-0.4820966796,-0.1264104818,-78.0488688151,3.0181121826,133.2946268718
2.6190450191,-0.3683870443,0.3626298828,-0.0897893881,-84.3812662761,4.7728729248,133.2946268718
2.6217501163,-0.3683870443,0.3626298828,-0.0897893881,-84.3812662761,4.7728729248,138.7572733562
2.6244530678,-0.3683870443,0.3626298828,-0.0897893881,-85.8613688151,4.9254608154,138.7572733562
2.6271719933,-0.3683870443,0.3626298828,-0.0897893881,-85.8613688151,1.0192108154,135.0188700359
2.6298770905,-0.1960237630,0.4222001954,0.0415582682,-88.0281168620,0.0579071044,135.0188700359
2.6325840950,-0.1960237630,0.4222001954,0.0415582682,-88.0281168620,0.0579071044,126.9469706218
2.6352851391,-0.1960237630,0.4222001954,0.0415582682,-84.3660074870,-6.3660430909,126.9469706218
2.6380000114,-0.1960237630,0.4222001954,0.0415582682,-84.3660074870,-6.3660430909,120.4925028483
2.6407082081,-0.0583284505,0.2195634766,-0.0507268881,-76.7823893229,-8.6090850830,120.4925028483
2.6434221268,-0.0583284505,0.2195634766,-0.0507268881,-76.7823893229,-8.6090850830,115.9911600749
2.6461269855,-0.0583284505,0.2195634766,-0.0507268881,-69.7328287761,-7.4188995362,115.9911600749
2.6487281322,-0.0583284505,0.2122392578,-0.1474065755,-69.7328287761,-7.4188995362,113.4276835124
2.6513030529,-0.0119417317,0.2122392578,-0.1474065755,-60.8674723308,-4.5349884034,113.4276835124
2.6538770199,-0.0119417317,0.2122392578,-0.1474065755,-60.8674723308,-4.5349884034,113.4276835124
2.6565191746,-0.0119417317,0.2122392578,-0.1474065755,-48.2179361979,-3.2837677002,109.1247049968
2.6592249870,-0.0231722005,0.1521806641,-0.1488714193,-48.2179361979,-3.2837677002,109.1247049968
2.6619319916,-0.0231722005,0.1521806641,-0.1488714193,-39.1999918620,-5.7099151612,103.5399881999
2.6646440029,-0.0231722005,0.1521806641,-0.1488714193,-39.1999918620,-5.7099151612,103.5399881999
2.6673600674,-0.0231722005,0.1521806641,-0.1488714193,-33.0201822917,-10.4248809815,97.2228495280
2.6700689793,-0.0348909505,0.0921220704,-0.0150823568,-33.0201822917,-10.4248809815,97.2228495280
2.6729011536,-0.0348909505,0.0921220704,-0.0150823568,-29.0071207682,-15.0482940674,90.1885477702
2.6756241322,-0.0348909505,0.0921220704,-0.0150823568,-29.0071207682,-15.0482940674,82.3760477702
2.6783511639,-0.0348909505,0.0921220704,0.1099176432,-26.7183024089,-18.2984161377,83.6883036296
2.6811680794,-0.0529573567,0.1536455078,0.1045465495,-26.7183024089,-18.2984161377,79.7820536296
2.6838791370,-0.0529573567,0.1536455078,0.1045465495,-25.7264811198,-19.9005889893,78.4392801921
2.6866002083,-0.0529573567,0.1536455078,0.1045465495,-25.7264811198,-19.9005889893,78.4392801921
2.6891729832,-0.0529573567,0.2918291016,0.1113824869,-26.6572672526,-19.4886016846,74.1057840983
2.6917560101,-0.1154573567,0.2918291016,0.1113824869,-26.6572672526,-19.4886016846,74.1057840983
2.6943311691,-0.1154573567,0.2918291016,0.1113824869,-24.9940592448,-18.7714385987,71.6338602702
2.6969811916,-0.1154573567,0.2918291016,0.1113824869,-24.9940592448,-18.7714385987,71.6338602702
2.6996941566,-0.1418245443,0.4109697266,0.0591363932,-20.0959879558,-18.5272979737,70.1079813640
2.7024021149,-0.1418245443,0.4109697266,0.0591363932,-20.0959879558,-18.5272979737,70.1079813640
2.7051131725,-0.1418245443,0.4109697266,0.0591363932,-11.3832194011,-18.9087677002,67.6207987468
2.7077641487,-0.1418245443,0.4109697266,0.0591363932,-11.3832194011,-18.9087677002,67.6207987468
2.7103390694,-0.1086214193,0.4583330078,-0.0180120443,0.4728597005,-19.5343780518,63.6687723796
2.7129189968,-0.1086214193,0.4583330078,-0.0180120443,0.4728597005,-19.5343780518,63.6687723796
2.7154910564,-0.1086214193,0.4583330078,-0.0180120443,8.5905354818,-20.0531768799,57.2905985515
2.7182040215,-0.1086214193,0.4583330078,-0.0180120443,8.5905354818,-20.0531768799,57.2905985515
2.7207851410,-0.0309847005,0.2283525391,-0.0370550131,14.8161214192,-20.4804229737,46.5941874187
2.7233650684,-0.0309847005,0.2283525391,-0.0370550131,14.8161214192,-20.4804229737,46.5941874187
2.7259440422,-0.0309847005,0.2283525391,-0.0370550131,20.0041097005,-20.3888702393,36.4013163249
2.7287471294,-0.0309847005,0.2283525391,-0.0370550131,20.0041097005,-20.3888702393,36.4013163249
2.7314541340,0.0144254557,0.1072587891,-0.0414495443,21.2095540364,-20.8008575440,30.4809061687
2.7341711521,0.0144254557,0.1072587891,-0.0414495443,21.2095540364,-20.8008575440,30.4809061687
2.7369060516,0.0144254557,0.1072587891,-0.0414495443,21.6825764974,-20.6635284424,26.6204325359
2.7394800186,0.0144254557,0.1072587891,-0.0531682943,21.6825764974,-20.6635284424,26.6204325359
2.7420701981,0.0197965495,0.1448564454,-0.0531682943,25.5888264974,-18.3136749268,21.2035624187
2.7447659969,0.0197965495,0.1448564454,-0.0531682943,26.6111653646,-18.3136749268,21.2035624187
2.7474250793,0.0197965495,0.1448564454,-0.0531682943,34.4236653646,-16.4063262940,13.4673563640
2.7501389980,0.0051481120,0.1194658204,-0.0048284505,31.7991536458,-16.4063262940,13.4673563640
2.7528450489,0.0051481120,0.1194658204,-0.0048284505,31.7991536458,-15.0177764893,5.8379618327
2.7555561066,0.0051481120,0.1194658204,-0.0048284505,34.1490071614,-15.0177764893,5.8379618327
2.7582681179,0.0051481120,0.1194658204,-0.0048284505,34.1490071614,-14.0259552002,0.6652323405
2.7609720230,0.0105192057,0.0359697266,0.0034723307,34.3473714192,-14.0259552002,0.6652323405
2.7636849880,0.0105192057,0.0359697266,0.0034723307,34.3473714192,-13.0493927002,-1.9745381673
2.7663950920,0.0105192057,0.0359697266,0.0034723307,32.3637288411,-13.0493927002,-1.9745381673
2.7691040039,0.0105192057,0.0359697266,0.0034723307,28.4574788411,-11.7523956299,-4.0955098470
2.7718181610,-0.0138948567,0.0159501954,-0.0155706381,28.6558430989,-11.7523956299,-4.0955098470
2.7745261192,-0.0138948567,0.0159501954,-0.0155706381,24.7495930989,-10.9436798096,-6.1401875813
2.7772481441,-0.0138948567,0.0159501954,-0.0155706381,23.7577718099,-10.9436798096,-6.1401875813
2.7799592018,-0.0138948567,0.0027666016,-0.0106878255,19.8515218099,-10.2875518799,-7.6965840657
2.7826650143,-0.0261018880,0.0027666016,-0.0106878255,19.9278157552,-10.2875518799,-7.6965840657
2.7853751183,-0.0261018880,0.0027666016,-0.0106878255,16.0215657552,-9.8755645752,-8.8257344563
2.7880401611,-0.0261018880,0.0027666016,-0.0106878255,17.0286458333,-9.8755645752,-8.8257344563
2.7906100750,-0.0051057943,-0.0128583984,-0.0131292318,17.0286458333,-9.8755645752,-9.8328145345
2.7931880951,-0.0051057943,-0.0128583984,-0.0131292318,13.3055013021,-9.6009063721,-9.8328145345
2.7957651615,-0.0051057943,-0.0128583984,-0.0131292318,13.3055013021,-9.6009063721,-10.4279073079
2.7984671593,-0.0051057943,-0.0128583984,-0.0131292318,10.1011555989,-8.7311553956,-10.4279073079
2.8011691570,0.0183317057,-0.0138349609,-0.0038518881,10.1011555989,-8.7311553956,-10.9924825032
2.8038761616,0.0183317057,-0.0138349609,-0.0038518881,8.0412190755,-7.8308868409,-10.9924825032
2.8065960407,0.0183317057,-0.0138349609,-0.0038518881,8.0412190755,-7.8308868409,-12.0605977376
2.8094091415,0.0183317057,-0.0138349609,-0.0038518881,7.3393147786,-8.1818389893,-12.0605977376
2.8121190071,0.0207731120,0.0027666016,-0.0043401693,7.3393147786,-8.1818389893,-14.1510518391
2.8148369789,0.0207731120,0.0027666016,-0.0043401693,8.9567464192,-7.4799346924,-14.1510518391
2.8175580502,0.0207731120,0.0027666016,-0.0043401693,8.9567464192,-7.4799346924,-15.2954610188
2.8202660084,0.0207731120,0.0139970704,0.0098199869,10.6657307942,-6.4270782471,-15.2954610188
2.8229701519,0.0178434245,0.0139970704,0.0098199869,10.6657307942,-6.4270782471,-16.6077168782
2.8256790638,0.0178434245,0.0139970704,0.0098199869,11.9779866536,-5.6183624268,-16.6077168782
2.8284029961,0.0178434245,0.0139970704,0.0098199869,11.9779866536,-5.6183624268,-17.5537618001
2.8311061859,0.0183317057,0.0222978516,0.0122613932,14.0379231771,-5.3742218018,-17.5537618001
2.8338160515,0.0183317057,0.0222978516,0.0122613932,14.0379231771,-5.3742218018,-18.2556660970
2.8365330696,0.0183317057,0.0222978516,0.0122613932,16.4793294271,-5.6183624268,-18.2556660970
2.8391110897,0.0183317057,0.0222978516,0.0122613932,16.4793294271,-5.6183624268,-18.2556660970
2.8416950703,0.0349332683,0.0027666016,0.0210504557,19.2716878255,-5.8625030518,-18.7134297688
2.8442680836,0.0349332683,0.0027666016,0.0210504557,19.2716878255,-5.8625030518,-18.7134297688
2.8468821049,0.0349332683,0.0027666016,0.0210504557,24.0782063802,-5.4199981690,-18.3624776204
2.8495922089,0.0349332683,0.0027666016,0.0210504557,24.0782063802,-5.4199981690,-18.3624776204
2.8522989750,0.0256559245,-0.0216474609,0.0015192057,27.8776448568,-5.6031036377,-18.1793721517
2.8550059795,0.0256559245,-0.0216474609,0.0015192057,27.8776448568,-5.6031036377,-18.1793721517
2.8576641083,0.0256559245,-0.0216474609,0.0015192057,31.4176839192,-5.5420684815,-18.7897237141
2.8603980541,0.0256559245,-0.0216474609,0.0176324869,31.4176839192,-5.5420684815,-18.7897237141
2.8629720211,-0.0021761067,-0.0377607422,0.0176324869,33.9506429036,-5.0080108643,-19.0186055501
2.8655459881,-0.0021761067,-0.0377607422,0.0176324869,33.9506429036,-5.0080108643,-19.0186055501
2.8682110310,-0.0021761067,-0.0377607422,0.0176324869,35.4612630208,-5.3131866456,-16.9434102376
2.8707931042,-0.0021761067,-0.0665693359,0.0132379557,35.4612630208,-5.3131866456,-16.9434102376
2.8735799789,0.0051481120,-0.0665693359,0.0132379557,36.4988606771,-5.1605987549,-14.8834737141
2.8762731552,0.0051481120,-0.0665693359,0.0132379557,36.4988606771,-5.1605987549,-14.8834737141
2.8791561127,0.0051481120,-0.0665693359,0.0132379557,35.1255696614,-4.7943878174,-14.0442403157
2.8817241192,-0.0221956380,-0.0919599609,0.0088434245,35.1255696614,-4.7943878174,-14.0442403157
2.8842949867,-0.0221956380,-0.0919599609,0.0088434245,32.1195882161,-3.8941192627,-12.4573262532
2.8869462013,-0.0221956380,-0.0919599609,0.0088434245,32.1195882161,-3.8941192627,-12.4573262532
2.8895201683,-0.0221956380,-0.0919599609,0.0088434245,29.6934407552,-3.0091094971,-8.4442647298
2.8920910358,0.0075895183,-0.0597333984,0.0195856119,29.6934407552,-3.0091094971,-8.4442647298
2.8946640491,0.0075895183,-0.0597333984,0.0195856119,31.7838948568,-1.9715118409,-5.3467305501
2.8973021507,0.0075895183,-0.0597333984,0.0195856119,31.7838948568,-1.9715118409,-5.3467305501
2.8998711109,0.0075895183,-0.0597333984,0.0195856119,35.6901448568,-0.2930450440,-3.9734395345
2.9024350643,-0.0212190755,-0.0963544922,0.0288629557,35.4917805989,-0.2930450440,-3.9734395345
2.9050071239,-0.0212190755,-0.0963544922,0.0288629557,35.4917805989,-0.2930450440,-2.9205830891
2.9075810909,-0.0212190755,-0.0963544922,0.0288629557,35.8732503255,1.0497283935,-2.9205830891
2.9101550579,-0.0212190755,-0.0963544922,0.0288629557,35.8732503255,1.0497283935,-0.3876241048
2.9127221107,-0.0212190755,-0.1105146484,0.0073785807,34.1947835286,0.4698944091,-0.3876241048
2.9152951241,-0.0212190755,-0.1105146484,0.0073785807,34.1947835286,0.4698944091,3.5186258952
2.9179041386,-0.0212190755,-0.1105146484,0.0073785807,32.1348470052,-0.0183868409,3.6712137859
2.9204730988,-0.0212190755,-0.1105146484,0.0073785807,32.1348470052,-0.0183868409,3.6712137859
2.9230420589,-0.0060823567,-0.0753583984,0.0000543619,29.9375813802,-0.1251983643,6.6619364421
2.9256131649,-0.0060823567,-0.0753583984,0.0000543619,29.9375813802,-0.1251983643,6.6619364421
2.9283790588,-0.0060823567,-0.0753583984,0.0000543619,27.6029866536,-0.1251983643,9.0575663249
2.9309539795,-0.0060823567,-0.0753583984,0.0068902995,27.6029866536,-0.1251983643,9.0575663249
2.9335291386,-0.0114534505,-0.0514326172,0.0068902995,25.7108968099,0.0731658935,12.5518290202
2.9363491535,-0.0114534505,-0.0514326172,0.0068902995,25.7108968099,0.0731658935,12.5518290202
2.9390561581,-0.0114534505,-0.0514326172,0.0068902995,24.5359700521,-0.1099395752,15.0542704265
2.9417591095,-0.0114534505,-0.0411787109,0.0234918619,24.5359700521,-0.1099395752,15.0542704265
2.9444642067,-0.0124300130,-0.0411787109,0.0234918619,24.3681233724,-0.0336456299,17.1905008952
2.9471850395,-0.0124300130,-0.0411787109,0.0234918619,24.3681233724,-0.0336456299,17.1905008952
2.9498929977,-0.0124300130,-0.0411787109,0.0234918619,25.1920979818,1.0192108154,20.0744120280
2.9526040554,0.0002652995,0.0418291016,0.0244684245,25.1920979818,1.0192108154,20.0744120280
2.9552991390,0.0002652995,0.0418291016,0.0244684245,28.9762776692,0.8971405029,21.1883036296
2.9580221176,0.0002652995,0.0418291016,0.0244684245,28.9762776692,0.8971405029,21.1883036296
2.9608612061,0.0002652995,0.0418291016,0.0244684245,32.6383870442,1.0649871826,21.4629618327
2.9634361267,-0.0148714193,0.0349931641,-0.0087347005,32.6383870442,1.0649871826,21.4629618327
2.9660100937,-0.0148714193,0.0349931641,-0.0087347005,34.0879720052,1.2786102294,21.8749491374
2.9687800407,-0.0148714193,0.0349931641,-0.0087347005,34.0879720052,1.2786102294,21.8749491374
2.9713530540,-0.0148714193,0.0349931641,-0.0072698568,33.6759847005,1.7668914794,24.2400614421
2.9743781090,-0.0212190755,0.0164384766,-0.0072698568,33.6759847005,1.7668914794,24.2400614421
2.9771862030,-0.0212190755,0.0164384766,-0.0072698568,31.6618245442,2.4535369873,27.4596659343
2.9797639847,-0.0212190755,0.0164384766,-0.0072698568,31.6618245442,2.4535369873,27.4596659343
2.9823350906,-0.0265901693,0.0266923828,-0.0028753255,29.2204182942,3.9336395263,30.0078837077
2.9849100113,-0.0265901693,0.0266923828,-0.0028753255,29.2204182942,3.9336395263,30.0078837077
2.9875221252,-0.0265901693,0.0266923828,-0.0028753255,27.0994466146,4.8644256591,33.3648173015
2.9900910854,-0.0265901693,0.0266923828,-0.0028753255,27.0994466146,4.8644256591,33.3648173015
2.9926631451,-0.0265901693,0.0086259766,0.0093317057,25.6498616536,6.0088348388,35.0890604655
2.9952330589,-0.0265901693,0.0086259766,0.0093317057,25.6498616536,6.0088348388,35.0890604655
2.9978470802,-0.0265901693,0.0086259766,0.0093317057,25.6498616536,7.3058319091,36.1876932780
3.0005280972,-0.0265901693,0.0086259766,0.0093317057,25.1920979818,7.3058319091,36.1876932780
3.0030970573,-0.0724886067,0.0042314454,0.0039606119,25.1920979818,8.7401580810,38.0645243327
3.0056669712,-0.0724886067,0.0042314454,0.0039606119,24.9784749349,8.7401580810,38.0645243327
3.0082941055,-0.0724886067,0.0042314454,0.0039606119,24.9784749349,8.7401580810,41.6503397624
3.0108602047,-0.0724886067,0.0042314454,0.0039606119,23.8645833333,10.4338836670,41.6503397624
3.0134301186,-0.0573518880,0.0330400391,0.0176324869,23.8645833333,10.4338836670,45.5565897624
3.0160031319,-0.0573518880,0.0330400391,0.0176324869,22.1708577474,11.3188934326,44.6868387859
3.0187830925,-0.0573518880,0.0330400391,0.0176324869,22.1708577474,11.3188934326,48.5930887859
3.0213580132,-0.0573518880,0.0330400391,0.0176324869,19.5768636068,11.8529510498,46.8383280437
3.0239250660,-0.0676057943,0.0266923828,-0.0004339193,19.5768636068,11.8529510498,46.8383280437
3.0266561508,-0.0676057943,0.0266923828,-0.0004339193,17.7458089192,13.8213348388,48.6236063640
3.0292241573,-0.0676057943,0.0266923828,-0.0004339193,17.7458089192,13.8213348388,48.6236063640
3.0317940712,-0.0676057943,0.0266923828,-0.0004339193,16.6013997396,15.2709197998,49.8290506999
3.0343751907,-0.0720003255,0.0594072266,-0.0199651693,16.6013997396,15.2709197998,49.8290506999
3.0370051861,-0.0720003255,0.0594072266,-0.0199651693,15.0755208333,17.2698211670,51.1870829265
3.0396730900,-0.0720003255,0.0594072266,-0.0199651693,15.0755208333,17.2698211670,51.1870829265
3.0423321724,-0.0720003255,0.0594072266,-0.0009222005,14.0836995442,19.1771697998,52.2704569499
3.0450000763,-0.0524690755,0.0965166016,-0.0009222005,14.0836995442,19.1771697998,52.2704569499
3.0477390289,-0.0524690755,0.0965166016,-0.0009222005,14.3736165364,20.6572723388,53.3385721843
3.0504460335,-0.0524690755,0.0965166016,-0.0009222005,14.3736165364,20.6572723388,53.3385721843
3.0531611443,-0.0607698567,0.0935869141,0.0396051432,14.7856038411,20.9166717529,54.0252176921
3.0558710098,-0.0607698567,0.0935869141,0.0396051432,14.7856038411,20.9166717529,54.0252176921
3.0585911274,-0.0607698567,0.0935869141,0.0396051432,16.7539876302,20.7183074951,53.6132303874
3.0612990856,-0.0607698567,0.0935869141,0.0396051432,16.7539876302,20.7183074951,53.6132303874
3.0641090870,-0.0793245443,0.1595048828,0.0244684245,19.4090169271,20.1232147216,52.9265848796
3.0668120384,-0.0793245443,0.1595048828,0.0244684245,19.4090169271,20.1232147216,52.9265848796
3.0694720745,-0.0793245443,0.1595048828,0.0244684245,22.1098225911,18.5515594482,51.4922587077
3.0721449852,-0.0793245443,0.1595048828,0.0244684245,22.1098225911,18.5515594482,51.4922587077
3.0747141838,-0.0910432943,0.1814775391,0.0166559245,25.8329671224,17.4224090576,50.0274149577
3.0773251057,-0.0910432943,0.1814775391,0.0166559245,25.8329671224,17.4224090576,50.0274149577
3.0798950195,-0.0910432943,0.1814775391,0.0166559245,28.2896321614,16.4458465576,49.0355936687
3.0825941563,-0.0910432943,0.1814775391,-0.0390081381,28.2896321614,16.4458465576,49.0355936687
3.0851740837,-0.1364534505,0.1678056641,-0.0390081381,28.5337727864,16.2322235107,49.1118876140
3.0878360271,-0.1364534505,0.1678056641,-0.0390081381,28.5337727864,16.2322235107,49.1118876140
3.0905451775,-0.1364534505,0.1678056641,-0.0390081381,26.9010823568,17.1935272216,50.3173319499
3.0932531357,-0.2614534505,0.1087236328,-0.0766057943,26.9010823568,17.1935272216,50.3173319499
3.0959560871,-0.1945589193,0.1087236328,-0.0766057943,23.5899251302,18.2006072998,51.7211405437
3.0986671448,-0.1945589193,0.1087236328,-0.0766057943,23.5899251302,18.2006072998,51.7211405437
3.1013760567,-0.1945589193,0.1087236328,-0.0766057943,20.2940266927,18.5363006591,54.2846171062
3.1040830612,-0.2194612630,0.0779619141,-0.0595159505,20.2940266927,18.5363006591,54.2846171062
3.1067821980,-0.2194612630,0.0779619141,-0.0595159505,16.3877766927,18.6583709716,58.1603495280
3.1093580723,-0.2194612630,0.0779619141,-0.0595159505,16.7845052083,18.6583709716,58.1603495280
3.1119360924,-0.2194612630,0.0779619141,-0.0595159505,16.7845052083,18.0175018310,62.1428934733
3.1145181656,-0.2160432943,0.0823564454,-0.1015081381,13.7327473958,18.0175018310,62.1428934733
3.1172351837,-0.2160432943,0.0823564454,-0.1015081381,13.7327473958,18.0175018310,65.1183573405
3.1198091507,-0.2160432943,0.0823564454,-0.1015081381,11.0319417318,18.5057830810,65.1183573405
3.1223840714,-0.2160432943,0.0823564454,-0.1015081381,11.0319417318,18.5057830810,67.8039042155
3.1249561310,-0.2438753255,0.1087236328,-0.1415472005,9.6739095052,19.1008758544,67.8039042155
3.1277270317,-0.2438753255,0.1087236328,-0.1415472005,9.6739095052,19.1008758544,71.7101542155
3.1303000450,-0.2438753255,0.1087236328,-0.1415472005,6.4085286458,19.0856170654,71.2218729655
3.1328761578,-0.2438753255,0.1087236328,-0.1601018881,6.4085286458,19.0856170654,71.2218729655
3.1354560852,-0.2863557943,0.0608720704,-0.1601018881,1.1747639974,19.8485565185,74.4567362468
3.1382761002,-0.2863557943,0.0608720704,-0.1601018881,1.1747639974,19.8485565185,74.4567362468
3.1409749985,-0.2863557943,0.0608720704,-0.1601018881,-4.6388346354,21.8169403076,77.5695292155
3.1436769962,-0.2863557943,0.0818681641,-0.1371526693,-4.6388346354,21.8169403076,77.5695292155
3.1463761330,-0.3488557943,0.0818681641,-0.1371526693,-10.1930338542,22.7019500732,80.1177469890
3.1489510536,-0.3488557943,0.0818681641,-0.1371526693,-10.1930338542,22.7019500732,80.1177469890
3.1515212059,-0.3488557943,0.0818681641,-0.1371526693,-13.8398844401,21.3134002685,82.8185526530
3.1540939808,-0.3801057943,0.1004228516,-0.0907659505,-13.8398844401,21.3134002685,82.8185526530
3.1567261219,-0.3801057943,0.1004228516,-0.0907659505,-16.3728434245,19.8332977294,84.6343485515
3.1592991352,-0.3801057943,0.1004228516,-0.0907659505,-16.3728434245,19.8332977294,84.6343485515
3.1618711948,-0.3801057943,0.1004228516,-0.0907659505,-16.9526774089,17.8954315185,86.1602274577
3.1644420624,-0.4245393880,0.0804033204,-0.0536565755,-16.9526774089,17.8954315185,86.1602274577
3.1672921181,-0.4245393880,0.0804033204,-0.0536565755,-15.2284342448,16.2169647216,87.8539530437
3.1698670387,-0.4245393880,0.0804033204,-0.0536565755,-15.2284342448,16.2169647216,87.8539530437
3.1725590229,-0.4245393880,0.0804033204,-0.0536565755,-13.4736735026,15.0572967529,88.6931864421
3.1758790016,-0.4479768880,0.0320634766,-0.0170354818,-13.4736735026,15.0572967529,88.6931864421
3.1784660816,-0.4479768880,0.0320634766,-0.0170354818,-10.5592447917,14.1265106201,88.5405985515
3.1810321808,-0.4479768880,0.0320634766,-0.0170354818,-10.5592447917,14.1265106201,88.5405985515
3.1836102009,-0.4479768880,0.0320634766,0.0313043619,-7.7058512370,12.7837371826,89.2577616374
3.1861741543,-0.4279573567,0.0022783204,0.0313043619,-7.7058512370,12.7837371826,89.2577616374
3.1887459755,-0.4279573567,0.0022783204,0.0313043619,-3.1739908854,10.9069061279,90.7988993327
3.1913120747,-0.4279573567,0.0022783204,0.0313043619,-3.1739908854,10.9069061279,90.7988993327
3.1939921379,-0.4279573567,0.0110673828,0.0703668619,3.7077229818,8.2366180420,94.5220438640
3.1965730190,-0.3752229817,0.0110673828,0.0703668619,3.7077229818,8.2366180420,94.5220438640
3.1991369724,-0.3752229817,0.0110673828,0.0703668619,3.7077229818,6.7412567138,98.8860575359
3.2017049789,-0.3752229817,0.0110673828,0.0703668619,13.1834309896,6.7412567138,98.8860575359
3.2042851448,-0.3752229817,-0.0509443359,0.0991754557,13.1834309896,6.7412567138,104.3487040202
3.2069280148,-0.3957307943,-0.0509443359,0.0991754557,25.8482259114,5.2153778076,104.3487040202
3.2095019817,-0.3957307943,-0.0509443359,0.0991754557,25.8482259114,5.2153778076,107.1410624187
3.2120749950,-0.3957307943,-0.0509443359,0.0991754557,38.8181966146,2.3467254638,107.1410624187
3.2146461010,-0.4767854817,-0.1505537109,0.1235895182,38.8181966146,2.3467254638,107.1410624187
3.2172679901,-0.4767854817,-0.1505537109,0.1235895182,52.0628255208,-0.5066680909,108.2244364421
3.2198450565,-0.4767854817,-0.1505537109,0.1235895182,52.0628255208,-0.5066680909,108.2244364421
3.2224152088,-0.4767854817,-0.1505537109,0.1235895182,66.2229817708,-3.2227325440,109.8418680827
3.2249929905,-0.6359651693,-0.3214521484,0.1787652995,66.2229817708,-3.2227325440,109.8418680827
3.2276790142,-0.6359651693,-0.3214521484,0.1787652995,79.6659749349,-5.1605987549,111.0015360515
3.2302529812,-0.6359651693,-0.3214521484,0.1787652995,79.6659749349,-5.1605987549,111.0015360515
3.2328271866,-0.6359651693,-0.3214521484,0.1787652995,92.0255940755,-6.8085479737,111.8560282390
3.2353990078,-0.7638948567,-0.4830732422,0.2236871745,92.0255940755,-6.8085479737,111.8560282390
3.2379879951,-0.7638948567,-0.4830732422,0.2236871745,100.4484456380,-9.5856475830,113.8854471843
3.2405622005,-0.7638948567,-0.4830732422,0.2236871745,100.4484456380,-9.5856475830,113.8854471843
3.2431380749,-0.7638948567,-0.4830732422,0.2236871745,104.4004720052,-13.4766387940,117.3644510905
3.2457191944,-0.7956331380,-0.4005537109,0.2539606119,104.4004720052,-13.4766387940,117.3644510905
3.2484171391,-0.7956331380,-0.4005537109,0.2539606119,102.0353597005,-16.5741729737,122.3693339030
3.2509911060,-0.7956331380,-0.4005537109,0.2539606119,102.0353597005,-16.5741729737,122.3693339030
3.2535681725,-0.7956331380,-0.4005537109,0.2539606119,102.0353597005,-19.1529083252,128.3507792155
3.2562670708,-0.8722932943,-0.2775068359,0.2368707682,96.8473714192,-19.1529083252,128.3507792155
3.2588481903,-0.8722932943,-0.2775068359,0.2368707682,96.8473714192,-15.2466583252,131.2652079265
3.2614200115,-0.8722932943,-0.2775068359,0.2368707682,99.4108479818,-17.7490997315,131.2652079265
3.2639961243,-0.8722932943,-0.2775068359,0.2368707682,99.4108479818,-17.7490997315,132.5011698405
3.2665710449,-0.9284456380,-0.2945966796,0.2725152995,105.1786702474,-14.6057891846,132.5011698405
3.2691421509,-0.9284456380,-0.2945966796,0.2725152995,105.1786702474,-14.6057891846,132.5011698405
3.2717130184,-0.9284456380,-0.2945966796,0.2725152995,104.8887532552,-12.7899932862,130.8379618327
3.2742891312,-0.9284456380,-0.2945966796,0.4268121745,104.8887532552,-12.7899932862,130.8379618327
3.2769510746,-0.8805940755,-0.3385419922,0.4268121745,96.9084065755,-10.9436798096,126.2450663249
3.2795300484,-0.8805940755,-0.3385419922,0.4268121745,96.9084065755,-10.9436798096,126.2450663249
3.2821450233,-0.8805940755,-0.3385419922,0.4268121745,76.8736165364,-5.6488800049,122.1862284343
3.2848370075,-0.8805940755,-0.2111005859,0.3774957682,76.8736165364,-5.6488800049,122.1862284343
3.2874810696,-0.8395784505,-0.2111005859,0.3774957682,62.6524251302,1.3701629638,120.5687967937
3.2901871204,-0.8395784505,-0.2111005859,0.3774957682,62.6524251302,1.3701629638,120.5687967937
3.2928881645,-0.8395784505,-0.2111005859,0.3774957682,55.6486409505,6.0698699951,125.8025614421
3.2955911160,-0.6970003255,-0.0397138672,0.2583551432,55.6486409505,6.0698699951,125.8025614421
3.2983400822,-0.6970003255,-0.0397138672,0.2583551432,54.6110432942,8.8622283935,134.6984354655
3.3010470867,-0.6970003255,-0.0397138672,0.2583551432,54.6110432942,8.8622283935,134.6984354655
