# time_stamp before, Acceleration x, Acceleration y, Acceleration z, Gyro x, Gyro y, Gyro z
0.0000000000,-0.0653229167,0.0068160807,-0.0502670898,-9.3205261230,11.1563313802,-21.8894958496
0.0025570393,-0.0653229167,0.0068160807,-0.0502670898,-8.2829284668,11.5835774740,-20.8824157715
0.0051119328,-0.0687408855,0.0058395182,-0.0419663086,-8.2829284668,11.5835774740,-20.8824157715
0.0077359676,-0.0687408855,0.0058395182,-0.0419663086,-6.8486022949,10.8206380208,-19.9363708496
0.0102839470,-0.0687408855,0.0058395182,-0.0419663086,-6.8486022949,10.8206380208,-19.9363708496
0.0128400326,-0.0687408855,0.0058395182,-0.0419663086,-4.6971130371,10.3476155599,-19.0513610840
0.0153920650,-0.0746002605,0.0033981120,-0.0458725586,-4.6971130371,10.3476155599,-19.0513610840
0.0181319714,-0.0746002605,0.0033981120,-0.0458725586,-3.0339050293,10.1645100911,-18.2731628418
0.0206868649,-0.0746002605,0.0033981120,-0.0458725586,-3.0339050293,10.1645100911,-18.2731628418
0.0232419968,-0.0746002605,0.0033981120,-0.0468491210,-3.0033874512,9.9661458333,-16.9914245606
0.0257968903,-0.0750885417,-0.0005081380,-0.0468491210,-3.0033874512,9.9661458333,-16.9914245606
0.0285098553,-0.0750885417,-0.0005081380,-0.0468491210,-2.5456237793,9.6457112630,-16.3200378418
0.0310759544,-0.0750885417,-0.0005081380,-0.0468491210,-2.5456237793,9.6457112630,-16.3200378418
0.0336449146,-0.0750885417,-0.0005081380,-0.0497788086,-2.5456237793,9.3405354818,-15.1908874512
0.0362079144,-0.0824127605,0.0043746744,-0.0497788086,-1.9352722168,9.3405354818,-15.1908874512
0.0388619900,-0.0824127605,0.0043746744,-0.0497788086,-1.9352722168,8.7759602864,-13.4513854981
0.0414328575,-0.0824127605,0.0043746744,-0.0497788086,-1.5538024902,8.7759602864,-13.4513854981
0.0439980030,-0.0824127605,0.0116988932,-0.0551499023,-1.5538024902,8.7759602864,-11.7424011231
0.0465729237,-0.0731354167,0.0116988932,-0.0551499023,-1.4622497559,8.3944905599,-11.7424011231
0.0492548943,-0.0731354167,0.0116988932,-0.0551499023,-1.4622497559,8.3944905599,-10.7810974121
0.0521008968,-0.0731354167,0.0116988932,-0.0551499023,-1.3706970215,8.3181966146,-10.7810974121
0.0547828674,-0.0672760417,0.0219527994,-0.0561264648,-1.3706970215,8.3181966146,-9.8350524903
0.0575089455,-0.0672760417,0.0219527994,-0.0561264648,0.0483703613,8.4097493490,-9.8350524903
0.0601730347,-0.0672760417,0.0219527994,-0.0561264648,0.0483703613,8.4097493490,-8.7211608887
0.0628349781,-0.0672760417,0.0219527994,-0.0561264648,0.9028625488,8.1808675130,-8.7211608887
0.0655009747,-0.0619049479,0.0248824870,-0.0448959960,0.9028625488,8.1808675130,-8.2481384278
0.0683109760,-0.0619049479,0.0248824870,-0.0448959960,2.1388244629,7.9977620443,-8.2481384278
0.0710220337,-0.0619049479,0.0248824870,-0.0448959960,2.1388244629,7.9977620443,-7.5614929199
0.0737278461,-0.0619049479,0.0248824870,-0.0531967773,3.2679748535,7.7841389974,-7.5614929199
0.0764360428,-0.0658111979,0.0312301432,-0.0531967773,3.2679748535,7.7841389974,-7.2563171387
0.0790798664,-0.0658111979,0.0312301432,-0.0531967773,3.4205627441,8.0130208333,-7.2563171387
0.0816500187,-0.0658111979,0.0312301432,-0.0531967773,3.4205627441,8.0130208333,-7.2563171387
0.0844449997,-0.1908111979,0.0297652994,-0.0448959960,2.7491760254,7.9825032552,-7.1189880371
0.0870189667,-0.0843658855,0.0297652994,-0.0448959960,2.7491760254,7.9825032552,-5.9135437012
0.0900509357,-0.0843658855,0.0297652994,-0.0448959960,2.3524475098,8.2266438802,-5.9135437012
0.0927529335,-0.0843658855,0.0297652994,-0.0448959960,2.3524475098,8.2266438802,-5.3794860840
0.0954580307,-0.0741119792,0.0195113932,-0.0317124023,2.7186584473,8.3029378255,-5.3794860840
0.0982129574,-0.0741119792,0.0195113932,-0.0317124023,2.7186584473,8.3029378255,-4.8759460449
0.1009109020,-0.0741119792,0.0195113932,-0.0317124023,2.9475402832,8.4250081380,-4.8759460449
0.1036109924,-0.0741119792,0.0195113932,-0.0317124023,2.9475402832,8.4250081380,-4.6165466309
0.1063189507,-0.0760651042,0.0199996744,-0.0297592773,2.7796936035,8.6081136068,-4.6165466309
0.1090340614,-0.0760651042,0.0199996744,-0.0297592773,2.7796936035,8.6081136068,-4.2198181153
0.1117348671,-0.0760651042,0.0199996744,-0.0297592773,3.0848693848,8.9743245443,-4.2198181153
0.1144349575,-0.0760651042,0.0263473307,-0.0195053710,3.0848693848,8.9743245443,-3.2432556153
0.1172530651,-0.0809479167,0.0263473307,-0.0195053710,4.1682434082,9.2032063802,-3.2432556153
0.1198859215,-0.0809479167,0.0263473307,-0.0195053710,4.1682434082,9.2032063802,-3.2432556153
0.1224629879,-0.0809479167,0.0263473307,-0.0195053710,5.8467102051,9.2032063802,-2.5108337403
0.1250438690,-0.0926666667,-0.0083206380,-0.0302475586,5.8467102051,9.2032063802,-2.5108337403
0.1276168823,-0.0926666667,-0.0083206380,-0.0302475586,5.3889465332,9.2337239583,-1.6563415528
0.1301929951,-0.0926666667,-0.0083206380,-0.0302475586,5.3889465332,9.2337239583,-1.6563415528
0.1327600479,-0.0926666667,-0.0083206380,-0.0302475586,5.1142883301,9.1269124349,-0.8628845215
0.1353359222,-0.1058502605,-0.0024612630,-0.0214584960,5.1142883301,9.1269124349,-0.8628845215
0.1380648613,-0.1058502605,-0.0024612630,-0.0214584960,5.8772277832,9.7220052083,-0.6797790528
0.1406488419,-0.1058502605,-0.0024612630,-0.0214584960,5.8772277832,9.7220052083,-0.6797790528
0.1432149410,-0.1058502605,-0.0024612630,-0.0214584960,6.0908508301,9.9966634114,-0.0083923340
0.1457939148,-0.1161041667,0.0492965494,-0.0331772460,6.0908508301,9.9966634114,-0.0083923340
0.1485819817,-0.1161041667,0.0492965494,-0.0331772460,7.3115539551,10.2408040364,0.5409240722
0.1512808800,-0.1161041667,0.0492965494,-0.0331772460,7.3115539551,10.2408040364,0.5409240722
0.1539700031,-0.1161041667,0.0492965494,-0.0331772460,7.8303527832,10.8053792318,1.4106750488
0.1566569805,-0.1102447917,0.0488082682,-0.0322006836,7.8303527832,10.8053792318,1.4106750488
0.1593830585,-0.1102447917,0.0488082682,-0.0322006836,8.1965637207,11.1563313802,1.4869689941
0.1620509624,-0.1102447917,0.0488082682,-0.0322006836,8.1965637207,11.1563313802,1.4869689941
0.1647219658,-0.1102447917,0.0488082682,-0.0439194336,8.9137268066,11.0342610677,1.2428283691
0.1674170494,-0.1170807292,0.0483199870,-0.0439194336,8.9137268066,11.0342610677,1.2428283691
0.1702158451,-0.1170807292,0.0483199870,-0.0439194336,9.1120910644,11.6598714193,1.1970520019
0.1728079319,-0.1170807292,0.0483199870,-0.0439194336,9.1120910644,11.6598714193,1.1970520019
0.1753818989,-0.1170807292,0.0639449870,-0.0600327148,9.0968322754,11.5683186849,0.8766174316
0.1781609058,-0.0955963542,0.0639449870,-0.0600327148,9.0968322754,11.5683186849,0.8766174316
0.1809530258,-0.0955963542,0.0639449870,-0.0600327148,8.9900207520,11.0952962240,1.2428283691
0.1842310429,-0.0955963542,0.0639449870,-0.0600327148,8.9900207520,11.0952962240,1.2428283691
0.1868028641,-0.0877838542,0.0751754557,-0.0634506836,9.7071838379,11.0190022786,0.9071350097
0.1894910336,-0.0877838542,0.0751754557,-0.0634506836,9.7071838379,11.0190022786,0.9071350097
0.1920599937,-0.0877838542,0.0751754557,-0.0634506836,10.8973693848,11.0190022786,0.8766174316
0.1946358681,-0.0877838542,0.0751754557,-0.0634506836,10.8973693848,11.0190022786,0.8766174316
0.1971988678,-0.0814361979,0.0795699870,-0.0610092773,10.6684875488,11.2784016927,0.2052307129
0.1997768879,-0.0814361979,0.0795699870,-0.0610092773,10.6684875488,11.2784016927,0.2052307129
0.2023580074,-0.0814361979,0.0795699870,-0.0610092773,10.6684875488,10.9884847005,-0.3135681153
0.2049269676,-0.0814361979,0.0795699870,-0.0600327148,10.4548645020,10.9884847005,-0.3135681153
0.2075369358,-0.0868072917,0.0781051432,-0.0600327148,10.4548645020,10.5307210286,-0.0236511231
0.2101130486,-0.0868072917,0.0781051432,-0.0600327148,9.8292541504,10.5307210286,-0.0236511231
0.2126839161,-0.0868072917,0.0781051432,-0.0600327148,9.8292541504,10.5307210286,-0.5882263184
0.2152578831,-0.0868072917,0.2031051432,-0.0644272460,8.3186340332,10.8511555990,-0.5882263184
0.2178509235,-0.0946197917,0.0859176432,-0.0644272460,8.3186340332,10.8511555990,-0.5882263184
0.2204189301,-0.0946197917,0.0859176432,-0.0644272460,6.5943908691,10.5917561849,-0.8628845215
0.2229938507,-0.0946197917,0.0859176432,-0.0644272460,6.5943908691,10.5917561849,-0.8628845215
0.2255618572,-0.0946197917,0.0751754557,-0.0605209960,5.3431701660,10.1645100911,-0.6797790528
0.2283070087,-0.0853424479,0.0751754557,-0.0605209960,5.3431701660,10.1645100911,-0.6797790528
0.2308828831,-0.0853424479,0.0751754557,-0.0605209960,4.9617004394,9.8898518880,-0.5882263184
0.2334549427,-0.0853424479,0.0751754557,-0.0605209960,4.9617004394,9.8898518880,-0.5882263184
0.2360279560,-0.0794830729,0.0717574870,-0.0624741210,4.8396301270,9.9966634114,-0.6340026856
0.2388100624,-0.0794830729,0.0717574870,-0.0624741210,4.8396301270,9.9966634114,-0.6340026856
0.2413849831,-0.0794830729,0.0717574870,-0.0624741210,4.3360900879,10.3476155599,-0.8628845215
0.2440769672,-0.0794830729,0.0717574870,-0.0624741210,4.3360900879,10.3476155599,-0.8628845215
0.2466399670,-0.0780182292,0.0810348307,-0.0663803710,4.2597961426,10.5002034505,-0.8323669434
0.2493009567,-0.0780182292,0.0810348307,-0.0663803710,4.2597961426,10.5002034505,-0.8323669434
0.2518730164,-0.0780182292,0.0810348307,-0.0663803710,4.4276428223,10.4391682943,-0.2220153809
0.2544450760,-0.0780182292,0.0810348307,-0.0663803710,4.4276428223,10.4391682943,-0.2220153809
0.2570240498,-0.0760651042,0.0839645182,-0.0737045898,4.4581604004,10.7138264974,0.1441955566
0.2597010136,-0.0760651042,0.0839645182,-0.0737045898,4.4581604004,10.7138264974,0.1441955566
0.2622749805,-0.0760651042,0.0839645182,-0.0737045898,4.4581604004,11.2784016927,0.4646301269
0.2648439407,-0.0760651042,0.0839645182,-0.0737045898,4.3971252441,11.2784016927,0.4646301269
0.2674050331,-0.0702057292,0.0834762370,-0.0649155273,4.3971252441,11.6751302083,1.0292053222
0.2701070309,-0.0702057292,0.0834762370,-0.0649155273,4.8548889160,11.6751302083,1.0292053222
0.2726800442,-0.0702057292,0.0834762370,-0.0649155273,4.8548889160,11.6751302083,0.7545471191
0.2752449512,-0.0702057292,0.0834762370,-0.0649155273,4.5802307129,11.8582356771,0.7545471191
0.2778520584,-0.0794830729,0.0795699870,-0.0522202148,4.5802307129,11.8582356771,0.0526428222
0.2805669308,-0.0794830729,0.0795699870,-0.0522202148,3.1611633301,12.1786702474,0.0526428222
0.2832529545,-0.0794830729,0.0795699870,-0.0522202148,3.1611633301,12.1786702474,-0.6492614746
0.2859439850,-0.0794830729,0.2045699870,-0.0556381836,0.5061340332,12.1939290364,-0.6492614746
0.2886469364,-0.0951080729,0.0873824870,-0.0556381836,0.5061340332,12.1939290364,-0.9544372559
0.2913520336,-0.0951080729,0.0873824870,-0.0556381836,-1.5080261230,12.5601399740,-0.9544372559
0.2942969799,-0.0951080729,0.0873824870,-0.0556381836,-1.5080261230,12.5601399740,-0.8628845215
0.2969930172,-0.0838776042,0.0898238932,-0.0409897460,-2.6829528809,12.7890218099,-0.8628845215
0.3001198769,-0.0838776042,0.0898238932,-0.0409897460,-2.6829528809,12.5906575521,-0.8018493653
0.3028230667,-0.0838776042,0.0898238932,-0.0409897460,-3.6595153809,12.5906575521,-0.8018493653
0.3055329323,-0.0838776042,0.0898238932,0.0840102540,-3.6595153809,12.9110921224,-1.6105651856
0.3083519936,-0.0926666667,0.0815231120,-0.0317124023,-5.2769470215,12.9110921224,-1.6105651856
0.3110599518,-0.0926666667,0.0815231120,-0.0317124023,-9.1831970215,13.4298909505,-1.3359069825
0.3137660027,-0.0926666667,0.0815231120,-0.0317124023,-7.7030944824,13.4298909505,-1.3359069825
0.3164670467,-0.0926666667,0.0951949870,-0.0126694336,-11.6093444824,12.6516927083,-0.4966735840
0.3192138672,-0.0824127605,0.0951949870,-0.0126694336,-9.5341491699,12.6516927083,-0.4966735840
0.3219208717,-0.0824127605,0.0951949870,-0.0126694336,-9.5341491699,11.9497884114,0.7850646972
0.3246150017,-0.0824127605,0.0951949870,-0.0126694336,-9.8088073730,11.9497884114,0.7850646972
0.3273229599,-0.0589752605,0.1161910807,0.0019790040,-9.8088073730,11.7514241536,2.1888732910
0.3299088478,-0.0589752605,0.1161910807,0.0019790040,-9.1526794434,11.7514241536,2.1888732910
0.3324799538,-0.0589752605,0.1161910807,0.0019790040,-9.1526794434,11.7514241536,3.4400939941
0.3350498676,-0.0589752605,0.1161910807,0.0019790040,-8.1913757324,11.2173665364,3.4400939941
0.3376209736,-0.0379791667,0.1235152994,0.0044204102,-8.1913757324,11.2173665364,7.3463439941
0.3401968479,-0.0379791667,0.1235152994,0.0044204102,-6.3755798340,10.1339925130,4.4319152832
0.3427660465,-0.0379791667,0.1235152994,0.0044204102,-6.3755798340,10.1339925130,4.4319152832
0.3453369141,-0.0379791667,0.1235152994,0.0044204102,-4.4071960449,8.7301839193,5.8357238769
0.3479568958,-0.0370026042,0.1352340494,0.0268813477,-4.4071960449,8.7301839193,5.8357238769
0.3505320549,-0.0370026042,0.1352340494,0.0268813477,-2.0878601074,7.6315511068,7.0411682129
0.3531038761,-0.0370026042,0.1352340494,0.0268813477,-2.0878601074,7.6315511068,7.0411682129
0.3556809425,-0.0370026042,0.1352340494,0.0268813477,-0.1957702637,6.6702473958,6.8733215332
0.3583710194,-0.0418854167,0.1113082682,0.0053969727,-0.1957702637,6.6702473958,6.8733215332
0.3610758781,-0.0418854167,0.1113082682,0.0053969727,1.3301086426,5.6631673177,5.8204650879
0.3637809753,-0.0418854167,0.1113082682,0.0053969727,1.3301086426,5.6631673177,5.8204650879
0.3664810658,-0.0418854167,0.1113082682,0.0005141602,3.0543518066,4.5797932943,4.5082092285
0.3691499233,-0.0321197917,0.0512496744,0.0005141602,3.0543518066,4.5797932943,4.5082092285
0.3718218803,-0.0321197917,0.0512496744,0.0005141602,6.1061096191,3.3896077474,2.0210266113
0.3743970394,-0.0321197917,0.0512496744,0.0005141602,6.1061096191,3.3896077474,2.0210266113
0.3769779205,-0.0321197917,-0.0874222006,-0.0190170898,10.2870178223,2.0163167318,-1.5190124512
0.3796780109,-0.0081940105,-0.0874222006,-0.0190170898,10.2870178223,2.0163167318,-1.5190124512
0.3823750019,-0.0081940105,-0.0874222006,-0.0190170898,14.1932678223,0.4751790364,-6.0356140137
0.3850798607,-0.0081940105,-0.0874222006,-0.0190170898,14.1932678223,0.4751790364,-6.0356140137
0.3877968788,0.0274505208,-0.2021682943,-0.0282944336,17.1076965332,-1.0354410807,-10.9489440918
0.3905110359,0.0274505208,-0.2021682943,-0.0282944336,17.1076965332,-1.0354410807,-10.9489440918
0.3932180405,0.0274505208,-0.2021682943,-0.0282944336,20.5714416504,-2.1340738932,-15.2214050293
0.3959209919,0.0274505208,-0.2021682943,-0.0282944336,20.5714416504,-2.1340738932,-15.2214050293
0.3986449242,0.0425872395,-0.1577347006,-0.0634506836,23.4553527832,-2.4697672526,-17.9985046387
0.4013469219,0.0425872395,-0.1577347006,-0.0634506836,23.4553527832,-2.4697672526,-17.9985046387
0.4040489197,0.0425872395,-0.1577347006,-0.0634506836,26.1561584473,-2.9733072917,-22.6676940918
0.4067568779,0.0425872395,-0.1577347006,-0.0737045898,26.1561584473,-2.9733072917,-22.6676940918
0.4094710350,0.0308684895,-0.1943557943,-0.0737045898,27.1479797363,-3.5836588542,-28.4202575684
0.4121799469,0.0308684895,-0.1943557943,-0.0737045898,27.1479797363,-3.5836588542,-28.4202575684
0.4149658680,0.0308684895,-0.1943557943,-0.0737045898,26.2171936035,-4.3008219401,-34.2643737793
0.4180290699,0.0191497395,-0.2807815756,-0.0932358398,26.2171936035,-4.3008219401,-34.2643737793
0.4206140041,0.0191497395,-0.2807815756,-0.0932358398,23.8063049316,-4.9569498698,-39.2082214356
0.4231920242,0.0191497395,-0.2807815756,-0.0932358398,23.8063049316,-4.9569498698,-39.2082214356
0.4257719517,0.0191497395,-0.2807815756,-0.0932358398,20.1136779785,-5.7198893229,-44.0147399903
0.4284360409,0.0220794271,-0.2954300130,-0.1152084960,20.1136779785,-5.7198893229,-44.0147399903
0.4311418533,0.0220794271,-0.2954300130,-0.1152084960,16.2837219238,-5.9640299479,-48.7297058106
0.4338538647,0.0220794271,-0.2954300130,-0.1152084960,16.2837219238,-5.9640299479,-48.7297058106
0.4365589619,0.0220794271,-0.2954300130,-0.1152084960,12.9267883301,-6.1623942057,-53.2310485840
0.4393799305,0.0284270833,-0.2729690756,-0.1220444336,12.9267883301,-6.1623942057,-53.2310485840
0.4420888424,0.0284270833,-0.2729690756,-0.1220444336,9.3562316894,-6.1471354167,-57.3509216309
0.4447979927,0.0284270833,-0.2729690756,-0.1220444336,9.3562316894,-6.1471354167,-57.3509216309
0.4475219250,0.0284270833,-0.2690628256,-0.1415756836,5.6330871582,-6.6354166667,-61.4555358887
0.4500989914,0.0342864583,-0.2690628256,-0.1415756836,5.6330871582,-6.6354166667,-61.4555358887
0.4526760578,0.0342864583,-0.2690628256,-0.1415756836,1.7268371582,-7.0931803386,-65.9111022949
0.4552578926,0.0342864583,-0.2690628256,-0.1415756836,1.9709777832,-7.0931803386,-65.9111022949
0.4578440189,0.0342864583,-0.2636917318,-0.1503647460,1.9709777832,-7.0931803386,-70.5192565918
0.4604189396,0.0250091145,-0.2636917318,-0.1503647460,-1.6758728027,-7.3220621745,-70.5192565918
0.4629950523,0.0250091145,-0.2636917318,-0.1503647460,-1.6758728027,-7.3220621745,-75.0205993653
0.4655740261,0.0250091145,-0.2636917318,-0.1503647460,-5.6431579590,-6.8185221354,-75.0205993653
0.4683179855,0.0035247395,-0.2622268880,-0.1454819336,-5.6431579590,-6.8185221354,-79.4609069825
0.4708909988,0.0035247395,-0.2622268880,-0.1454819336,-8.1761169434,-6.1013590495,-79.4609069825
0.4734668732,0.0035247395,-0.2622268880,-0.1454819336,-8.1761169434,-6.1013590495,-79.4609069825
0.4760508537,0.0035247395,-0.2622268880,-0.1454819336,-10.6938171387,-6.6811930339,-83.5502624512
0.4787828922,-0.0213776042,-0.2461136068,-0.1469467773,-10.6938171387,-6.6811930339,-83.5502624512
0.4814729691,-0.0213776042,-0.2461136068,-0.1469467773,-13.1657409668,-6.4217936198,-87.8684997559
0.4841659069,-0.0213776042,-0.2461136068,-0.1469467773,-13.1657409668,-6.4217936198,-87.8684997559
0.4868068695,-0.0213776042,-0.2461136068,-0.1469467773,-14.9357604980,-5.6741129557,-91.7442321778
0.4895689487,-0.0330963542,-0.2221878256,-0.1576889648,-14.9357604980,-5.6741129557,-91.7442321778
0.4922399521,-0.0330963542,-0.2221878256,-0.1576889648,-17.5144958496,-4.9569498698,-95.5589294434
0.4951250553,-0.0330963542,-0.2221878256,-0.1576889648,-17.5144958496,-4.9569498698,-95.5589294434
0.4977848530,-0.0330963542,-0.2221878256,-0.1567124023,-19.1014099121,-4.4381510417,-99.1447448731
0.5003619194,-0.0492096355,-0.1972854818,-0.1567124023,-19.1014099121,-4.4381510417,-99.1447448731
0.5030400753,-0.0492096355,-0.1972854818,-0.1567124023,-20.3831481934,-4.0871988932,-101.9828796387
0.5056178570,-0.0492096355,-0.1972854818,-0.1567124023,-20.3831481934,-4.0871988932,-101.9828796387
0.5082290173,-0.0492096355,-0.1748245443,-0.1488999023,-22.3515319824,-2.8207194010,-104.9736022949
0.5108058453,-0.0638580729,-0.1748245443,-0.1488999023,-22.3515319824,-2.8207194010,-104.9736022949
0.5133759975,-0.0638580729,-0.1748245443,-0.1488999023,-23.6332702637,-1.8594156901,-108.0253601075
0.5159480572,-0.0638580729,-0.1748245443,-0.1488999023,-23.6332702637,-1.8594156901,-108.0253601075
0.5185718536,-0.0638580729,-0.1455276693,-0.1557358398,-24.0452575684,-1.0812174479,-110.2531433106
0.5211448669,-0.0711822917,-0.1455276693,-0.1557358398,-24.0452575684,-1.0812174479,-110.2531433106
0.5237209797,-0.0711822917,-0.1455276693,-0.1557358398,-24.6403503418,-0.1962076823,-112.9081726075
0.5262899399,-0.0711822917,-0.1455276693,-0.1557358398,-24.6403503418,-0.1962076823,-112.9081726075
0.5288698673,-0.0789947917,-0.1528518880,-0.1606186523,-24.6403503418,0.7193196614,-115.5937194825
0.5314450264,-0.0789947917,-0.1528518880,-0.1606186523,-24.9607849121,0.7193196614,-115.5937194825
0.5340158939,-0.0789947917,-0.1528518880,-0.1606186523,-24.9607849121,0.7193196614,-118.2945251465
0.5365869999,-0.0789947917,-0.1528518880,-0.1606186523,-24.8844909668,0.9024251302,-118.2945251465
0.5392868519,-0.0965729167,-0.1704300130,-0.1552475586,-24.8844909668,0.9024251302,-120.3544616699
0.5418648720,-0.0965729167,-0.1704300130,-0.1552475586,-26.1051940918,2.0620930990,-120.3544616699
0.5444419384,-0.0965729167,-0.1704300130,-0.1552475586,-26.1051940918,2.0620930990,-124.2607116699
0.5470199585,-0.0965729167,-0.1704300130,-0.1552475586,-26.3035583496,2.4893391927,-122.9331970215
0.5498089790,-0.0970611979,-0.1723831380,-0.1640366210,-26.3035583496,2.4893391927,-126.8394470215
0.5525200367,-0.0970611979,-0.1723831380,-0.1640366210,-26.6392517090,3.5116780599,-125.6492614746
0.5552258492,-0.0970611979,-0.1723831380,-0.1640366210,-26.6392517090,3.5116780599,-125.6492614746
0.5579349995,-0.0970611979,-0.1723831380,-0.2890366210,-27.6158142090,4.7323811849,-127.7244567871
0.5606420040,-0.1087799479,-0.1743362630,-0.1708725586,-27.6158142090,4.7323811849,-131.6307067871
0.5633530617,-0.1087799479,-0.1743362630,-0.1708725586,-28.5008239746,6.0293782552,-129.8301696778
0.5661740303,-0.1087799479,-0.1743362630,-0.1708725586,-28.5008239746,6.0293782552,-129.8301696778
0.5688300133,-0.1087799479,-0.1709182943,-0.1723374023,-30.3318786621,6.5634358724,-131.9511413575
0.5714058876,-0.1278229167,-0.1709182943,-0.1723374023,-30.3318786621,6.5634358724,-131.9511413575
0.5739810467,-0.1278229167,-0.1709182943,-0.1723374023,-31.6899108887,7.2958577474,-133.8584899903
0.5765609741,-0.1278229167,-0.1709182943,-0.1723374023,-31.6899108887,7.2958577474,-133.8584899903
0.5792570114,-0.1297760417,-0.1694534506,-0.1757553710,-32.4223327637,8.2724202474,-136.1778259278
0.5819618702,-0.1297760417,-0.1694534506,-0.1757553710,-32.4223327637,8.2724202474,-136.1778259278
0.5846700668,-0.1297760417,-0.1694534506,-0.1757553710,-32.9869079590,9.4320882161,-139.0159606934
0.5873720646,-0.1297760417,-0.1694534506,-0.1757553710,-32.9869079590,9.4320882161,-139.0159606934
0.5900938511,-0.1483307292,-0.1772659506,-0.1752670898,-34.4364929199,10.1797688802,-141.1827087403
0.5928020477,-0.1483307292,-0.1772659506,-0.1752670898,-34.4364929199,10.1797688802,-141.1827087403
0.5955078602,-0.1483307292,-0.1772659506,-0.1752670898,-35.9318542480,11.2478841146,-143.5478210449
0.5982248783,-0.1483307292,-0.1772659506,-0.0502670898,-35.9318542480,11.2478841146,-143.5478210449
0.6009309292,-0.1683502605,-0.1738479818,-0.1635483398,-36.7558288574,12.5296223958,-145.5619812012
0.6037390232,-0.1683502605,-0.1738479818,-0.1635483398,-36.7558288574,12.5296223958,-145.5619812012
0.6065840721,-0.1683502605,-0.1738479818,-0.1635483398,-37.7018737793,13.7198079427,-147.4235534668
0.6094329357,-0.1683502605,-0.1552932943,-0.1503647460,-37.7018737793,13.7198079427,-147.4235534668
0.6121480465,-0.1810455729,-0.1552932943,-0.1503647460,-38.6174011230,15.2151692708,-149.0409851075
0.6148588657,-0.1810455729,-0.1552932943,-0.1503647460,-38.6174011230,15.2151692708,-149.0409851075
0.6175770760,-0.1810455729,-0.1552932943,-0.1503647460,-40.0975036621,16.3290608724,-150.2922058106
0.6201548576,-0.1981354167,-0.1250198568,-0.1420639648,-40.0975036621,16.3290608724,-150.2922058106
0.6227319241,-0.1981354167,-0.1250198568,-0.1420639648,-40.8604431152,16.9241536458,-150.6126403809
0.6253039837,-0.1981354167,-0.1250198568,-0.1420639648,-40.8604431152,16.9241536458,-150.6126403809
0.6279070377,-0.1981354167,-0.1250198568,-0.1420639648,-41.4402770996,17.6260579427,-150.9025573731
0.6307330132,-0.2220611979,-0.0932815756,-0.1108139648,-41.4402770996,17.6260579427,-150.9025573731
0.6334409714,-0.2220611979,-0.0932815756,-0.1108139648,-41.7149353027,18.5110677083,-150.6278991699
0.6361498833,-0.2220611979,-0.0932815756,-0.1108139648,-41.7149353027,18.5110677083,-150.6278991699
0.6388130188,-0.2220611979,-0.0932815756,-0.1108139648,-41.9285583496,19.0451253255,-149.8497009278
0.6413919926,-0.2415924479,-0.0864456380,-0.0995834960,-41.9285583496,19.0451253255,-149.8497009278
0.6439690590,-0.2415924479,-0.0864456380,-0.0995834960,-41.5318298340,19.5639241536,-149.4834899903
0.6465458870,-0.2415924479,-0.0864456380,-0.0995834960,-41.5318298340,19.5639241536,-149.4834899903
0.6491789818,-0.2415924479,-0.0864456380,-0.0937241210,-41.1351013184,20.5862630208,-148.4611511231
0.6523590088,-0.2420807292,-0.0859573568,-0.0937241210,-41.1351013184,20.5862630208,-148.4611511231
0.6549420357,-0.2420807292,-0.0859573568,-0.0937241210,-41.5928649902,21.3492024740,-147.5456237793
0.6575410366,-0.2420807292,-0.0859573568,-0.0937241210,-41.5928649902,21.3492024740,-147.5456237793
0.6602530479,-0.2411041667,-0.1040237630,-0.0829819336,-41.9590759277,21.8374837240,-146.6911315918
0.6629588604,-0.2411041667,-0.1040237630,-0.0829819336,-41.9590759277,21.8374837240,-146.6911315918
0.6656658649,-0.2411041667,-0.1040237630,-0.0829819336,-41.9590759277,22.7224934896,-145.8518981934
0.6683778763,-0.2411041667,-0.1040237630,-0.0829819336,-41.9590759277,22.7224934896,-145.8518981934
0.6709549427,-0.2249908855,-0.1001175130,-0.0844467773,-41.3792419434,23.9431966146,-144.3107604981
0.6735260487,-0.2249908855,-0.1001175130,-0.0844467773,-41.3792419434,23.9431966146,-144.3107604981
0.6761009693,-0.2249908855,-0.1001175130,-0.0844467773,-40.6315612793,24.4619954427,-143.4257507325
0.6787450314,-0.2249908855,-0.1001175130,-0.0844467773,-40.6315612793,24.4619954427,-143.4257507325
0.6814589500,-0.2186432292,-0.0957229818,-0.0844467773,-39.5176696777,25.3775227864,-142.8916931153
0.6841709614,-0.2186432292,-0.0957229818,-0.0844467773,-39.5176696777,25.3775227864,-142.8916931153
0.6868829727,-0.2186432292,-0.0957229818,-0.0844467773,-38.3122253418,26.2930501302,-141.9151306153
0.6895029545,-0.2186432292,-0.0957229818,-0.0610092773,-38.3122253418,26.2930501302,-141.9151306153
0.6920769215,-0.2044830729,-0.0766800130,-0.0610092773,-38.3122253418,26.3693440755,-140.5113220215
0.6947720051,-0.2044830729,-0.0766800130,-0.0610092773,-37.2441101074,26.3693440755,-140.5113220215
0.6973478794,-0.2044830729,-0.0766800130,-0.0610092773,-37.2441101074,26.3235677083,-139.1075134278
0.7000510693,-0.2044830729,-0.0595901693,-0.0536850586,-35.2452087402,26.3235677083,-139.1075134278
0.7026250362,-0.2005768229,-0.0595901693,-0.0536850586,-35.2452087402,26.3235677083,-137.9936218262
0.7051980495,-0.2005768229,-0.0595901693,-0.0536850586,-33.2005310059,26.0489095052,-137.9936218262
0.7079188824,-0.2005768229,-0.0595901693,-0.0536850586,-33.2005310059,26.0489095052,-136.2998962403
0.7106308937,-0.1742096355,-0.0332229818,-0.0405014648,-31.4762878418,25.5758870443,-136.2998962403
0.7133450508,-0.1742096355,-0.0332229818,-0.0405014648,-31.4762878418,25.5758870443,-134.7740173340
0.7160539627,-0.1742096355,-0.0332229818,-0.0405014648,-28.1040954590,24.5688069661,-134.7740173340
0.7187478542,-0.1742096355,-0.0332229818,-0.0405014648,-28.1040954590,24.5688069661,-132.3631286621
0.7213270664,-0.1458893229,-0.0229690756,-0.0341538086,-24.8081970215,24.4009602864,-132.3631286621
0.7239060402,-0.1458893229,-0.0229690756,-0.0341538086,-24.8081970215,24.4009602864,-132.3631286621
0.7264850140,-0.1458893229,-0.0229690756,-0.0341538086,-21.9853210449,24.1110432943,-130.2268981934
0.7291488647,-0.1458893229,-0.0229690756,-0.0341538086,-21.9853210449,24.1110432943,-130.2268981934
0.7318549156,-0.1234283855,-0.0210159506,-0.0317124023,-18.9640808106,23.8211263021,-128.1059265137
0.7345619202,-0.1234283855,-0.0210159506,-0.0317124023,-18.9640808106,23.8211263021,-128.1059265137
0.7372710705,-0.1234283855,-0.0210159506,-0.0317124023,-16.3395690918,23.2870686849,-125.7865905762
0.7400250435,-0.1234283855,-0.0210159506,-0.0185288086,-16.3395690918,23.2870686849,-125.7865905762
0.7427289486,-0.1068268229,-0.0185745443,-0.0185288086,-13.9134216309,22.7224934896,-123.6198425293
0.7454319000,-0.1068268229,-0.0185745443,-0.0185288086,-13.9134216309,22.7224934896,-123.6198425293
0.7481379509,-0.1068268229,-0.0185745443,-0.0185288086,-12.2044372559,21.9442952474,-121.1784362793
0.7508449554,-0.0955963542,-0.0044143880,-0.0155991210,-12.2044372559,21.9442952474,-121.1784362793
0.7535500526,-0.0955963542,-0.0044143880,-0.0155991210,-10.5107116699,21.3034261068,-118.4318542481
0.7562539577,-0.0955963542,-0.0044143880,-0.0155991210,-10.5107116699,21.3034261068,-118.4318542481
0.7591109276,-0.0955963542,-0.0044143880,-0.0155991210,-8.8475036621,20.9982503255,-115.3648376465
0.7618179321,-0.0892486979,0.0239059244,-0.0033920898,-8.8475036621,20.9982503255,-115.3648376465
0.7646088600,-0.0892486979,0.0239059244,-0.0033920898,-6.7723083496,20.1590169271,-112.3893737793
0.7673158646,-0.0892486979,0.0239059244,-0.0033920898,-6.7723083496,20.1590169271,-112.3893737793
0.7699139118,-0.0892486979,0.0239059244,-0.0033920898,-4.2546081543,18.6178792318,-109.2308044434
0.7724909782,-0.0814361979,0.0356246744,0.0058852540,-4.2546081543,18.6178792318,-109.2308044434
0.7750668526,-0.0814361979,0.0356246744,0.0058852540,-1.1723327637,17.5802815755,-105.9196472168
0.7778129578,-0.0814361979,0.0356246744,0.0058852540,-1.1723327637,17.5802815755,-105.9196472168
0.7805800438,-0.0814361979,0.0380660807,0.0044204102,1.6658020020,16.7105305990,-102.4559020996
0.7837769985,-0.0682526042,0.0380660807,0.0044204102,1.6658020020,16.7105305990,-98.5496520996
0.7864849567,-0.0682526042,0.0380660807,0.0044204102,3.4053039551,15.5966389974,-98.6717224121
0.7891950607,-0.0682526042,0.0380660807,0.0044204102,3.4053039551,15.5966389974,-94.7654724121
0.7923209667,-0.0526276042,0.0278121744,0.0029555664,5.1295471191,14.7268880208,-95.0401306153
0.7955110073,-0.0526276042,0.0278121744,0.0029555664,5.1295471191,14.3149007161,-90.9965515137
0.7982008457,-0.0526276042,0.0278121744,0.0029555664,5.9687805176,14.3149007161,-90.9965515137
0.8007688522,-0.0526276042,0.0463668620,0.0205336914,5.9687805176,14.3149007161,-86.2815856934
0.8033409119,-0.0311432292,0.0463668620,0.0205336914,6.7469787598,13.2162679036,-86.2815856934
0.8059160709,-0.0311432292,0.0463668620,0.0205336914,6.7469787598,13.2162679036,-81.3529968262
0.8084959984,-0.0311432292,0.0463668620,0.0205336914,8.7611389160,12.1481526693,-81.3529968262
0.8110730648,-0.0311432292,0.0805465494,0.0434829102,8.7611389160,12.1481526693,-77.4467468262
0.8136470318,0.0005950521,0.0805465494,0.0434829102,11.1872863770,10.4849446614,-76.0581970215
0.8162260056,0.0005950521,0.0805465494,0.0434829102,11.1872863770,10.4849446614,-76.0581970215
0.8188149929,0.0005950521,0.0805465494,0.0434829102,12.9878234863,9.0353597005,-70.4124450684
0.8213899136,0.0201263021,0.1015426432,0.0625258790,12.9878234863,9.0353597005,-70.4124450684
0.8240730762,0.0201263021,0.1015426432,0.0625258790,15.0935363770,7.9214680990,-64.9345397949
0.8266539574,0.0201263021,0.1015426432,0.0625258790,15.0935363770,7.9214680990,-64.9345397949
0.8294899464,0.0201263021,0.1015426432,0.0625258790,17.4891662598,6.4566243490,-59.5176696778
0.8320679665,0.0337981771,0.1108199870,0.0801040040,17.4891662598,6.4566243490,-59.5176696778
0.8346469402,0.0337981771,0.1108199870,0.0801040040,20.5409240723,5.2206624349,-53.9787292481
0.8372218609,0.0337981771,0.1108199870,0.0801040040,20.5409240723,5.2206624349,-53.9787292481
0.8399279118,0.0337981771,0.1108199870,0.0801040040,24.0962219238,4.3509114583,-48.3177185059
0.8426308632,0.0245208333,0.1157027994,0.0893813477,24.0962219238,4.3509114583,-48.3177185059
0.8453299999,0.0245208333,0.1157027994,0.0893813477,27.0411682129,2.7182210286,-42.5041198731
0.8480479717,0.0245208333,0.1157027994,0.0893813477,27.0411682129,2.7182210286,-42.5041198731
0.8507549763,0.0245208333,0.1157027994,0.0952407227,29.3605041504,0.7498372396,-37.6670837403
0.8534550667,0.0220794271,0.0995895182,0.0952407227,29.3605041504,0.7498372396,-37.6670837403
0.8561520576,0.0220794271,0.0995895182,0.0952407227,31.6035461426,-1.0354410807,-32.8605651856
0.8588068485,0.0220794271,0.0995895182,0.0952407227,31.6035461426,-1.0354410807,-32.8605651856
0.8613760471,0.0220794271,0.0981246744,0.0869399414,33.1446838379,-3.1716715495,-27.3368835449
0.8639478683,0.0064544271,0.0981246744,0.0869399414,33.1446838379,-3.1716715495,-27.3368835449
0.8665208817,0.0064544271,0.0981246744,0.0869399414,35.0367736816,-4.8348795573,-22.9728698731
0.8691549301,0.0064544271,0.0981246744,0.0869399414,35.0367736816,-4.8348795573,-22.9728698731
0.8717269897,0.0064544271,0.0864059244,0.0742446290,35.0367736816,-6.2997233073,-17.9374694825
0.8743009567,0.0054778645,0.0864059244,0.0742446290,36.3032531738,-6.2997233073,-17.9374694825
0.8768730164,0.0054778645,0.0864059244,0.0742446290,36.3032531738,-6.2997233073,-12.7952575684
0.8794949055,0.0054778645,0.0864059244,0.0742446290,36.0133361816,-7.7340494792,-12.7952575684
0.8820769787,0.0098723958,0.0932418620,0.0591079102,36.0133361816,-7.7340494792,-8.4465026856
0.8846559525,0.0098723958,0.0932418620,0.0591079102,35.6166076660,-8.5732828776,-8.4465026856
0.8873400688,0.0098723958,0.0932418620,0.0591079102,35.6166076660,-8.5732828776,-3.8078308106
0.8902149200,0.0098723958,0.0932418620,0.0591079102,35.4487609863,-9.5345865886,-3.8078308106
0.8927948475,0.0147552083,0.1142379557,0.0532485352,35.4487609863,-9.5345865886,0.0984191894
0.8953709602,0.0147552083,0.1142379557,0.0532485352,35.8760070801,-10.3585611979,1.4259338379
0.8981430531,0.0147552083,0.1142379557,0.0532485352,35.8760070801,-10.3585611979,5.3321838379
0.9008228779,0.0147552083,0.1142379557,0.0532485352,35.7081604004,-10.9841715495,6.2629699707
0.9035990238,0.0264739583,0.1059371744,0.0512954102,35.7081604004,-10.9841715495,10.1692199707
0.9061930180,0.0264739583,0.1059371744,0.0512954102,35.0215148926,-11.7776285807,10.4133605957
0.9088149071,0.0264739583,0.1059371744,0.0512954102,35.0215148926,-11.7776285807,10.4133605957
0.9114000797,0.0264739583,0.1059371744,0.0483657227,33.5719299316,-12.1896158854,15.6318664551
0.9139709473,0.0245208333,0.1039840494,0.0483657227,33.5719299316,-12.1896158854,15.6318664551
0.9165430069,0.0245208333,0.1039840494,0.0483657227,29.6199035644,-12.1743570964,20.4383850097
0.9191730022,0.0245208333,0.1039840494,0.0483657227,29.6199035644,-12.1743570964,20.4383850097
0.9217469692,0.0245208333,0.1039840494,0.0434829102,25.9425354004,-12.2201334636,25.6111145019
0.9243259430,-0.0047760417,0.1039840494,0.0434829102,25.9425354004,-12.2201334636,25.6111145019
0.9268999100,-0.0047760417,0.1039840494,0.0434829102,22.0973205566,-13.7002360026,27.3353576660
0.9295258522,-0.0047760417,0.1039840494,0.0434829102,22.0973205566,-13.7002360026,27.3353576660
0.9321038723,-0.0047760417,-0.3003128256,0.0361586914,19.0608215332,-14.7378336589,19.8890686035
0.9346780777,-0.1287994792,-0.3003128256,0.0361586914,19.0608215332,-14.7378336589,19.8890686035
0.9372508526,-0.1287994792,-0.3003128256,0.0361586914,12.8352355957,-5.7656656901,17.7986145019
0.9398689270,-0.1287994792,-0.3003128256,0.0361586914,12.8352355957,-5.7656656901,17.7986145019
0.9424419403,-0.1287994792,-0.8598831380,-0.2201889648,12.8352355957,-0.1504313151,16.7457580566
0.9450159073,-0.1937408855,-0.8598831380,-0.2201889648,5.1600646973,-0.1504313151,16.7457580566
0.9476630688,-0.1937408855,-0.8598831380,-0.2201889648,5.1600646973,-0.1504313151,12.8242492675
0.9503560066,-0.1937408855,-0.8598831380,-0.2201889648,-11.6093444824,0.1547444661,12.8242492675
0.9529340267,-0.2113190105,-1.0923050130,-0.2592514648,-11.6093444824,0.1547444661,10.8406066894
0.9555010796,-0.2113190105,-1.0923050130,-0.2592514648,-28.1346130371,3.6642659505,10.8406066894
0.9581990242,-0.2113190105,-1.0923050130,-0.2592514648,-28.1346130371,3.6642659505,12.0155334472
0.9607789516,-0.2113190105,-1.0923050130,-0.2592514648,-40.2348327637,5.4800618490,12.0155334472
0.9633529186,-0.2450104167,-0.6465042318,-0.1738022460,-40.2348327637,5.4800618490,12.0155334472
0.9659280777,-0.2450104167,-0.6465042318,-0.1738022460,-57.2178649902,5.6173909505,18.5768127441
0.9686028957,-0.2450104167,-0.6465042318,-0.1738022460,-57.2178649902,5.6173909505,18.5768127441
0.9713158607,-0.2450104167,-0.6465042318,-0.1738022460,-73.3311462402,5.5716145833,26.9844055175
0.9740228653,-0.2406158855,-0.1733597006,-0.1069077148,-73.3311462402,5.5716145833,26.9844055175
0.9767289162,-0.2406158855,-0.1733597006,-0.1069077148,-78.4580993652,6.5634358724,34.9494934082
0.9794499874,-0.2406158855,-0.1733597006,-0.1069077148,-78.4580993652,6.5634358724,34.9494934082
0.9821619987,-0.2406158855,0.0766402994,-0.1078842773,-76.5049743652,7.2195638021,40.5647277832
0.9848649502,-0.2542877605,0.0507613932,-0.1078842773,-76.5049743652,7.2195638021,40.5647277832
0.9875888824,-0.2542877605,0.0507613932,-0.1078842773,-73.2701110840,5.7089436849,44.3336486816
0.9902980328,-0.2542877605,0.0507613932,-0.1078842773,-73.2701110840,5.7089436849,44.3336486816
0.9930050373,-0.2191315105,0.0224410807,-0.0766342773,-69.5622253418,2.2757161458,46.5614318847
0.9957098961,-0.2191315105,0.0224410807,-0.0766342773,-69.5622253418,2.2757161458,46.5614318847
0.9984319210,-0.2191315105,0.0224410807,-0.0766342773,-61.3072204590,-0.7455240886,46.5309143066
1.0011398792,-0.2191315105,0.0224410807,-0.0766342773,-61.3072204590,-0.7455240886,46.5309143066
1.0038430691,-0.2098541667,-0.0434768880,-0.0761459960,-47.9862976074,-3.0343424479,45.3254699707
1.0065510273,-0.2098541667,-0.0434768880,-0.0761459960,-47.9862976074,-3.0343424479,45.3254699707
1.0091998577,-0.2098541667,-0.0434768880,-0.0761459960,-34.1770935059,-4.8653971354,43.4486389160
1.0117800236,-0.2098541667,-0.0434768880,-0.0761459960,-34.1770935059,-4.8653971354,43.4486389160
1.0146188736,-0.1595611979,-0.0478714193,-0.1093491210,-24.3656921387,-6.8795572917,41.2055969238
1.0171968937,-0.1595611979,-0.0478714193,-0.1093491210,-24.3656921387,-6.8795572917,41.2055969238
1.0198919773,-0.1595611979,-0.0478714193,-0.1093491210,-18.1858825684,-10.3738199870,39.5576477051
1.0225908756,-0.1595611979,-0.0478714193,-0.0986069336,-18.1858825684,-10.3738199870,39.5576477051
1.0252850056,-0.0921783855,-0.0732620443,-0.0986069336,-14.0660095215,-13.6086832682,37.0094299316
1.0280120373,-0.0921783855,-0.0732620443,-0.0986069336,-14.0660095215,-13.6086832682,37.0094299316
1.0307040215,-0.0921783855,-0.0732620443,-0.0986069336,-11.0905456543,-14.9209391276,35.0868225097
1.0333869457,-0.0653229167,-0.0532425130,-0.1337631836,-11.0905456543,-14.9209391276,35.0868225097
1.0360779762,-0.0653229167,-0.0532425130,-0.1337631836,-9.5494079590,-14.9972330729,33.1184387207
1.0388660431,-0.0653229167,-0.0532425130,-0.1337631836,-9.5494079590,-14.9972330729,33.1184387207
1.0415329933,-0.0653229167,-0.0532425130,-0.1337631836,-8.9390563965,-15.3939615886,31.5162658691
1.0442059040,-0.0706940105,-0.0810745443,-0.1694077148,-8.9390563965,-15.3939615886,31.5162658691
1.0468728542,-0.0706940105,-0.0810745443,-0.1694077148,-9.0458679199,-16.2179361979,29.4105529785
1.0495228767,-0.0706940105,-0.0810745443,-0.1694077148,-9.0458679199,-16.2179361979,29.4105529785
1.0521008968,-0.0706940105,-0.0810745443,-0.1694077148,-9.4120788574,-15.8822428386,27.1980285644
1.0546760559,-0.0716705729,-0.1548050130,-0.1728256836,-9.4120788574,-15.8822428386,27.1980285644
1.0572540760,-0.0716705729,-0.1548050130,-0.1728256836,-11.2736511230,-16.5078531901,24.5429992675
1.0598490238,-0.0716705729,-0.1548050130,-0.1728256836,-11.2736511230,-16.5078531901,24.5429992675
1.0624229908,-0.0716705729,-0.1548050130,-0.1728256836,-15.4240417480,-17.4233805339,23.0018615722
1.0649950504,-0.0379791667,-0.1816604818,-0.0922592773,-15.4240417480,-17.4233805339,23.0018615722
1.0676369667,-0.0379791667,-0.1816604818,-0.0922592773,-15.4240417480,-18.7203776042,21.9947814941
1.0703229904,-0.0379791667,-0.1816604818,-0.0922592773,-19.6354675293,-18.7203776042,21.9947814941
1.0728979111,-0.0379791667,-0.1816604818,-0.0234116210,-19.6354675293,-18.7203776042,20.8656311035
1.0754730701,-0.0247955729,-0.1367386068,-0.0234116210,-22.7024841309,-18.7508951823,20.8656311035
1.0781910419,-0.0247955729,-0.1367386068,-0.0234116210,-22.7024841309,-18.7508951823,20.0721740722
1.0809009075,-0.0247955729,-0.1367386068,-0.0234116210,-24.3046569824,-18.7508951823,20.0721740722
1.0836119652,-0.0247955729,-0.1001175130,-0.0038803710,-24.3046569824,-18.7508951823,18.4700012207
1.0863170624,-0.0409088542,-0.1001175130,-0.0038803710,-26.1967468262,-18.1710611979,18.4700012207
1.0890350342,-0.0409088542,-0.1001175130,-0.0038803710,-26.1967468262,-18.1710611979,16.2269592285
1.0917420387,-0.0409088542,-0.1001175130,-0.0038803710,-27.1275329590,-17.2250162760,16.2269592285
1.0946178436,-0.0814361979,-0.0771682943,0.0117446290,-27.1275329590,-17.2250162760,14.8994445801
1.0971980095,-0.0814361979,-0.0771682943,0.0117446290,-27.7531433106,-16.6146647136,14.8994445801
1.0998959541,-0.0814361979,-0.0771682943,0.0117446290,-27.7531433106,-16.6146647136,13.5414123535
1.1024780273,-0.0814361979,-0.0771682943,0.0117446290,-28.6076354980,-17.1029459636,13.5414123535
1.1051709652,-0.1175690105,-0.0376175130,0.0849868164,-28.6076354980,-17.1029459636,13.2209777832
1.1080348492,-0.1175690105,-0.0376175130,0.0849868164,-28.9128112793,-17.7285563151,13.2209777832
1.1107459068,-0.1175690105,-0.0376175130,0.0849868164,-28.9128112793,-17.7285563151,12.9920959472
1.1134560108,-0.1175690105,-0.0376175130,0.0879165040,-27.4174499512,-17.8811442057,12.9920959472
1.1161689758,-0.1424713542,0.0092574870,0.0879165040,-27.4174499512,-17.8811442057,11.7103576660
1.1188929081,-0.1424713542,0.0092574870,0.0879165040,-22.3515319824,-16.8435465495,11.7103576660
1.1216030121,-0.1424713542,0.0092574870,0.0879165040,-22.3515319824,-16.8435465495,10.1539611816
1.1243100166,-0.1366119792,-0.0171097006,0.0361586914,-16.5531921387,-16.3400065104,10.1539611816
1.1270170212,-0.1366119792,-0.0171097006,0.0361586914,-16.5531921387,-16.3400065104,8.7501525879
1.1297318935,-0.1366119792,-0.0171097006,0.0361586914,-11.9755554199,-15.9432779948,8.7501525879
1.1324439049,-0.1366119792,-0.0171097006,0.0361586914,-11.9755554199,-15.9432779948,6.9343566894
1.1351499557,-0.0897369792,-0.0761917318,0.0180922852,-8.1761169434,-15.9585367839,6.9343566894
1.1378669739,-0.0897369792,-0.0761917318,0.0180922852,-8.1761169434,-15.9585367839,4.9812316894
1.1404318810,-0.0897369792,-0.0761917318,0.0180922852,-4.8649597168,-16.0043131510,4.9812316894
1.1430099010,-0.0897369792,-0.0761917318,0.0180922852,-4.8649597168,-16.0043131510,3.0128479004
1.1460480690,-0.0662994792,-0.0605667318,0.0273696290,-1.9047546387,-15.9432779948,3.0128479004
1.1486320496,-0.0662994792,-0.0605667318,0.0273696290,-1.9047546387,-15.9432779948,3.0128479004
1.1512179375,-0.0662994792,-0.0605667318,0.0273696290,2.2608947754,-15.5465494792,1.1207580566
1.1537959576,-0.0662994792,-0.0605667318,0.0136977540,2.2608947754,-15.5465494792,1.1207580566
1.1563708782,-0.0726471355,-0.0556839193,0.0136977540,4.9769592285,-15.1955973307,0.0068664551
1.1591038704,-0.0726471355,-0.0556839193,0.0136977540,4.9769592285,-15.1955973307,0.0068664551
1.1616790295,-0.0726471355,-0.0556839193,0.0136977540,5.9230041504,-14.4326578776,-0.1152038575
1.1642589569,-0.0726471355,-0.0864456380,-0.0082749023,5.9230041504,-14.4326578776,-0.1152038575
1.1668429375,-0.0833893229,-0.0864456380,-0.0082749023,6.2434387207,-14.2953287760,-0.8781433106
1.1696209908,-0.0833893229,-0.0864456380,-0.0082749023,6.2434387207,-14.2953287760,-0.8781433106
1.1723439693,-0.0833893229,-0.0864456380,-0.0082749023,5.6025695801,-14.5242106120,-0.7408142090
1.1750550270,-0.0716705729,-0.1059768880,-0.0317124023,5.6025695801,-14.5242106120,-0.7408142090
1.1778030396,-0.0716705729,-0.1059768880,-0.0317124023,3.4663391113,-14.9972330729,-0.8171081543
1.1805129051,-0.0716705729,-0.1059768880,-0.0317124023,3.4663391113,-14.9972330729,-0.8171081543
1.1832239628,-0.0716705729,-0.1059768880,-0.0317124023,0.3535461426,-15.3939615886,-0.5882263184
1.1859359741,-0.0687408855,-0.0805862630,-0.0160874023,0.3535461426,-15.3939615886,-0.5882263184
1.1886548996,-0.0687408855,-0.0805862630,-0.0160874023,-2.4388122559,-15.3329264323,-0.1304626465
1.1913578510,-0.0687408855,-0.0805862630,-0.0160874023,-2.4388122559,-15.3329264323,-0.1304626465
1.1942160130,-0.0687408855,-0.0805862630,-0.0063217773,-4.6513366699,-15.2566324870,-0.0846862793
1.1967890263,-0.0706940105,-0.0893753256,-0.0063217773,-4.6513366699,-15.2566324870,-0.0846862793
1.1994590759,-0.0706940105,-0.0893753256,-0.0063217773,-5.3837585449,-15.1345621745,-0.4051208496
1.2020339966,-0.0706940105,-0.0893753256,-0.0063217773,-5.3837585449,-15.1345621745,-0.4051208496
1.2054948807,-0.0789947917,-0.1040237630,-0.0058334960,-6.2687683106,-14.8293863932,-0.9239196778
1.2082049847,-0.0789947917,-0.1040237630,-0.0058334960,-6.2687683106,-14.8293863932,-0.9239196778
1.2108850479,-0.0789947917,-0.1040237630,-0.0058334960,-6.2687683106,-14.5089518229,-1.1680603028
1.2134568691,-0.0789947917,-0.1040237630,-0.0058334960,-6.2687683106,-14.5089518229,-1.1680603028
1.2160270214,-0.0619049479,-0.0786331380,0.0010024414,-4.6971130371,-14.9819742839,-1.7478942871
1.2186119556,-0.0619049479,-0.0786331380,0.0010024414,-4.6971130371,-14.9819742839,-1.7478942871
1.2211799622,-0.0619049479,-0.0786331380,0.0010024414,-2.4235534668,-15.6991373698,-2.8312683106
1.2237520218,-0.0619049479,-0.0786331380,0.0010024414,-2.4235534668,-15.6991373698,-2.8312683106
1.2263228893,-0.0653229167,-0.0566604818,0.0132094727,3.1764221191,-16.0653483073,-3.8383483887
1.2289400101,-0.0653229167,-0.0566604818,0.0132094727,3.1764221191,-16.0653483073,-3.8383483887
1.2315099239,-0.0653229167,-0.0566604818,0.0132094727,10.1649475098,-15.2871500651,-4.3571472168
1.2340860367,-0.0653229167,-0.0566604818,0.0132094727,10.1649475098,-15.2871500651,-4.3571472168
1.2366609573,-0.0819244792,-0.0903518880,0.0034438477,15.4902648926,-15.1498209636,-6.0661315918
1.2392439842,-0.0819244792,-0.0903518880,0.0034438477,15.4902648926,-15.1498209636,-6.0661315918
1.2418160439,-0.0819244792,-0.0903518880,0.0034438477,15.4902648926,-15.2108561198,-6.5849304199
1.2443890572,-0.0819244792,-0.0903518880,0.0073500977,18.2215881348,-15.2108561198,-6.5849304199
1.2469599247,-0.0770416667,-0.0991409506,0.0073500977,18.2215881348,-15.2108561198,-6.4323425293
1.2496759892,-0.0770416667,-0.0991409506,0.0073500977,20.0984191894,-14.9819742839,-6.4323425293
1.2522459030,-0.0770416667,-0.0991409506,0.0073500977,20.0984191894,-14.9819742839,-6.1729431153
1.2548189163,-0.0770416667,-0.0991409506,0.0234633790,22.0668029785,-14.2342936198,-6.1729431153
1.2573928833,-0.0833893229,-0.0952347006,0.0234633790,22.0668029785,-14.2342936198,-6.1729431153
1.2600769997,-0.0833893229,-0.0952347006,0.0234633790,23.3790588379,-13.1051432292,-6.3560485840
1.2626440525,-0.0833893229,-0.0952347006,0.0234633790,23.3790588379,-13.1051432292,-6.3560485840
1.2652149200,0.0416106771,-0.1206253256,0.0439711914,24.7370910644,-12.0828043620,-4.8912048340
1.2678458691,-0.0829010417,-0.1206253256,0.0439711914,24.7370910644,-12.0828043620,-4.8912048340
1.2704210281,-0.0829010417,-0.1206253256,0.0439711914,25.2711486816,-11.1977945964,-3.5636901856
1.2730989456,-0.0829010417,-0.1206253256,0.0439711914,25.2711486816,-11.1977945964,-3.5636901856
1.2756679058,-0.0868072917,-0.1357620443,0.0278579102,23.7300109863,-10.2670084636,-3.7315368653
1.2782840729,-0.0868072917,-0.1357620443,0.0278579102,23.7300109863,-10.2670084636,-3.7315368653
1.2809760571,-0.0868072917,-0.1357620443,0.0278579102,20.9681701660,-9.8245035807,-4.0672302246
1.2836699486,-0.0868072917,-0.1357620443,0.0278579102,20.9681701660,-9.8245035807,-4.0672302246
1.2863609791,-0.0677643229,-0.0669143880,0.0283461914,16.8635559082,-9.0615641276,-4.0519714356
1.2890629768,-0.0677643229,-0.0669143880,0.0283461914,16.8635559082,-9.0615641276,-4.0519714356
1.2917580605,-0.0677643229,-0.0669143880,0.0283461914,14.2695617676,-8.8174235026,-3.5636901856
1.2944488525,-0.0677643229,-0.0669143880,0.0283461914,14.2695617676,-8.8174235026,-3.5636901856
1.2971379757,-0.0453033855,-0.0376175130,0.0283461914,13.1404113770,-8.2833658854,-3.8536071778
1.2998449802,-0.0453033855,-0.0376175130,0.0283461914,13.1404113770,-8.2833658854,-3.8536071778
1.3025400639,-0.0453033855,-0.0376175130,0.0283461914,11.3398742676,-7.6119791667,-4.6775817871
1.3052279949,-0.0453033855,-0.1626175130,0.0205336914,11.3398742676,-7.6119791667,-4.6775817871
1.3079328537,-0.0594635417,-0.0488479818,0.0205336914,10.0428771973,-7.0931803386,-5.2268981934
1.3106279373,-0.0594635417,-0.0488479818,0.0205336914,10.0428771973,-7.0931803386,-5.2268981934
1.3133220673,-0.0594635417,-0.0488479818,0.0205336914,10.0581359863,-6.6201578776,-6.4018249512
1.3161640167,-0.0702057292,-0.0493362630,0.0151625977,10.0581359863,-6.6201578776,-6.4018249512
1.3190279007,-0.0702057292,-0.0493362630,0.0151625977,10.4396057129,-6.4523111979,-7.1342468262
1.3217389584,-0.0702057292,-0.0493362630,0.0151625977,10.4396057129,-6.4523111979,-7.1342468262
1.3244428635,-0.0702057292,-0.0493362630,0.0151625977,11.0499572754,-6.4523111979,-7.7140808106
1.3271548748,-0.0594635417,-0.0415237630,0.0205336914,11.0499572754,-6.4523111979,-7.7140808106
1.3298759460,-0.0594635417,-0.0415237630,0.0205336914,11.3093566894,-6.1166178386,-8.7974548340
1.3325860500,-0.0594635417,-0.0415237630,0.0205336914,11.3093566894,-6.1166178386,-8.7974548340
1.3352999687,-0.0594635417,-0.0415237630,0.0283461914,11.1262512207,-6.4828287760,-9.7740173340
1.3381240368,-0.0575104167,-0.0449417318,0.0283461914,11.1262512207,-6.4828287760,-9.7740173340
1.3408348560,-0.0575104167,-0.0449417318,0.0283461914,11.1109924316,-6.2997233073,-10.3691101075
1.3435389996,-0.0575104167,-0.0449417318,0.0283461914,11.1109924316,-6.2997233073,-10.3691101075
1.3462429047,-0.0433502605,-0.0346878256,0.0356704102,11.1109924316,-6.4523111979,-10.8421325684
1.3489198685,-0.0433502605,-0.0346878256,0.0356704102,11.1109924316,-6.4523111979,-10.8421325684
1.3515009880,-0.0433502605,-0.0346878256,0.0356704102,11.3856506348,-6.5896402995,-11.1015319825
1.3540768623,-0.0433502605,-0.0346878256,0.0356704102,11.3856506348,-6.5896402995,-11.1015319825
1.3566529751,-0.0423736979,-0.0586136068,0.0356704102,11.8281555176,-5.9945475260,-11.4982604981
1.3592419624,-0.0423736979,-0.0586136068,0.0356704102,11.8281555176,-5.9945475260,-11.4982604981
1.3618240356,-0.0423736979,-0.0586136068,0.0356704102,11.1872863770,-5.5367838542,-11.5898132325
1.3644008636,-0.0423736979,-0.0586136068,0.0356704102,11.1872863770,-5.5367838542,-11.5898132325
1.3669729233,-0.0599518229,-0.0586136068,0.0312758790,11.1872863770,-5.1705729167,-11.9102478028
1.3696489334,-0.0599518229,-0.0586136068,0.0312758790,10.1649475098,-5.1705729167,-11.9102478028
1.3722259998,-0.0599518229,-0.0586136068,0.0312758790,10.1649475098,-1.2643229167,-11.5440368653
1.3747980595,-0.0599518229,-0.0586136068,0.0312758790,9.0510559082,-4.4686686198,-11.5440368653
1.3773748875,-0.0584869792,-0.0508011068,0.0361586914,9.0510559082,-4.4686686198,-11.8186950684
1.3802330494,-0.0584869792,-0.0508011068,0.0361586914,8.0744934082,-4.1024576823,-11.8186950684
1.3829410076,-0.0584869792,-0.0508011068,0.0361586914,8.0744934082,-4.1024576823,-11.6050720215
1.3856499195,-0.0584869792,-0.0508011068,0.0459243164,6.2739562988,-3.6599527995,-11.6050720215
1.3884019852,-0.0648346355,-0.0566604818,0.0459243164,6.2739562988,-3.6599527995,-11.0862731934
1.3911099434,-0.0648346355,-0.0566604818,0.0459243164,4.9922180176,-3.3242594401,-11.0862731934
1.3938169479,-0.0648346355,-0.0566604818,0.0459243164,4.9922180176,-3.3242594401,-10.4606628418
1.3965158463,-0.0648346355,-0.0630081380,0.0527602540,4.4886779785,-3.3090006510,-10.4606628418
1.3991639614,-0.0457916667,-0.0630081380,0.0527602540,4.4886779785,-3.3090006510,-9.6366882325
1.4018480778,-0.0457916667,-0.0630081380,0.0527602540,4.3513488770,-2.8664957682,-9.6366882325
1.4044220448,-0.0457916667,-0.0630081380,0.0527602540,4.3513488770,-2.8664957682,-9.6366882325
1.4069938660,-0.0506744792,-0.0532425130,0.0571547852,3.1611633301,-2.3782145182,-9.1178894043
1.4095740318,-0.0506744792,-0.0532425130,0.0571547852,3.1611633301,-2.3782145182,-9.1178894043
1.4121420383,-0.0506744792,-0.0532425130,0.0571547852,2.1235656738,-2.4087320964,-8.6296081543
1.4147109985,-0.0506744792,-0.0532425130,0.0571547852,2.1235656738,-2.4087320964,-8.6296081543
1.4172809124,-0.0394440105,-0.0468948568,0.0434829102,1.2385559082,-1.8594156901,-8.3549499512
1.4200360775,-0.0394440105,-0.0468948568,0.0434829102,1.2385559082,-1.8594156901,-8.3549499512
1.4227359295,-0.0394440105,-0.0468948568,0.0434829102,0.2467346191,-1.6915690104,-7.5614929199
1.4254410267,-0.0394440105,-0.0468948568,0.0434829102,0.2467346191,-1.6915690104,-7.5614929199
1.4281878471,-0.0443268229,-0.0527542318,0.0386000977,-0.8824157715,-1.1880289714,-7.1952819825
1.4308910370,-0.0443268229,-0.0527542318,0.0386000977,-0.8824157715,-1.1880289714,-7.1952819825
1.4337918758,-0.0443268229,-0.0527542318,0.0386000977,-2.0726013184,-0.9286295573,-6.6001892090
1.4364829063,-0.0443268229,-0.0298050130,0.0483657227,-2.0726013184,-0.9286295573,-6.6001892090
1.4396388531,-0.0282135417,-0.0298050130,0.0483657227,-3.2170104980,-0.8828531901,-5.8982849121
1.4423439503,-0.0282135417,-0.0298050130,0.0483657227,-3.2170104980,-0.8828531901,-5.8982849121
1.4450440407,-0.0282135417,-0.0298050130,0.0483657227,-3.8273620606,-0.8218180339,-6.2187194825
1.4477829933,-0.0409088542,-0.0190628256,0.0386000977,-3.8273620606,-0.8218180339,-6.2187194825
1.4503519535,-0.0409088542,-0.0190628256,0.0386000977,-3.5527038574,-0.2877604167,-6.4018249512
1.4529218674,-0.0409088542,-0.0190628256,0.0386000977,-3.5527038574,-0.2877604167,-6.4018249512
1.4554920197,-0.0409088542,-0.0190628256,0.0386000977,-2.9728698730,-0.0436197917,-6.3865661621
1.4581060410,-0.0399322917,-0.0185745443,0.0322524414,-2.9728698730,-0.0436197917,-6.3865661621
1.4608108997,-0.0399322917,-0.0185745443,0.0322524414,-3.0949401856,0.3988850911,-6.2797546387
1.4635069370,-0.0399322917,-0.0185745443,0.0322524414,-3.0949401856,0.3988850911,-6.2797546387
1.4663178921,-0.0399322917,-0.0185745443,0.0381118164,-2.9576110840,-0.3793131510,-6.8443298340
1.4689629078,-0.0330963542,-0.0092972006,0.0381118164,-2.9576110840,-0.3793131510,-6.8443298340
1.4715280533,-0.0330963542,-0.0092972006,0.0381118164,-2.5608825684,-0.4708658854,-7.1647644043
1.4740939140,-0.0330963542,-0.0092972006,0.0381118164,-2.5608825684,-0.4708658854,-7.1647644043
1.4766619205,-0.0330963542,-0.0092972006,0.0268813477,-2.1488952637,0.3225911458,-7.0579528809
1.4792358875,-0.0291901042,0.0107223307,0.0268813477,-2.1488952637,0.3225911458,-7.0579528809
1.4818048477,-0.0291901042,0.0107223307,0.0268813477,-2.9118347168,1.3449300130,-7.5614929199
1.4843759537,-0.0291901042,0.0107223307,0.0268813477,-2.9118347168,1.3449300130,-7.5614929199
1.4869399071,-0.0291901042,0.0107223307,0.0073500977,-3.5679626465,2.0163167318,-8.2023620606
1.4896659851,-0.0555572917,0.0082809244,0.0073500977,-3.5679626465,2.0163167318,-8.2023620606
1.4922358990,-0.0555572917,0.0082809244,0.0073500977,-3.5679626465,2.0163167318,-7.9887390137
1.4948060513,-0.0555572917,0.0082809244,0.0073500977,-3.5069274902,2.0163167318,-7.9887390137
1.4973790646,-0.0555572917,-0.0014847006,0.0151625977,-3.5069274902,2.0163167318,-8.2328796387
1.5000839233,-0.0570221355,-0.0014847006,0.0151625977,-2.9423522949,1.6501057943,-8.2328796387
1.5028150082,-0.0570221355,-0.0014847006,0.0151625977,-2.9423522949,1.6501057943,-7.9887390137
1.5053870678,-0.0570221355,-0.0014847006,0.0151625977,-2.4235534668,1.3449300130,-7.9887390137
1.5081548691,-0.0575104167,-0.0219925130,0.0312758790,-2.4235534668,1.3449300130,-7.9887390137
1.5108258724,-0.0575104167,-0.0219925130,0.0312758790,-1.7979431152,0.9787190755,-7.9887390137
1.5135779381,-0.0575104167,-0.0219925130,0.0312758790,-1.7979431152,0.9787190755,-7.3936462403
1.5162749290,-0.0575104167,-0.0219925130,0.0312758790,-1.2944030762,0.8108723958,-7.3936462403
1.5188429356,-0.0536041667,-0.0219925130,0.0302993164,-1.2944030762,0.8108723958,-6.8138122559
1.5214109421,-0.0536041667,-0.0219925130,0.0302993164,-1.3706970215,0.3836263021,-6.8138122559
1.5239799023,-0.0536041667,-0.0219925130,0.0302993164,-1.3706970215,0.3836263021,-6.8138122559
1.5265419483,-0.0536041667,-0.0219925130,0.0302993164,-1.6453552246,0.4599202474,-6.8901062012
1.5292680264,-0.0536041667,-0.0044143880,0.0302993164,-1.6453552246,0.4599202474,-6.8901062012
1.5318360329,-0.0536041667,-0.0044143880,0.0302993164,-2.0115661621,0.4751790364,-7.2868347168
1.5343990326,-0.0536041667,-0.0044143880,0.0302993164,-2.0115661621,0.4751790364,-7.2868347168
1.5369720459,-0.0536041667,-0.0044143880,0.0473891602,-2.1641540527,0.5972493490,-7.6225280762
1.5395410061,-0.0443268229,0.0068160807,0.0473891602,-2.1641540527,0.5972493490,-7.6225280762
1.5421090126,-0.0443268229,0.0068160807,0.0473891602,-1.7826843262,0.4599202474,-7.1647644043
1.5446839333,-0.0443268229,0.0068160807,0.0473891602,-1.7826843262,0.4599202474,-7.1647644043
1.5472500324,-0.0443268229,0.0068160807,0.0473891602,-1.7674255371,0.5209554036,-6.9206237793
1.5498209000,-0.0526276042,-0.0063675130,0.0473891602,-1.7674255371,0.5209554036,-6.9206237793
1.5523889065,-0.0526276042,-0.0063675130,0.0473891602,-1.2333679199,0.3683675130,-7.1800231934
1.5549490452,-0.0526276042,-0.0063675130,0.0473891602,-1.2333679199,0.3683675130,-7.1800231934
1.5576429367,-0.0526276042,0.0082809244,0.0571547852,-1.2333679199,0.0479329427,-7.6225280762
1.5602109432,-0.0438385417,0.0082809244,0.0571547852,0.1246643066,0.0479329427,-7.6225280762
1.5627770424,-0.0438385417,0.0082809244,0.0571547852,0.1246643066,0.0479329427,-8.0955505371
1.5653479099,-0.0438385417,0.0082809244,0.0571547852,1.6200256348,-0.4861246745,-8.0955505371
1.5679359436,-0.0438385417,-0.0024612630,0.0473891602,1.6200256348,-0.4861246745,-8.2481384278
1.5705049038,-0.0506744792,-0.0024612630,0.0473891602,3.2374572754,-0.8828531901,-8.2481384278
1.5730779171,-0.0506744792,-0.0024612630,0.0473891602,3.2374572754,-0.8828531901,-8.2481384278
1.5756418705,-0.0506744792,-0.0024612630,0.0473891602,4.8854064941,-0.6081949870,-8.8737487793
1.5782568455,-0.0565338542,0.0004684244,0.0517836914,4.8854064941,-0.6081949870,-8.8737487793
1.5808219910,-0.0565338542,0.0004684244,0.0517836914,6.3502502441,-0.6387125651,-8.2633972168
1.5833868980,-0.0565338542,0.0004684244,0.0517836914,6.3502502441,-0.6387125651,-8.2633972168
1.5859580040,-0.0565338542,0.0004684244,0.0517836914,8.1202697754,-0.6387125651,-7.6988220215
1.5885798931,-0.0545807292,-0.0195511068,0.0600844727,8.1202697754,-0.6387125651,-7.6988220215
1.5912718773,-0.0545807292,-0.0195511068,0.0600844727,9.5240783691,-0.5776774089,-7.3936462403
1.5938520432,-0.0545807292,-0.0195511068,0.0600844727,9.5240783691,-0.5776774089,-7.3936462403
1.5964238644,-0.0545807292,-0.0195511068,0.0600844727,9.6766662598,-0.1809488932,-6.4323425293
1.5991010666,-0.0638580729,-0.0312698568,0.0678969727,9.6766662598,-0.1809488932,-6.4323425293
1.6018068790,-0.0638580729,-0.0312698568,0.0678969727,9.1731262207,-0.1046549479,-5.3337097168
1.6045150757,-0.0638580729,-0.0312698568,0.0678969727,9.1731262207,-0.1046549479,-5.3337097168
1.6072280407,-0.0638580729,-0.0312698568,0.0678969727,9.0205383301,-0.0893961589,-3.6857604981
1.6099369526,-0.0555572917,-0.0180862630,0.0449477540,9.0205383301,-0.0893961589,-3.6857604981
1.6126449108,-0.0555572917,-0.0180862630,0.0449477540,9.7377014160,-0.0741373698,-2.7397155762
1.6153500080,-0.0555572917,-0.0180862630,0.0449477540,9.7377014160,-0.0741373698,-2.7397155762
1.6180670261,-0.0555572917,-0.0180862630,0.0576430664,10.1496887207,0.4904378255,-1.0612487793
1.6207790375,-0.0516510417,-0.0068557943,0.0576430664,10.1496887207,0.4904378255,-1.0612487793
1.6235280037,-0.0516510417,-0.0068557943,0.0576430664,10.5464172363,1.2228597005,0.7240295410
1.6264090538,-0.0516510417,-0.0068557943,0.0576430664,10.5464172363,1.2228597005,0.7240295410
1.6291949749,-0.0643463542,-0.0293167318,0.0605727540,10.7600402832,1.7416585286,3.0586242675
1.6319010258,-0.0643463542,-0.0293167318,0.0605727540,10.7600402832,1.7416585286,3.0586242675
1.6346089840,-0.0643463542,-0.0293167318,0.0605727540,12.1791076660,1.8942464193,4.1572570801
1.6373150349,-0.0643463542,-0.0293167318,0.0605727540,12.1791076660,1.8942464193,4.1572570801
1.6399080753,-0.0721588542,-0.0224807943,0.0620375977,13.7049865723,1.6501057943,5.6068420410
1.6424880028,-0.0721588542,-0.0224807943,0.0620375977,13.7049865723,1.6501057943,5.6068420410
1.6450600624,-0.0721588542,-0.0224807943,0.0620375977,14.8799133301,2.5351155599,7.1479797363
1.6476368904,-0.0721588542,-0.0224807943,0.0620375977,14.8799133301,2.5351155599,7.1479797363
1.6503469944,-0.0633697917,-0.0073440756,0.0547133790,16.7872619629,2.9623616536,9.7114562988
1.6530480385,-0.0633697917,-0.0073440756,0.0547133790,16.7872619629,2.9623616536,9.7114562988
1.6558668613,-0.0633697917,-0.0073440756,0.0547133790,17.0314025879,3.1912434896,11.2831115722
1.6585659981,-0.0633697917,-0.0171097006,0.0532485352,17.0314025879,3.1912434896,11.2831115722
1.6611380577,-0.0721588542,-0.0171097006,0.0532485352,17.0314025879,3.4506429036,13.2820129394
1.6637148857,-0.0721588542,-0.0171097006,0.0532485352,17.2297668457,3.4506429036,13.2820129394
1.6662838459,-0.0721588542,-0.0171097006,0.0532485352,17.2297668457,3.9847005208,14.9757385254
1.6688630581,-0.0721588542,-0.0483597006,0.0586196290,16.6804504394,3.9847005208,14.9757385254
1.6714429855,-0.0853424479,-0.0483597006,0.0586196290,16.6804504394,3.9847005208,16.7610168457
1.6740159988,-0.0853424479,-0.0483597006,0.0586196290,14.8951721191,3.7863362630,16.7610168457
1.6765980721,-0.0853424479,-0.0483597006,0.0586196290,14.8951721191,3.7863362630,17.9817199707
1.6793038845,-0.0921783855,-0.0454300130,0.0781508790,13.2929992676,4.3203938802,17.9817199707
1.6818759441,-0.0921783855,-0.0454300130,0.0781508790,13.2929992676,4.3203938802,17.9817199707
1.6844539642,-0.0921783855,-0.0454300130,0.0781508790,12.0875549316,4.5797932943,19.4770812988
1.6870229244,-0.0921783855,-0.0454300130,0.0781508790,12.0875549316,4.5797932943,19.4770812988
1.6898200512,-0.0809479167,0.0209762370,0.0459243164,11.4466857910,5.0070393880,20.3315734863
1.6925349236,-0.0809479167,0.0209762370,0.0459243164,11.4466857910,5.0070393880,20.3315734863
1.6952359676,-0.0809479167,0.0209762370,0.0459243164,11.2178039551,5.9073079427,21.4149475097
1.6979470253,-0.0809479167,0.0209762370,0.0459243164,11.2178039551,5.9073079427,21.4149475097
1.7006480694,-0.0565338542,0.0741988932,0.0522719727,12.5148010254,6.0598958333,21.9032287597
1.7033569813,-0.0565338542,0.0741988932,0.0522719727,12.5148010254,6.0598958333,21.9032287597
1.7060630322,-0.0565338542,0.0741988932,0.0522719727,14.0864562988,6.1056722005,21.3539123535
1.7088160515,-0.0565338542,0.0741988932,0.0459243164,14.0864562988,6.1056722005,21.3539123535
1.7115218639,-0.0511627605,0.0829879557,0.0459243164,15.7496643066,6.0293782552,20.5909729004
1.7142288685,-0.0511627605,0.0829879557,0.0459243164,15.7496643066,6.0293782552,20.5909729004
1.7169320583,-0.0511627605,0.0829879557,0.0459243164,17.0161437988,5.9225667318,20.2247619629
1.7196519375,-0.0438385417,0.0707809244,0.0395766602,17.0161437988,5.9225667318,20.2247619629
1.7222268581,-0.0438385417,0.0707809244,0.0395766602,17.6570129394,5.8462727864,20.1942443847
1.7247979641,-0.0438385417,0.0707809244,0.0395766602,17.6570129394,5.8462727864,20.1942443847
1.7273778915,-0.0438385417,0.0707809244,0.0395766602,17.0161437988,6.4718831380,19.5991516113
1.7300410271,-0.0599518229,0.0947067057,0.0571547852,17.0161437988,6.4718831380,19.5991516113
1.7326149940,-0.0599518229,0.0947067057,0.0571547852,17.1534729004,6.4871419271,19.2024230957
1.7351958752,-0.0599518229,0.0947067057,0.0571547852,17.1534729004,6.4871419271,19.2024230957
1.7378270626,-0.0599518229,0.0947067057,0.0571547852,17.2297668457,5.9836018880,19.2634582519
1.7405200005,-0.0658111979,0.0810348307,0.0498305664,17.2297668457,5.9836018880,19.2634582519
1.7432088852,-0.0658111979,0.0810348307,0.0498305664,16.6651916504,6.4261067708,19.6907043457
1.7459919453,-0.0658111979,0.0810348307,0.0498305664,16.6651916504,6.4261067708,19.6907043457
1.7490210533,-0.0658111979,0.0810348307,0.0439711914,16.5888977051,6.4413655599,20.1637268066
1.7517318726,-0.0643463542,0.0864059244,0.0439711914,16.5888977051,6.4413655599,20.1637268066
1.7544479370,-0.0643463542,0.0864059244,0.0439711914,16.8330383301,6.7007649740,20.8656311035
1.7571499348,-0.0643463542,0.0864059244,0.0439711914,16.8330383301,6.7007649740,20.8656311035
1.7598679066,-0.0643463542,0.1132613932,0.0488540040,17.7027893066,6.9449055990,21.4302062988
1.7625739574,-0.0579986979,0.1132613932,0.0488540040,17.7027893066,6.9449055990,21.4302062988
1.7652769089,-0.0579986979,0.1132613932,0.0488540040,18.6793518066,6.7465413411,21.0792541504
1.7679998875,-0.0579986979,0.1132613932,0.0488540040,18.6793518066,6.7465413411,21.0792541504
1.7707078457,-0.0633697917,0.1000777994,0.0307875977,18.9540100098,6.7007649740,21.1555480957
1.7734110355,-0.0633697917,0.1000777994,0.0307875977,18.9540100098,6.7007649740,21.1555480957
1.7761259079,-0.0633697917,0.1000777994,0.0307875977,18.2673645020,6.4871419271,21.2928771972
1.7787840366,-0.0633697917,0.1000777994,0.0307875977,18.2673645020,6.4871419271,21.2928771972
1.7813549042,-0.1043854167,0.0668746744,0.0180922852,16.2837219238,7.3111165364,22.1778869629
1.7839310169,-0.1043854167,0.0668746744,0.0180922852,16.2837219238,7.3111165364,22.1778869629
1.7866070271,-0.1043854167,0.0668746744,0.0180922852,13.8728332520,7.7231038411,23.2917785644
1.7891888618,-0.1043854167,0.0668746744,0.0180922852,13.8728332520,7.7231038411,23.2917785644
1.7917640209,-0.0892486979,0.1078902994,0.0073500977,13.8728332520,7.7078450521,24.4361877441
1.7943358421,-0.0892486979,0.1078902994,0.0073500977,12.0570373535,7.7078450521,24.4361877441
1.7969110012,-0.0892486979,0.1078902994,0.0073500977,12.0570373535,7.4637044271,24.9702453613
1.7996399403,-0.0892486979,0.1078902994,0.0097915040,12.4385070801,7.4637044271,24.9702453613
1.8022110462,-0.0760651042,0.1406051432,0.0097915040,12.4385070801,7.4637044271,25.0617980957
1.8047900200,-0.0760651042,0.1406051432,0.0097915040,13.1251525879,7.4179280599,25.0617980957
1.8073589802,-0.0760651042,0.1406051432,0.0097915040,13.1251525879,7.4179280599,24.4209289551
1.8101530075,-0.0760651042,0.1581832682,-0.0009506836,13.7812805176,7.5857747396,24.4209289551
1.8128509521,-0.0731354167,0.1581832682,-0.0009506836,13.7812805176,7.5857747396,23.9784240722
1.8155519962,-0.0731354167,0.1581832682,-0.0009506836,15.0630187988,7.7383626302,23.9784240722
1.8182718754,-0.0731354167,0.1581832682,-0.0009506836,15.0630187988,7.7383626302,23.7953186035
1.8209688663,-0.0804596355,0.1459762370,0.0141860352,15.7496643066,7.8451741536,23.7953186035
1.8236739635,-0.0804596355,0.1459762370,0.0141860352,15.7496643066,7.8451741536,23.9021301269
1.8263790607,-0.0804596355,0.1459762370,0.0141860352,16.2226867676,7.7993977864,23.9021301269
1.8290240765,-0.0804596355,0.1459762370,0.0141860352,16.2226867676,7.7993977864,23.9021301269
1.8315980434,-0.0780182292,0.1440231120,0.0259047852,17.0008850098,7.9367268880,24.2988586425
1.8341720104,-0.0780182292,0.1440231120,0.0259047852,17.0008850098,7.9367268880,24.2988586425
1.8367440701,-0.0780182292,0.1440231120,0.0259047852,17.8401184082,7.9062093099,24.9397277832
1.8394589424,-0.0780182292,0.1440231120,0.0259047852,17.8401184082,7.9062093099,24.9397277832
1.8421599865,-0.0941315105,0.1391402994,0.0478774414,18.6946105957,7.9519856771,25.3059387207
1.8448629379,-0.0941315105,0.1391402994,0.0478774414,18.6946105957,7.9519856771,25.3059387207
1.8475780487,-0.0941315105,0.1391402994,0.0478774414,20.2662658691,7.8299153646,25.8247375488
1.8503980637,-0.0941315105,0.1415817057,0.0449477540,20.2662658691,7.8299153646,25.8247375488
1.8531110287,-0.1048736979,0.1415817057,0.0449477540,21.0597229004,8.1350911458,26.7402648925
1.8558180332,-0.1048736979,0.1415817057,0.0449477540,21.0597229004,8.1350911458,26.7402648925
1.8585388660,-0.1048736979,0.1415817057,0.0449477540,22.2041320801,8.8369954427,28.0525207519
1.8612480164,-0.1034088542,0.1415817057,0.0332290040,22.2041320801,8.8369954427,28.0525207519
1.8639650345,-0.1034088542,0.1415817057,0.0332290040,23.6994934082,9.1726888021,28.9680480957
1.8666729927,-0.1034088542,0.1415817057,0.0332290040,23.6994934082,9.1726888021,30.6007385254
1.8698170185,-0.1034088542,0.1415817057,0.0332290040,24.4624328613,9.4473470052,30.6007385254
1.8725218773,-0.1283111979,0.1279098307,0.0263930664,24.4624328613,9.4473470052,34.5069885254
1.8752319813,-0.1283111979,0.1279098307,0.0263930664,25.1338195801,10.3323567708,32.2029113769
1.8779230118,-0.1283111979,0.1279098307,0.0263930664,25.1338195801,10.3323567708,32.2029113769
1.8804910183,-0.1283111979,0.1279098307,0.0254165040,25.5000305176,11.4004720052,34.5375061035
1.8830699921,-0.1727447917,0.1122848307,0.0254165040,25.5000305176,11.4004720052,34.5375061035
1.8856449127,-0.1727447917,0.1122848307,0.0254165040,25.5305480957,12.6364339193,36.4753723144
1.8882789612,-0.1727447917,0.1122848307,0.0254165040,25.5305480957,12.6364339193,36.4753723144
1.8909800053,-0.2977447917,0.0839645182,0.0390883790,25.3779602051,13.2773030599,38.4742736816
1.8936810493,-0.2259674479,0.0839645182,0.0390883790,25.3779602051,13.2773030599,38.4742736816
1.8963959217,-0.2259674479,0.0839645182,0.0390883790,24.9201965332,13.7198079427,41.0224914551
1.8990449905,-0.2259674479,0.0839645182,0.0390883790,24.9201965332,13.7198079427,41.0224914551
1.9016170502,-0.2562408855,0.0986129557,0.0405532227,24.0199279785,13.9944661458,44.0132141113
1.9041919708,-0.2562408855,0.0986129557,0.0405532227,24.0199279785,13.9944661458,44.0132141113
1.9067649841,-0.2562408855,0.0986129557,0.0405532227,24.0657043457,13.8571370443,45.9968566894
1.9093859196,-0.2562408855,0.0986129557,0.0405532227,24.0657043457,13.8571370443,45.9968566894
1.9126079082,-0.2801666667,0.0868942057,0.0332290040,24.8439025879,13.1094563802,47.8736877441
1.9152898788,-0.2801666667,0.0868942057,0.0332290040,24.8439025879,13.1094563802,47.8736877441
1.9180300236,-0.2801666667,0.0868942057,0.0332290040,25.8967590332,12.6211751302,49.7810363769
1.9206130505,-0.2801666667,0.0868942057,0.0156508790,25.8967590332,12.6211751302,49.7810363769
1.9231889248,-0.3128815105,0.0873824870,0.0156508790,27.7430725098,12.2549641927,52.4665832519
1.9257569313,-0.3128815105,0.0873824870,0.0156508790,27.7430725098,12.2549641927,52.4665832519
1.9283828735,-0.3128815105,0.0873824870,0.0156508790,30.1234436035,11.4157307943,55.5030822754
1.9309589863,-0.3128815105,-0.0376175130,-0.0131577148,30.1234436035,11.4157307943,55.5030822754
1.9335269928,-0.3402252605,0.0678512370,-0.0131577148,31.9087219238,10.1797688802,58.5243225097
1.9361000061,-0.3402252605,0.0678512370,-0.0131577148,31.9087219238,10.1797688802,58.5243225097
1.9386799335,-0.3402252605,0.0678512370,-0.0131577148,31.9087219238,8.8675130208,61.7134094238
1.9412510395,-0.3402252605,0.0424606120,-0.0395249023,32.9768371582,8.8675130208,61.7134094238
1.9438278675,-0.3714752605,0.0424606120,-0.0395249023,32.9768371582,8.8675130208,66.2300109863
1.9463908672,-0.3714752605,0.0424606120,-0.0395249023,33.9381408691,7.8146565755,66.2300109863
1.9490108490,-0.3714752605,0.0424606120,-0.0395249023,33.9381408691,7.8146565755,70.2430725097
1.9515919685,-0.3714752605,0.0243942057,-0.0390366210,35.8607482910,6.5939534505,70.2430725097
1.9541618824,-0.4037018229,0.0243942057,-0.0390366210,35.8607482910,6.5939534505,70.2430725097
1.9567320347,-0.4037018229,0.0243942057,-0.0390366210,38.1648254394,5.2054036458,72.9743957519
1.9594640732,-0.4037018229,0.0243942057,-0.0390366210,38.1648254394,5.2054036458,72.9743957519
1.9620339870,-0.4061432292,0.0053512370,-0.0209702148,41.0182189941,2.6571858724,75.2784729004
1.9646079540,-0.4061432292,0.0053512370,-0.0209702148,41.0182189941,2.6571858724,75.2784729004
1.9671750069,-0.4061432292,0.0053512370,-0.0209702148,43.9479064941,0.5362141927,77.8266906738
1.9698710442,-0.4061432292,0.0053512370,-0.0209702148,43.9479064941,0.5362141927,77.8266906738
1.9724440575,-0.4305572917,-0.0073440756,-0.0253647460,45.5348205566,-0.3030192057,79.8103332519
1.9750149250,-0.4305572917,-0.0073440756,-0.0253647460,45.5348205566,-0.3030192057,79.8103332519
1.9777600765,-0.4305572917,-0.0073440756,-0.0253647460,47.0912170410,-0.8523356120,81.6261291504
1.9803369045,-0.4305572917,-0.0073440756,-0.0253647460,47.0912170410,-0.8523356120,81.6261291504
1.9829030037,-0.4320221355,-0.0019729818,-0.0068100586,49.8377990723,-1.8288981120,83.1214904785
1.9854800701,-0.4320221355,-0.0019729818,-0.0068100586,49.8377990723,-1.8288981120,83.1214904785
1.9880840778,-0.4320221355,-0.0019729818,-0.0068100586,52.3402404785,-4.5144449870,84.1438293457
1.9907948971,-0.4320221355,-0.0019729818,-0.0068100586,52.3402404785,-4.5144449870,84.1438293457
1.9935009480,-0.4100494792,0.0229293620,0.0356704102,55.5293273926,-6.1929117839,85.5781555175
1.9962110519,-0.4100494792,0.0229293620,0.0356704102,55.5293273926,-6.1929117839,85.5781555175
1.9989249706,-0.4100494792,0.0229293620,0.0356704102,56.0786437988,-5.5215250651,85.0593566894
2.0016410351,-0.4100494792,0.0229293620,0.0595961914,56.0786437988,-5.5215250651,85.0593566894
2.0043499470,-0.4427643229,0.0180465494,0.0595961914,50.6922912598,-4.9722086589,83.6860656738
2.0070619583,-0.4427643229,0.0180465494,0.0595961914,50.6922912598,-4.9722086589,83.6860656738
2.0098738670,-0.4427643229,0.0180465494,0.0595961914,46.4808654785,-4.6517740886,83.4114074707
2.0125870705,-0.4027252605,0.0356246744,0.1128188477,46.4808654785,-4.6517740886,83.4114074707
2.0153000355,-0.4027252605,0.0356246744,0.1128188477,47.4574279785,-2.6223551432,83.9454650879
2.0180180073,-0.4027252605,0.0356246744,0.1128188477,47.4574279785,-2.6223551432,83.9454650879
2.0207209587,-0.4027252605,0.0356246744,0.1128188477,47.9762268066,0.2462972005,84.7389221191
2.0234310627,-0.3690338542,0.0409957682,0.1235610352,47.9762268066,0.2462972005,84.7389221191
2.0262839794,-0.3690338542,0.0409957682,0.1235610352,46.7707824707,3.7405598958,84.1438293457
2.0293419361,-0.3690338542,0.0409957682,0.1235610352,46.7707824707,3.7405598958,84.1438293457
2.0319149494,-0.3690338542,0.0409957682,0.1167250977,45.0770568848,6.6244710286,83.4877014160
2.0344860554,-0.2948151042,0.0424606120,0.1167250977,45.0770568848,6.6244710286,83.4877014160
2.0370628834,-0.2948151042,0.0424606120,0.1167250977,46.7555236816,8.4097493490,82.7095031738
2.0397160053,-0.2948151042,0.0424606120,0.1167250977,46.7555236816,8.4097493490,82.7095031738
2.0425028801,-0.2948151042,0.1791793620,0.1636000977,51.8672180176,7.7841389974,83.3045959472
2.0451660156,-0.2205963542,0.1791793620,0.1636000977,51.8672180176,7.7841389974,83.3045959472
2.0478520393,-0.2205963542,0.1791793620,0.1636000977,55.5598449707,6.3040364583,85.2882385254
2.0505578518,-0.2205963542,0.1791793620,0.1636000977,55.5598449707,6.3040364583,85.2882385254
2.0532598495,-0.1693268229,0.2421676432,0.2295180664,53.5762023926,5.3427327474,86.0054016113
2.0559668541,-0.1693268229,0.2421676432,0.2295180664,53.5762023926,5.3427327474,86.0054016113
2.0586440563,-0.1693268229,0.2421676432,0.2295180664,50.5397033691,2.9471028646,84.2506408691
2.0612199306,-0.1693268229,0.2421676432,0.2295180664,50.5397033691,2.9471028646,84.2506408691
2.0637998581,-0.0492096355,0.1576949870,0.3003188477,50.5397033691,-1.2490641276,80.4817199707
2.0663728714,-0.0492096355,0.1576949870,0.3003188477,50.3413391113,-1.2490641276,80.4817199707
2.0689830780,-0.0492096355,0.1576949870,0.3003188477,50.3413391113,-1.2490641276,72.8370666504
2.0715630054,-0.0492096355,0.1576949870,0.3003188477,50.1429748535,-4.3923746745,72.8370666504
2.0741369724,0.0450286458,-0.0815628256,0.3008071290,50.1429748535,-4.3923746745,62.1406555175
2.0767168999,0.0450286458,-0.0815628256,0.3008071290,54.3696594238,-6.4523111979,62.1406555175
2.0794570446,0.0450286458,-0.0815628256,0.3008071290,54.3696594238,-6.4523111979,50.4219055175
2.0820310116,0.0450286458,-0.0815628256,0.3008071290,56.8263244629,-9.2904459636,50.8796691894
2.0846128464,0.1226653645,-0.2192581380,0.2676040040,56.8263244629,-9.2904459636,50.8796691894
2.0871908665,0.1226653645,-0.2192581380,0.2676040040,60.4884338379,-12.2811686198,38.5658264160
2.0899779797,0.1226653645,-0.2192581380,0.2676040040,60.4884338379,-12.2811686198,38.5658264160
2.0926899910,0.1226653645,-0.2666214193,0.1885024414,69.2012023926,-14.9209391276,25.9620666504
2.0953979492,0.1436614583,-0.2666214193,0.1885024414,69.2012023926,-14.9209391276,25.9620666504
2.0981180668,0.1436614583,-0.2666214193,0.1885024414,76.7390441894,-14.6462809245,12.5190734863
2.1008288860,0.1436614583,-0.2666214193,0.1885024414,76.7390441894,-14.6462809245,12.5190734863
2.1035330296,0.1558684895,-0.4472854818,0.0473891602,81.5303039551,-12.2506510417,-1.6258239746
2.1063590050,0.1558684895,-0.4472854818,0.0473891602,81.5303039551,-12.2506510417,-1.6258239746
2.1090779305,0.1558684895,-0.4472854818,0.0473891602,86.6725158691,-10.0991617839,-13.9244079590
2.1117839813,0.1558684895,-0.4472854818,0.0473891602,86.6725158691,-10.0991617839,-13.9244079590
2.1144938469,0.2203216145,-0.4663284506,-0.0185288086,87.8474426270,-8.9089762370,-23.0491638184
2.1171929836,0.2203216145,-0.4663284506,-0.0185288086,87.8474426270,-8.9089762370,-23.0491638184
2.1199078560,0.2203216145,-0.4663284506,-0.0185288086,85.7875061035,-8.6190592448,-30.3733825684
2.1226139069,0.2203216145,-0.4663284506,-0.0527084960,85.7875061035,-8.6190592448,-30.3733825684
2.1253190041,0.2803802083,-0.4458206380,-0.0527084960,81.8965148926,-7.9324137370,-39.0251159668
2.1280448437,0.2803802083,-0.4458206380,-0.0527084960,81.8965148926,-7.9324137370,-39.0251159668
2.1307508945,0.2803802083,-0.4458206380,-0.0527084960,77.6393127441,-7.0779215495,-49.4163513184
2.1334600449,0.3077239583,-0.3481643880,-0.0810288086,77.6393127441,-7.0779215495,-49.4163513184
2.1361770630,0.3077239583,-0.3481643880,-0.0810288086,74.8774719238,-5.5062662760,-59.1819763184
2.1389029026,0.3077239583,-0.3481643880,-0.0810288086,74.8774719238,-5.5062662760,-59.1819763184
2.1416120529,0.3077239583,-0.3481643880,-0.0810288086,71.8867492676,-3.8125406901,-67.9252624512
2.1444559097,0.3389739583,-0.2509964193,-0.0937241210,71.8867492676,-3.8125406901,-67.9252624512
2.1471660137,0.3389739583,-0.2509964193,-0.0937241210,67.7516174316,-2.8817545573,-75.6919860840
2.1498858929,0.3389739583,-0.2509964193,-0.0937241210,67.7516174316,-2.8817545573,-75.6919860840
2.1525878906,0.3389739583,-0.2509964193,-0.0937241210,62.6856994629,-2.5308024089,-84.3589782715
2.1552908421,0.3189544271,-0.1953323568,-0.1113022460,62.6856994629,-2.5308024089,-84.3589782715
2.1580069065,0.3189544271,-0.1953323568,-0.1113022460,56.1854553223,-1.4779459636,-91.3932800293
2.1607320309,0.3189544271,-0.1953323568,-0.1113022460,56.1854553223,-1.4779459636,-91.3932800293
2.1637840271,0.2784270833,-0.2173050130,-0.1088608398,49.7615051270,-1.4779459636,-98.8548278809
2.1664988995,0.2784270833,-0.2173050130,-0.1088608398,49.7615051270,-1.4779459636,-108.0558776856
2.1692180634,0.2784270833,-0.2173050130,-0.1088608398,46.2672424316,-1.5847574870,-108.0558776856
2.1720380783,0.2784270833,-0.2173050130,-0.1088608398,46.2672424316,-1.5847574870,-117.8977966309
2.1747460365,0.2759856771,-0.2812698568,-0.1288803710,40.4689025879,-1.8594156901,-117.8977966309
2.1774518490,0.2759856771,-0.2812698568,-0.1288803710,40.4689025879,-1.8594156901,-127.2361755371
2.1800918579,0.2759856771,-0.2812698568,-0.1288803710,31.2831115723,-3.0343424479,-127.2361755371
2.1826629639,0.2759856771,-0.2812698568,-0.1288803710,31.2831115723,-3.0343424479,-127.2361755371
2.1852500439,0.2427825521,-0.2925003256,-0.1352280273,20.2815246582,-3.4921061198,-136.5592956543
2.1878490448,0.2427825521,-0.2925003256,-0.1352280273,20.2815246582,-3.4921061198,-136.5592956543
2.1904258728,0.2427825521,-0.2925003256,-0.1352280273,7.8761291504,-3.9498697917,-144.9668884278
2.1930088997,0.2427825521,-0.2925003256,-0.1352280273,7.8761291504,-3.9498697917,-144.9668884278
2.1955878735,0.2037200521,-0.2431839193,-0.1225327148,-4.2851257324,-3.7057291667,-152.0469665528
2.1982140541,0.2037200521,-0.2431839193,-0.1225327148,-4.2851257324,-3.7057291667,-152.0469665528
2.2007830143,0.2037200521,-0.2431839193,-0.1225327148,-14.8899841309,-3.5531412760,-158.0284118653
2.2033510208,0.2037200521,-0.2431839193,-0.1010483398,-14.8899841309,-3.5531412760,-158.0284118653
2.2059268951,0.1861419271,-0.1513870443,-0.1010483398,-24.2436218262,-4.2092692057,-163.5673522949
2.2086939812,0.1861419271,-0.1513870443,-0.1010483398,-24.2436218262,-4.2092692057,-163.5673522949
2.2112660408,0.1861419271,-0.1513870443,-0.1010483398,-33.5209655762,-4.5754801432,-168.7858581543
2.2138450146,0.1861419271,-0.0859573568,-0.0536850586,-33.5209655762,-4.5754801432,-168.7858581543
2.2164230347,0.1470794271,-0.0859573568,-0.0536850586,-43.5459899902,-4.7891031901,-173.5618591309
2.2190909386,0.1470794271,-0.0859573568,-0.0536850586,-43.5459899902,-4.7891031901,-173.5618591309
2.2217829227,0.1470794271,-0.0859573568,-0.0536850586,-55.2647399902,-5.0637613932,-178.2463073731
2.2243568897,0.0987395833,-0.0532425130,-0.0346420898,-53.1132507324,-5.0637613932,-178.2463073731
2.2269308567,0.0987395833,-0.0532425130,-0.0346420898,-60.9257507324,-5.5367838542,-182.9002380371
2.2296900749,0.0987395833,-0.0532425130,-0.0346420898,-62.2380065918,-5.5367838542,-182.9002380371
2.2322669029,0.0987395833,-0.0532425130,-0.0346420898,-70.0505065918,-5.3689371745,-187.0048522949
2.2353038788,0.0381927083,-0.0298050130,-0.0053452148,-70.9812927246,-5.3689371745,-187.0048522949
2.2378840446,0.0381927083,-0.0298050130,-0.0053452148,-70.9812927246,-5.5978190104,-191.3841247559
2.2404620647,0.0381927083,-0.0298050130,-0.0053452148,-79.3125915527,-5.5978190104,-191.3841247559
2.2430369854,0.0381927083,-0.0298050130,-0.0053452148,-79.3125915527,-5.5978190104,-194.9394226075
2.2456059456,-0.0013580729,0.0449020182,-0.0107163086,-85.5839538574,-4.9264322917,-194.9394226075
2.2482559681,-0.0013580729,0.0449020182,-0.0107163086,-85.5839538574,-4.9264322917,-198.0216979981
2.2508339882,-0.0013580729,0.0449020182,-0.0107163086,-89.6122741699,-5.0942789714,-198.0216979981
2.2534070015,-0.0013580729,0.0449020182,-0.0107163086,-89.6122741699,-5.0942789714,-198.0216979981
2.2559819221,-0.0413971355,0.1196090494,-0.0063217773,-90.8787536621,-4.4839274089,-202.0500183106
2.2586019039,-0.0413971355,0.1196090494,-0.0063217773,-90.8787536621,-4.4839274089,-202.0500183106
2.2611708641,-0.0413971355,0.1196090494,-0.0063217773,-90.0852966309,-3.2327067057,-205.5137634278
2.2637488842,-0.0413971355,0.1196090494,-0.0063217773,-90.0852966309,-3.2327067057,-205.5137634278
2.2663168907,-0.0843658855,0.1884567057,0.0000258790,-87.5065612793,-1.9662272136,-208.5807800293
2.2689409256,-0.0843658855,0.1884567057,0.0000258790,-87.5065612793,-1.9662272136,-208.5807800293
2.2715060711,-0.0843658855,0.1884567057,0.0000258790,-84.3174743652,-0.7455240886,-211.2815856934
2.2740750313,-0.0843658855,0.1884567057,0.0215102540,-84.3174743652,-0.7455240886,-211.2815856934
2.2766458988,-0.1195221355,0.2070113932,0.0215102540,-81.5708923340,-0.3182779948,-213.7382507325
2.2792899609,-0.1195221355,0.2070113932,0.0215102540,-81.5708923340,-0.3182779948,-213.7382507325
2.2818629742,-0.1195221355,0.2070113932,0.0215102540,-78.0766296387,0.4904378255,-215.9507751465
2.2844290733,-0.1195221355,0.2172652994,0.0366469727,-78.0766296387,0.4904378255,-215.9507751465
2.2869989872,-0.1512604167,0.2172652994,0.0366469727,-76.1082458496,1.6348470052,-217.1562194825
2.2897858620,-0.1512604167,0.2172652994,0.0366469727,-76.1082458496,1.6348470052,-217.1562194825
2.2924950123,-0.1512604167,0.2172652994,0.0366469727,-72.2019958496,2.2604573568,-218.8041687012
2.2952039242,-0.1781158855,0.2241012370,0.0571547852,-75.0859069824,2.2604573568,-218.8041687012
2.2980289459,-0.1781158855,0.2241012370,0.0571547852,-74.2161560059,2.7182210286,-220.2995300293
2.3007390499,-0.1781158855,0.2241012370,0.0571547852,-74.2161560059,2.7182210286,-220.2995300293
2.3034410477,-0.1781158855,0.2241012370,0.0571547852,-73.4074401856,3.2217610677,-221.5812683106
2.3061459064,-0.1795807292,0.2446090494,0.0517836914,-73.4074401856,3.2217610677,-221.5812683106
2.3088619709,-0.1795807292,0.2446090494,0.0517836914,-71.6831970215,3.3590901693,-223.0461120606
2.3115739822,-0.1795807292,0.2446090494,0.0517836914,-71.6831970215,3.3590901693,-223.0461120606
2.3142838478,-0.1795807292,0.2446090494,0.0688735352,-71.6831970215,3.3896077474,-223.9158630371
2.3169889450,-0.1839752605,0.2514449870,0.0688735352,-70.0047302246,3.3896077474,-223.9158630371
2.3197090626,-0.1839752605,0.2514449870,0.0688735352,-68.4483337402,2.8860677083,-224.5567321778
2.3223688602,-0.1839752605,0.2514449870,0.0688735352,-68.4483337402,2.8860677083,-224.5567321778
2.3249549866,-0.1839752605,0.2421676432,0.0732680664,-68.4483337402,2.0010579427,-225.4112243653
2.3276660442,-0.1922760417,0.2421676432,0.0732680664,-67.1818542480,2.0010579427,-225.4112243653
2.3303389549,-0.1922760417,0.2421676432,0.0732680664,-67.1818542480,1.1313069661,-226.4640808106
2.3335759640,-0.1922760417,0.2421676432,0.0732680664,-65.8390808106,1.1313069661,-226.4640808106
2.3361549377,-0.2127838542,0.2255660807,0.0835219727,-64.3132019043,0.2920735677,-227.1965026856
2.3388068676,-0.2127838542,0.2255660807,0.0835219727,-64.3132019043,0.2920735677,-227.1965026856
2.3413770199,-0.2127838542,0.2255660807,0.0835219727,-64.3132019043,-0.5624186198,-228.0815124512
2.3439400196,-0.2127838542,0.2255660807,0.0835219727,-63.6570739746,-0.5624186198,-228.0815124512
2.3465168476,-0.2293854167,0.1889449870,0.0835219727,-63.6570739746,-4.4686686198,-228.6155700684
2.3491420746,-0.2293854167,0.1889449870,0.0835219727,-64.1300964356,-2.0577799479,-228.6155700684
2.3517110348,-0.2293854167,0.1889449870,0.0835219727,-64.1300964356,-2.0577799479,-228.3866882325
2.3542900085,-0.2293854167,0.1889449870,0.0835219727,-66.2663269043,-3.0038248698,-228.3866882325
2.3568639755,-0.2523346355,0.1684371744,0.0932875977,-66.2663269043,-3.0038248698,-228.3866882325
2.3594460487,-0.2523346355,0.1684371744,0.0932875977,-69.0586853027,-3.8735758464,-228.9512634278
2.3621299267,-0.2523346355,0.1684371744,0.0932875977,-69.0586853027,-3.8735758464,-228.9512634278
2.3647089005,-0.2523346355,0.1684371744,0.0932875977,-71.6069030762,-5.0485026042,-229.4548034668
2.3672859669,-0.2528229167,0.1616012370,0.0942641602,-71.6069030762,-5.0485026042,-229.4548034668
2.3699049950,-0.2528229167,0.1616012370,0.0942641602,-73.8804626465,-6.7269694010,-229.3174743653
2.3724808693,-0.2528229167,0.1616012370,0.0942641602,-73.8804626465,-6.7269694010,-229.3174743653
2.3750638962,-0.2528229167,0.1616012370,0.0766860352,-75.6352233887,-7.9018961589,-229.4548034668
2.3776750565,-0.2533111979,0.1489059244,0.0766860352,-75.6352233887,-7.9018961589,-229.4548034668
2.3802659512,-0.2533111979,0.1489059244,0.0766860352,-77.8935241699,-8.8784586589,-229.3632507325
2.3828449249,-0.2533111979,0.1489059244,0.0766860352,-77.8935241699,-8.8784586589,-229.3632507325
2.3854229450,-0.2533111979,0.1547652994,0.0840102540,-79.6788024902,-9.7329508464,-230.1719665528
2.3881678581,-0.2782135417,0.1547652994,0.0840102540,-79.6788024902,-9.7329508464,-230.1719665528
2.3908829689,-0.2782135417,0.1547652994,0.0840102540,-79.8771667480,-10.2212320964,-230.8280944825
2.3935980797,-0.2782135417,0.1547652994,0.0840102540,-79.8771667480,-10.2212320964,-230.8280944825
2.3963148594,-0.3055572917,0.1445113932,0.0654555664,-80.1670837402,-11.1825358073,-231.3316345215
2.3990359306,-0.3055572917,0.1445113932,0.0654555664,-80.1670837402,-11.1825358073,-231.3316345215
2.4017529488,-0.3055572917,0.1445113932,0.0654555664,-81.3572692871,-11.9302164714,-231.0569763184
2.4044609070,-0.3055572917,0.1445113932,0.0654555664,-81.3572692871,-11.9302164714,-231.0569763184
2.4071669579,-0.3294830729,0.1205856120,0.0512954102,-81.5556335449,-12.3879801432,-231.1332702637
2.4098968506,-0.3294830729,0.1205856120,0.0512954102,-81.5556335449,-12.3879801432,-231.1332702637
2.4126038551,-0.3294830729,0.1205856120,0.0512954102,-82.7153015137,-12.1743570964,-230.6907653809
2.4153199196,-0.3294830729,0.1205856120,0.0390883790,-82.7153015137,-12.1743570964,-230.6907653809
2.4180400372,-0.3475494792,0.0986129557,0.0390883790,-83.8444519043,-11.5334879557,-230.7212829590
2.4207479954,-0.3475494792,0.0986129557,0.0390883790,-83.8444519043,-11.5334879557,-230.7212829590
2.4235739708,-0.3475494792,0.0986129557,0.0390883790,-84.2411804199,-11.1520182292,-230.8280944825
2.4262678623,-0.3783111979,0.0766402994,0.0205336914,-84.2411804199,-11.1520182292,-230.8280944825
2.4289970398,-0.3783111979,0.0766402994,0.0205336914,-86.0874938965,-10.3890787760,-229.7752380371
2.4315760136,-0.3783111979,0.0766402994,0.0205336914,-86.0874938965,-10.3890787760,-229.7752380371
2.4344959259,-0.3783111979,0.0766402994,0.0205336914,-88.4983825684,-10.0991617839,-229.1191101075
2.4370729923,-0.3983307292,0.0629684244,0.0190688477,-88.4983825684,-10.0991617839,-229.1191101075
2.4397358894,-0.3983307292,0.0629684244,0.0190688477,-91.1686706543,-8.6343180339,-228.1425476075
2.4423148632,-0.3983307292,0.0629684244,0.0190688477,-91.1686706543,-8.6343180339,-228.1425476075
2.4448928833,-0.3983307292,0.0629684244,0.0190688477,-95.0749206543,-6.8032633464,-226.9218444825
2.4474589825,-0.4154205729,0.0678512370,0.0063735352,-93.5948181152,-6.8032633464,-226.9218444825
2.4500830173,-0.4154205729,0.0678512370,0.0063735352,-93.5948181152,-2.8970133464,-225.7774353028
2.4526529312,-0.4154205729,0.0678512370,0.0063735352,-94.8155212402,-4.6059977214,-225.7774353028
2.4552259445,-0.4154205729,0.0678512370,0.0063735352,-94.8155212402,-4.6059977214,-223.1529235840
2.4578468800,-0.4212799479,0.0912887370,0.0005141602,-95.4258728027,-3.0038248698,-223.1529235840
2.4604220390,-0.4212799479,0.0912887370,0.0005141602,-95.4258728027,-3.0038248698,-219.2466735840
2.4629950523,-0.4212799479,0.0912887370,0.0005141602,-98.1114196777,-2.4850260417,-219.4145202637
2.4655649662,-0.4212799479,0.0912887370,0.0005141602,-98.1114196777,-2.4850260417,-219.4145202637
2.4681818485,-0.3973541667,0.1357223307,-0.0229233398,-96.5245056152,-1.0049235026,-215.2488708496
2.4707539082,-0.3973541667,0.1357223307,-0.0229233398,-96.5245056152,-1.0049235026,-215.2488708496
2.4733269215,-0.3973541667,0.1357223307,-0.0229233398,-91.6264343262,3.5727132161,-210.4423522949
2.4758980274,-0.3973541667,0.1357223307,-0.0610092773,-91.6264343262,3.5727132161,-210.4423522949
2.4785330296,-0.4071197917,0.1625777994,-0.0610092773,-87.8880310059,7.1280110677,-203.4690856934
2.4811148643,-0.4071197917,0.1625777994,-0.0610092773,-87.8880310059,7.1280110677,-203.4690856934
2.4836859703,-0.4071197917,0.1625777994,-0.0610092773,-87.6286315918,8.6691487630,-195.6108093262
2.4862639904,-0.4071197917,0.1625777994,-0.0322006836,-87.6286315918,8.6691487630,-195.6108093262
2.4890089035,-0.3729401042,0.1493942057,-0.0322006836,-87.2319030762,9.5999348958,-188.2865905762
2.4918289185,-0.3729401042,0.1493942057,-0.0322006836,-87.2319030762,9.5999348958,-188.2865905762
2.4945380688,-0.3729401042,0.1493942057,-0.0322006836,-86.4994812012,9.9508870443,-181.0844421387
2.4972419739,-0.3133697917,0.2465621744,0.0302993164,-86.4994812012,9.9508870443,-181.0844421387
2.4999520779,-0.3133697917,0.2465621744,0.0302993164,-83.1578063965,9.7677815755,-173.3024597168
2.5026528835,-0.3133697917,0.2465621744,0.0302993164,-83.1578063965,9.7677815755,-173.3024597168
2.5053620338,-0.3133697917,0.2465621744,0.0302993164,-80.3349304199,8.1350911458,-164.8796081543
2.5080819130,-0.1834869792,0.3671676432,0.0991469727,-80.3349304199,8.1350911458,-164.8796081543
2.5107829571,-0.1834869792,0.3671676432,0.0991469727,-76.7643737793,5.1748860677,-157.0060729981
2.5134830475,-0.1834869792,0.3671676432,0.0991469727,-76.7643737793,5.1748860677,-157.0060729981
2.5161919594,-0.1834869792,0.3671676432,0.1904555664,-69.6995544434,0.7650960286,-149.3309020996
2.5188510418,-0.0775299479,0.4902145182,0.1904555664,-69.6995544434,0.7650960286,-149.3309020996
2.5214269161,-0.0775299479,0.4902145182,0.1904555664,-56.6075134277,-3.9346110026,-140.2519226075
2.5240058899,-0.0775299479,0.4902145182,0.1904555664,-56.6075134277,-3.9346110026,-140.2519226075
2.5265789032,-0.0775299479,0.6152145182,0.1831313477,-37.0762634277,-8.7563883464,-129.9827575684
2.5292580128,-0.0101471355,0.6684371744,0.1831313477,-38.7242126465,-8.7563883464,-129.9827575684
2.5319609642,-0.0101471355,0.6684371744,0.1831313477,-19.1929626465,-13.0746256510,-118.9048767090
2.5346679688,-0.0101471355,0.6684371744,0.1831313477,-19.0861511230,-13.0746256510,-118.9048767090
2.5373718739,0.0259856771,0.7480270182,0.1025649414,0.4450988770,-16.6604410807,-105.7823181153
2.5400879383,0.0259856771,0.7480270182,0.1025649414,-0.1805114746,-16.6604410807,-105.7823181153
2.5427958965,0.0259856771,0.7480270182,0.1025649414,18.9234924316,-19.1934000651,-92.0341491699
2.5455999374,0.0259856771,0.7480270182,0.1025649414,18.9234924316,-19.1934000651,-92.0341491699
2.5484058857,0.0015716145,0.6957809244,0.0298110352,36.6694641113,-19.8190104167,-78.1333923340
2.5511338711,0.0015716145,0.6957809244,0.0298110352,36.6694641113,-19.8190104167,-78.1333923340
2.5538408756,0.0015716145,0.6957809244,0.0298110352,49.5631408691,-18.3999430339,-64.8429870606
2.5566630363,0.0015716145,0.6957809244,-0.0155991210,49.5631408691,-18.3999430339,-64.8429870606
2.5594198704,-0.0848541667,0.5976363932,-0.0155991210,58.1690979004,-15.5618082682,-50.4386901856
2.5621259212,-0.0848541667,0.5976363932,-0.0155991210,58.1690979004,-15.5618082682,-50.4386901856
2.5648329258,-0.0848541667,0.5976363932,-0.0155991210,61.8312072754,-12.0828043620,-36.3548278809
2.5675480366,-0.1034088542,0.5180465494,-0.0722397460,61.8312072754,-12.0828043620,-36.3548278809
2.5701279640,-0.1034088542,0.5180465494,-0.0722397460,61.8312072754,-7.0626627604,-23.5832214356
2.5727028847,-0.1034088542,0.5180465494,-0.0722397460,61.9837951660,-7.0626627604,-23.5832214356
2.5752758980,-0.1034088542,0.5180465494,-0.0722397460,61.9837951660,-3.1564127604,-10.8573913575
2.5778660774,-0.1048736979,0.4526168620,-0.1030014648,59.1609191894,-1.9662272136,-10.8573913575
2.5804450512,-0.1048736979,0.4526168620,-0.1030014648,59.1609191894,-1.9662272136,2.5550842285
2.5830159187,-0.1048736979,0.4526168620,-0.1030014648,54.1255187988,3.1607259114,2.5550842285
2.5855920315,-0.1048736979,0.4526168620,-0.1030014648,54.1255187988,3.1607259114,18.1800842285
2.5882148743,-0.0926666667,0.4252731120,-0.1186264648,47.3353576660,6.9296468099,16.4710998535
2.5907900333,-0.0926666667,0.4252731120,-0.1186264648,47.3353576660,6.9296468099,16.4710998535
2.5933659077,-0.0926666667,0.4252731120,-0.1186264648,38.7599182129,9.9966634114,29.6241760254
2.5959448814,-0.0926666667,0.4252731120,-0.1186264648,38.7599182129,9.9966634114,29.6241760254
2.5986859798,-0.0946197917,0.3793746744,-0.0951889648,28.9027404785,11.9192708333,42.2584533691
2.6012599468,-0.0946197917,0.3793746744,-0.0951889648,28.9027404785,11.9192708333,42.2584533691
2.6038339138,-0.0946197917,0.3793746744,-0.0951889648,19.6864318848,12.8500569661,54.8774719238
2.6064119339,-0.0946197917,0.3793746744,-0.0951889648,19.6864318848,12.8500569661,54.8774719238
2.6091558933,-0.0999908855,0.3388473307,-0.0566147460,10.6837463379,13.4451497396,66.5657043457
2.6118569374,-0.0999908855,0.3388473307,-0.0566147460,10.6837463379,13.4451497396,66.5657043457
2.6145570278,-0.0999908855,0.3388473307,-0.0566147460,2.5813293457,12.9416097005,77.4909973144
2.6172568798,-0.0999908855,0.3388473307,0.0713149414,2.5813293457,12.9416097005,77.4909973144
2.6199948788,-0.1029205729,0.1616012370,0.0713149414,-4.9565124512,9.8593343099,81.3056945801
2.6225659847,-0.1029205729,0.1616012370,0.0713149414,-4.9565124512,9.8593343099,81.3056945801
2.6251380444,-0.1029205729,0.1616012370,0.0713149414,-13.7913513184,3.3743489583,76.8959045410
2.6277909279,-0.1029205729,-0.2763870443,0.1909438477,-13.7913513184,3.3743489583,76.8959045410
2.6304869652,-0.1556549479,-0.2763870443,0.1909438477,-26.2272644043,4.5645345052,78.3302307129
2.6331889629,-0.1556549479,-0.2763870443,0.1909438477,-26.2272644043,4.5645345052,78.3302307129
2.6358990669,-0.1556549479,-0.2763870443,0.1909438477,-25.1438903809,5.7699788411,75.3395080566
2.6386110783,-0.2039947917,-1.0190628256,0.0351821290,-25.1438903809,5.7699788411,75.3395080566
2.6413118839,-0.2039947917,-1.0190628256,0.0351821290,-31.9035339356,8.3334554036,63.7733459472
2.6440150738,-0.2039947917,-1.0190628256,0.0351821290,-31.9035339356,8.3334554036,63.7733459472
2.6467258930,-0.2039947917,-1.0190628256,0.0351821290,-41.3639831543,15.0473225911,54.7248840332
2.6494479179,-0.3744049479,-1.3935745443,-0.3779038086,-41.3639831543,15.0473225911,54.7248840332
2.6521458626,-0.3744049479,-1.3935745443,-0.3779038086,-54.4102478027,18.2364095052,53.3515930175
2.6548550129,-0.3744049479,-1.3935745443,-0.3779038086,-54.4102478027,18.2364095052,53.3515930175
2.6575739384,-0.3744049479,-1.3935745443,-0.3583725586,-80.5027770996,17.0462239583,60.7521057129
2.6601510048,-0.2948151042,-0.7114456380,-0.3583725586,-80.5027770996,17.0462239583,60.7521057129
2.6627240181,-0.2948151042,-0.7114456380,-0.3583725586,-111.4476013184,14.9710286458,75.4920959472
2.6655209064,-0.2948151042,-0.7114456380,-0.3583725586,-111.4476013184,14.9710286458,75.4920959472
2.6684439182,-0.3011627605,-0.0537307943,-0.1840561523,-127.4540710449,14.9252522786,89.1944885254
2.6711509228,-0.3011627605,-0.0537307943,-0.1840561523,-127.4540710449,14.9252522786,89.1944885254
2.6738600731,-0.3011627605,-0.0537307943,-0.1840561523,-129.4682312012,14.5132649740,97.6020812988
2.6765639782,-0.3011627605,-0.0537307943,-0.1840561523,-129.4682312012,14.5132649740,97.6020812988
2.6792888641,-0.3241119792,0.2353317057,0.0093032227,-130.0633239746,10.8358968099,100.1808166504
2.6819989681,-0.3241119792,0.2353317057,0.0093032227,-130.0633239746,10.8358968099,100.1808166504
2.6848170757,-0.3241119792,0.2353317057,0.0093032227,-125.6077575684,2.6114095052,100.3181457519
2.6875329018,-0.3241119792,0.2353317057,0.0093032227,-125.6077575684,2.6114095052,100.3181457519
2.6902480125,-0.2791901042,0.1796676432,0.0327407227,-110.1506042480,-4.3923746745,99.4636535644
2.6929609776,-0.2791901042,0.1796676432,0.0327407227,-110.1506042480,-4.3923746745,99.4636535644
2.6956648827,-0.2791901042,0.1796676432,0.0327407227,-86.8046569824,-6.8490397136,99.2500305175
2.6983819008,-0.2791901042,0.1738082682,-0.1952866210,-86.8046569824,-6.8490397136,99.2500305175
2.7009580135,-0.2528229167,0.1738082682,-0.1952866210,-64.7709655762,-7.0626627604,97.1443176269
2.7035329342,-0.2528229167,0.1738082682,-0.1952866210,-64.7709655762,-7.0626627604,97.1443176269
2.7061128616,-0.2528229167,0.1738082682,-0.1952866210,-45.2397155762,-8.1307779948,92.8260803222
2.7086930275,-0.1278229167,0.1327926432,-0.2221420898,-46.1552429199,-8.1307779948,92.8260803222
2.7112710476,-0.1605377605,0.1327926432,-0.2221420898,-46.1552429199,-12.0370279948,86.4784240722
2.7138490677,-0.1605377605,0.1327926432,-0.2221420898,-32.9106140137,-11.0604654948,86.4784240722
2.7164289951,-0.1605377605,0.1327926432,-0.2221420898,-32.9106140137,-11.0604654948,79.6272277832
2.7191500664,-0.0814361979,-0.0019729818,-0.0317124023,-24.4877624512,-15.0277506510,79.6272277832
2.7217309475,-0.0814361979,-0.0019729818,-0.0317124023,-24.4877624512,-15.0277506510,75.7209777832
2.7243039608,-0.0814361979,-0.0019729818,-0.0317124023,-19.6202087402,-20.1852213542,74.1950988769
2.7268838882,-0.0814361979,-0.0019729818,-0.0317124023,-19.6202087402,-20.1852213542,70.2888488769
2.7296319008,-0.0804596355,-0.0444534506,0.1011000977,-17.0719909668,-23.1759440104,70.5329895019
2.7322080135,-0.0804596355,-0.0444534506,0.1011000977,-17.0719909668,-23.1759440104,70.5329895019
2.7347810268,-0.0804596355,-0.0444534506,0.1011000977,-17.3161315918,-22.7181803386,66.7945861816
2.7373619080,-0.0804596355,-0.0444534506,0.1011000977,-17.3161315918,-22.7181803386,66.7945861816
2.7400889397,-0.1151276042,-0.0263870443,0.1201430664,-20.4594421387,-21.9247233073,63.3460998535
2.7426588535,-0.1151276042,-0.0263870443,0.1201430664,-20.4594421387,-21.9247233073,63.3460998535
2.7452318668,-0.1151276042,-0.0263870443,0.1201430664,-24.7929382324,-21.0397135417,60.7521057129
2.7479610443,-0.1151276042,-0.0263870443,0.1201430664,-24.7929382324,-21.0397135417,60.7521057129
2.7505359650,-0.1361236979,0.0160934244,0.1469985352,-27.8599548340,-20.4141031901,59.8670959472
2.7530989647,-0.1361236979,0.0160934244,0.1469985352,-27.8599548340,-20.4141031901,59.8670959472
2.7556688786,-0.1361236979,0.0160934244,0.1469985352,-28.8517761230,-19.2544352214,59.0888977051
2.7582459450,-0.1361236979,0.0160934244,0.1469985352,-28.8517761230,-19.2544352214,59.0888977051
2.7608208656,-0.1439361979,0.1039840494,0.1699477540,-26.7918395996,-17.8353678386,58.1428527832
2.7633919716,-0.1439361979,0.1039840494,0.1699477540,-26.7918395996,-17.8353678386,58.1428527832
2.7659649849,-0.1439361979,0.1039840494,0.1699477540,-22.8855895996,-15.6838785807,55.7624816894
2.7686300278,-0.1439361979,0.1039840494,0.1684829102,-23.0076599121,-15.6838785807,55.7624816894
2.7712049484,-0.1200104167,0.1127731120,0.1684829102,-23.0076599121,-15.6838785807,52.1461486816
2.7737779617,-0.1200104167,0.1127731120,0.1684829102,-18.0332946777,-14.8141276042,52.1461486816
2.7763540745,-0.1200104167,0.1127731120,0.1684829102,-18.0332946777,-14.8141276042,47.7821350097
2.7790479660,-0.1200104167,0.1347457682,0.1059829102,-13.8066101074,-14.4173990886,47.7821350097
2.7817509174,-0.0951080729,0.1347457682,0.1059829102,-13.8066101074,-14.4173990886,43.3570861816
2.7846760750,-0.0951080729,0.1347457682,0.1059829102,-8.6643981934,-12.5863444010,43.3570861816
2.7878038883,-0.0951080729,0.1347457682,0.1059829102,-4.7581481934,-9.7787272136,36.8263244629
2.7905168533,-0.0702057292,0.0502731120,-0.0063217773,-1.9200134277,-9.7787272136,36.8263244629
2.7932219505,-0.0702057292,0.0502731120,-0.0063217773,5.8924865723,-8.2986246745,30.5549621582
2.7959358692,-0.0702057292,0.0502731120,-0.0063217773,5.1142883301,-8.2986246745,30.5549621582
2.7986569405,-0.0702057292,0.0502731120,-0.1313217773,9.0205383301,-8.2223307292,25.4737854004
2.8013648987,-0.0453033855,0.0366012370,-0.0478256836,9.9665832520,-8.2223307292,25.4737854004
2.8040819168,-0.0453033855,0.0366012370,-0.0478256836,13.8728332520,-9.8397623698,20.6367492675
2.8067929745,-0.0453033855,0.0366012370,-0.0478256836,12.4079895020,-9.8397623698,20.6367492675
2.8094270229,-0.0453033855,0.0160934244,-0.0258530273,12.4079895020,-11.1977945964,15.5708312988
2.8121140003,-0.0550690105,0.0160934244,-0.0258530273,16.1921691894,-11.1977945964,15.5708312988
2.8146948814,-0.0550690105,0.0160934244,-0.0258530273,16.1921691894,-11.1977945964,10.4591369629
2.8172788620,-0.0550690105,0.0160934244,-0.0258530273,20.2204895020,-11.1367594401,10.4591369629
2.8199079037,-0.0824127605,0.0112106120,-0.0151108398,20.2204895020,-11.1367594401,5.9425354004
2.8224868774,-0.0824127605,0.0112106120,-0.0151108398,23.4400939941,-11.1672770182,5.9425354004
2.8250670433,-0.0824127605,0.0112106120,-0.0151108398,23.4400939941,-11.1672770182,2.0362854004
2.8276460171,-0.0824127605,0.0112106120,-0.0151108398,25.6068420410,-11.3198649089,2.3262023925
2.8302209377,-0.0863190105,-0.0385940756,-0.0224350586,25.6068420410,-11.3198649089,2.3262023925
2.8327949047,-0.0863190105,-0.0385940756,-0.0224350586,26.0188293457,-11.8234049479,-0.3746032715
2.8364849091,-0.0863190105,-0.0385940756,-0.0224350586,26.0188293457,-11.8234049479,-2.2514343262
2.8390629292,-0.0863190105,-0.0385940756,-0.0224350586,23.7452697754,-12.2506510417,-2.2514343262
2.8416378498,-0.0804596355,-0.0849807943,-0.0268295898,23.7452697754,-12.2506510417,-3.3805847168
2.8442089558,-0.0804596355,-0.0849807943,-0.0268295898,20.3120422363,-13.3798014323,-3.3805847168
2.8467779160,-0.0804596355,-0.0849807943,-0.0268295898,20.3120422363,-13.3798014323,-3.3805847168
2.8493790627,-0.0804596355,-0.0849807943,-0.0141342773,15.1545715332,-14.3716227214,-3.5179138184
2.8519530296,-0.0721588542,-0.1084182943,-0.0141342773,15.1545715332,-14.3716227214,-3.5179138184
2.8545198441,-0.0721588542,-0.1084182943,-0.0141342773,9.9055480957,-14.6005045573,-3.4721374512
2.8570899963,-0.0721588542,-0.1084182943,-0.0141342773,9.9055480957,-14.6005045573,-3.4721374512
2.8597118855,-0.0721588542,-0.1084182943,0.0078383790,5.0074768066,-14.8446451823,-3.2127380371
2.8622829914,-0.0594635417,-0.1176956380,0.0078383790,5.0074768066,-14.8446451823,-3.2127380371
2.8648519516,-0.0594635417,-0.1176956380,0.0078383790,0.4145812988,-15.1193033854,-3.4111022949
2.8674199581,-0.0594635417,-0.1176956380,0.0078383790,0.4145812988,-15.1193033854,-3.4111022949
2.8699998856,-0.0594635417,-0.1162307943,0.0273696290,-3.6747741699,-15.1955973307,-3.4111022949
2.8725678921,-0.0658111979,-0.1162307943,0.0273696290,-3.6747741699,-15.1955973307,-3.4111022949
2.8752460480,-0.0658111979,-0.1162307943,0.0273696290,-5.7804870606,-14.4936930339,-3.0754089356
2.8779799938,-0.0658111979,-0.1162307943,0.0273696290,-5.7804870606,-14.4936930339,-3.0754089356
2.8805520535,-0.0594635417,-0.1025589193,0.0425063477,-6.6349792480,-13.5629069010,-3.2890319825
2.8831169605,-0.0594635417,-0.1025589193,0.0425063477,-6.6349792480,-13.5629069010,-3.2890319825
2.8856859207,-0.0594635417,-0.1025589193,0.0425063477,-6.6349792480,-12.2964274089,-3.8230895996
2.8883450031,-0.0594635417,-0.1025589193,0.0425063477,-7.2911071777,-12.2964274089,-3.8230895996
2.8909158707,-0.0614166667,-0.0913284506,0.0571547852,-7.2911071777,-12.2964274089,-4.1740417481
2.8934829235,-0.0614166667,-0.0913284506,0.0571547852,-6.9554138184,-10.9994303386,-4.1740417481
2.8960499763,-0.0614166667,-0.0913284506,0.0571547852,-6.9554138184,-10.9994303386,-4.8301696778
2.8986239433,-0.0614166667,-0.0913284506,0.0571547852,-5.2616882324,-9.8855387370,-4.8301696778
2.9011929035,-0.0511627605,-0.0791214193,0.0576430664,-5.2616882324,-9.8855387370,-4.8301696778
2.9037609100,-0.0511627605,-0.0791214193,0.0576430664,-3.3238220215,-9.2904459636,-5.3642272949
2.9063289165,-0.0511627605,-0.0791214193,0.0576430664,-3.3238220215,-9.2904459636,-5.3642272949
2.9089438915,-0.0511627605,-0.0791214193,0.0576430664,-0.2720642090,-8.1460367839,-6.1271667481
2.9115109444,-0.0482330729,-0.0664261068,0.0674086914,-0.2720642090,-8.1460367839,-6.1271667481
2.9140889645,-0.0482330729,-0.0664261068,0.0674086914,4.4886779785,-6.7422281901,-8.2786560059
2.9166588783,-0.0482330729,-0.0664261068,0.0674086914,4.4886779785,-6.7422281901,-8.2786560059
2.9193210602,-0.0482330729,-0.0664261068,0.0674086914,9.6919250488,-5.4299723307,-10.0486755371
2.9218919277,-0.0560455729,-0.0630081380,0.0595961914,9.6919250488,-5.4299723307,-10.0486755371
2.9244599342,-0.0560455729,-0.0630081380,0.0595961914,14.6815490723,-4.9722086589,-11.3914489746
2.9270339012,-0.0560455729,-0.0630081380,0.0595961914,14.6815490723,-4.9722086589,-11.3914489746
2.9296150208,-0.0560455729,-0.0630081380,0.0595961914,20.3273010254,-5.0179850260,-12.3832702637
2.9321868420,-0.0448151042,-0.0600784506,0.0561782227,20.3273010254,-5.0179850260,-12.3832702637
2.9347598553,-0.0448151042,-0.0600784506,0.0561782227,24.2335510254,-5.0942789714,-13.0699157715
2.9374530315,-0.0448151042,-0.0600784506,0.0561782227,24.7676086426,-5.0942789714,-13.0699157715
2.9400858879,-0.0448151042,-0.0600784506,0.0610610352,24.7676086426,-4.8043619792,-13.7565612793
2.9426610470,-0.0453033855,-0.0678909506,0.0610610352,27.7278137207,-4.8043619792,-13.7565612793
2.9453649521,-0.0453033855,-0.0678909506,0.0610610352,27.7278137207,-0.8981119792,-14.0159606934
2.9487540722,-0.0453033855,-0.0678909506,0.0610610352,30.0166320801,-4.7128092448,-14.0159606934
2.9513299465,-0.0384674479,-0.0752151693,0.0517836914,30.9321594238,-4.2550455729,-13.8175964356
2.9539010525,-0.0384674479,-0.0752151693,0.0517836914,30.9321594238,-4.2550455729,-13.8175964356
2.9564659595,-0.0384674479,-0.0752151693,0.0517836914,30.9321594238,-4.6975504557,-12.9173278809
2.9590480328,-0.0384674479,-0.0752151693,0.0517836914,31.9850158691,-4.6975504557,-12.9173278809
2.9616210461,-0.0531158855,-0.1040237630,0.0469008790,31.9850158691,-8.6038004557,-12.2459411621
2.9641940594,-0.0531158855,-0.1040237630,0.0469008790,30.5659484863,-4.8043619792,-12.2459411621
2.9667689800,-0.0531158855,-0.1040237630,0.0469008790,30.5659484863,-4.8043619792,-11.4830017090
2.9693689346,-0.0531158855,-0.1040237630,0.0469008790,29.2079162598,-4.5907389323,-11.4830017090
2.9719450474,-0.0438385417,-0.1030472006,0.0415297852,29.2079162598,-4.5907389323,-11.4830017090
2.9745190144,-0.0438385417,-0.1030472006,0.0415297852,27.8651428223,-4.6670328776,-9.2704772949
2.9770970345,-0.0438385417,-0.1030472006,0.0415297852,27.8651428223,-4.6670328776,-9.2704772949
2.9797098637,-0.0438385417,-0.1030472006,0.0415297852,25.1033020020,-4.9111735026,-6.7680358887
2.9822800159,-0.0501861979,-0.0791214193,0.0366469727,25.1033020020,-4.9111735026,-6.7680358887
2.9848499298,-0.0501861979,-0.0791214193,0.0366469727,22.9670715332,-4.8959147136,-4.6470642090
2.9874229431,-0.0501861979,-0.0791214193,0.0366469727,22.9670715332,-4.8959147136,-4.6470642090
2.9900059700,-0.0501861979,-0.0791214193,0.0366469727,22.1583557129,-5.0179850260,-3.4721374512
2.9925758839,-0.0584869792,-0.0805862630,0.0386000977,22.1583557129,-5.0179850260,-3.4721374512
2.9951510429,-0.0584869792,-0.0805862630,0.0386000977,23.5163879394,-4.7738444010,-3.0601501465
2.9979140759,-0.0584869792,-0.0805862630,0.0386000977,23.5163879394,-4.7738444010,-3.0601501465
3.0006048679,-0.0584869792,-0.0805862630,0.0386000977,25.6068420410,-4.6975504557,-2.8617858887
3.0031878948,-0.0658111979,-0.0708206380,0.0366469727,25.6068420410,-4.6975504557,-2.8617858887
3.0057609081,-0.0658111979,-0.0708206380,0.0366469727,27.6667785644,-4.1940104167,-2.0835876465
3.0084919930,-0.0658111979,-0.0708206380,0.0366469727,27.6667785644,-4.1940104167,-2.0835876465
3.0110709667,-0.0658111979,-0.0708206380,0.0542250977,29.8182678223,-4.2855631510,-1.9004821778
3.0136470795,-0.0575104167,-0.0703323568,0.0542250977,29.8182678223,-4.2855631510,-1.9004821778
3.0162279606,-0.0575104167,-0.0703323568,0.0542250977,29.8182678223,-3.3547770182,-0.0541687012
3.0188739300,-0.0575104167,-0.0703323568,0.0542250977,33.3430480957,-3.3547770182,-0.0541687012
3.0215649605,-0.0575104167,-0.0918167318,0.0635024414,33.3430480957,-1.8594156901,0.5714416504
3.0242538452,-0.0662994792,-0.0918167318,0.0635024414,37.8291320801,-1.8594156901,0.5714416504
3.0269370079,-0.0662994792,-0.0918167318,0.0635024414,37.8291320801,2.0468343099,0.7545471191
3.0296359062,-0.0662994792,-0.0918167318,0.0635024414,40.1332092285,-0.3945719401,0.7545471191
3.0323300362,-0.0975494792,-0.1294143880,0.0454360352,40.1332092285,-0.3945719401,1.7158508301
3.0350189209,-0.0975494792,-0.1294143880,0.0454360352,38.7446594238,0.3073323568,1.7158508301
3.0379998684,-0.0975494792,-0.1294143880,0.0454360352,38.7446594238,0.0174153646,2.5398254394
3.0406680107,-0.0975494792,-0.1294143880,0.0454360352,35.6929016113,0.0174153646,2.5398254394
3.0441820621,-0.0711822917,-0.0732620443,0.0366469727,32.1376037598,0.3531087240,4.7676086425
3.0467610359,-0.0711822917,-0.0732620443,0.0366469727,32.1376037598,0.3531087240,4.7676086425
3.0493948460,-0.0711822917,-0.0732620443,0.0366469727,30.2607727051,0.9329427083,6.4308166504
3.0519690514,-0.0711822917,-0.0366409506,0.0293227540,30.2607727051,0.9329427083,6.4308166504
3.0545380116,-0.0599518229,-0.0366409506,0.0293227540,26.3545227051,1.6501057943,7.6362609863
3.0571129322,-0.0599518229,-0.0366409506,0.0293227540,28.4449768066,1.6501057943,7.6362609863
3.0597319603,-0.0599518229,-0.0366409506,0.0293227540,28.4449768066,1.6501057943,8.2160949707
3.0623018742,-0.0609283855,-0.0605667318,0.0405532227,25.8662414551,2.1078694661,8.2160949707
3.0649769306,-0.0609283855,-0.0605667318,0.0405532227,25.8662414551,2.1078694661,9.5283508301
3.0675458908,-0.0609283855,-0.0605667318,0.0405532227,23.5469055176,1.9705403646,9.5283508301
3.0701198578,-0.0609283855,-0.0605667318,0.0405532227,23.5469055176,1.9705403646,9.5283508301
3.0726978779,-0.0643463542,-0.0410354818,0.0376235352,21.9905090332,1.8942464193,9.8487854004
3.0752689838,-0.0643463542,-0.0410354818,0.0376235352,21.9905090332,1.8942464193,9.8487854004
3.0778429508,-0.0643463542,-0.0410354818,0.0376235352,20.3883361816,1.9400227864,10.9931945801
3.0804190636,-0.0643463542,-0.0410354818,0.0376235352,20.3883361816,1.9400227864,10.9931945801
3.0829880238,-0.0540924479,-0.0107620443,0.0381118164,19.2439270020,2.5656331380,11.9087219238
3.0855619907,-0.0540924479,-0.0107620443,0.0381118164,19.2439270020,2.5656331380,11.9087219238
3.0883190632,-0.0540924479,-0.0107620443,0.0381118164,18.9540100098,2.4740804036,11.7866516113
3.0908939838,-0.0540924479,-0.0107620443,0.0381118164,18.9540100098,2.4740804036,11.7866516113
3.0934729576,-0.0506744792,-0.0210159506,0.0508071290,19.0913391113,2.5503743490,12.1833801269
3.0960509777,-0.0506744792,-0.0210159506,0.0508071290,19.0913391113,2.5503743490,12.1833801269
3.0987110138,-0.0506744792,-0.0210159506,0.0508071290,19.3354797363,2.7029622396,12.5038146972
3.1012849808,-0.0506744792,-0.0210159506,0.0508071290,19.3354797363,2.7029622396,12.5038146972
3.1038570404,-0.0599518229,-0.0210159506,0.0615493164,20.0679016113,2.5503743490,12.7021789551
3.1064300537,-0.0599518229,-0.0210159506,0.0615493164,20.0679016113,2.5503743490,12.7021789551
3.1090948582,-0.0599518229,-0.0210159506,0.0615493164,20.8613586426,3.0233968099,12.3054504394
3.1118030548,-0.0599518229,-0.0210159506,0.0473891602,20.8613586426,3.0233968099,12.3054504394
3.1145038605,-0.0628815105,-0.0122268880,0.0473891602,22.2651672363,3.1759847005,12.0002746582
3.1172039509,-0.0628815105,-0.0122268880,0.0473891602,22.2651672363,3.1759847005,12.0002746582
3.1199200153,-0.0628815105,-0.0122268880,0.0473891602,23.0738830566,3.5269368490,12.1833801269
3.1226229668,-0.0628815105,-0.0078323568,0.0547133790,23.0738830566,3.5269368490,12.1833801269
3.1253299713,-0.0555572917,-0.0078323568,0.0547133790,23.3638000488,3.8778889974,13.2209777832
3.1281509399,-0.0555572917,-0.0078323568,0.0547133790,23.3638000488,3.8778889974,13.2209777832
3.1308560371,-0.0555572917,-0.0078323568,0.0547133790,23.1349182129,3.9236653646,13.5719299316
3.1335589886,-0.0658111979,-0.0317581380,0.0512954102,23.1349182129,3.9236653646,13.5719299316
3.1362600327,-0.0658111979,-0.0317581380,0.0512954102,22.1583557129,3.8015950521,13.4956359863
3.1390080452,-0.0658111979,-0.0317581380,0.0512954102,22.1583557129,3.8015950521,13.4956359863
3.1417100430,-0.0658111979,-0.0317581380,0.0512954102,20.3273010254,4.0304768880,14.4874572754
3.1444149017,-0.0692291667,-0.0175979818,0.0420180664,20.3273010254,4.0304768880,14.4874572754
3.1471199989,-0.0692291667,-0.0175979818,0.0420180664,19.1523742676,4.1372884114,15.3572082519
3.1497290134,-0.0692291667,-0.0175979818,0.0420180664,19.1523742676,4.1372884114,15.3572082519
3.1523108482,-0.0692291667,-0.0175979818,0.0249282227,18.3436584473,4.4119466146,15.4640197754
3.1552350521,-0.0780182292,-0.0127151693,0.0249282227,18.3436584473,4.4119466146,15.4640197754
3.1579558849,-0.0780182292,-0.0127151693,0.0249282227,17.9774475098,4.4577229818,15.8149719238
3.1606609821,-0.0780182292,-0.0127151693,0.0249282227,17.9774475098,4.4577229818,15.8149719238
3.1632330418,-0.0755768229,0.0048629557,0.0302993164,14.0711975098,4.3203938802,16.0591125488
3.1658918858,-0.0755768229,0.0048629557,0.0302993164,17.5044250488,4.3203938802,16.0591125488
3.1684679985,-0.0755768229,0.0048629557,0.0302993164,17.5044250488,4.3203938802,16.5321350097
3.1710400581,-0.0755768229,0.0048629557,0.0302993164,17.2755432129,4.0915120443,16.5321350097
3.1736118793,-0.0545807292,0.0273238932,0.0386000977,17.2755432129,4.0915120443,17.2798156738
3.1762678623,-0.0545807292,0.0273238932,0.0386000977,17.3518371582,3.8168538411,17.2798156738
3.1788430214,-0.0545807292,0.0273238932,0.0386000977,17.3518371582,3.8168538411,17.2798156738
3.1814129353,-0.0545807292,0.0273238932,0.0386000977,17.4433898926,3.5421956380,18.5462951660
3.1839828491,-0.0360260417,0.0444137370,0.0332290040,17.4433898926,3.5421956380,18.5462951660
3.1866579056,-0.0360260417,0.0444137370,0.0332290040,18.2368469238,3.7863362630,19.1108703613
3.1892290115,-0.0360260417,0.0444137370,0.0332290040,18.2368469238,3.7863362630,19.1108703613
3.1917970181,-0.0360260417,0.0444137370,0.0332290040,19.9153137207,4.0304768880,19.2481994629
3.1944849491,-0.0521393229,0.0468551432,0.0410415040,19.9153137207,4.0304768880,19.2481994629
3.1970548630,-0.0521393229,0.0468551432,0.0410415040,21.5480041504,4.4272054036,19.4007873535
3.1996309757,-0.0521393229,0.0468551432,0.0410415040,21.5480041504,4.4272054036,19.4007873535
3.2021958828,-0.0521393229,0.0468551432,0.0410415040,23.2875061035,4.5645345052,20.9571838379
3.2047948837,-0.0506744792,0.0366012370,0.0469008790,23.2875061035,4.5645345052,20.9571838379
3.2073619366,-0.0506744792,0.0366012370,0.0469008790,23.2875061035,4.5187581380,22.5135803222
3.2100570202,-0.0506744792,0.0366012370,0.0469008790,23.2875061035,4.5187581380,22.5135803222
3.2126250267,-0.0506744792,0.0366012370,0.0566665040,23.0586242676,4.8544514974,24.3293762207
3.2151908875,-0.0619049479,0.0170699870,0.0566665040,23.0586242676,4.8544514974,24.3293762207
3.2179129124,-0.0619049479,0.0170699870,0.0566665040,22.3719787598,4.9307454427,26.2367248535
3.2204840183,-0.0619049479,0.0170699870,0.0566665040,22.3719787598,4.9307454427,26.2367248535
3.2230548859,-0.0619049479,0.0170699870,0.0581313477,22.3719787598,5.5410970052,27.6405334472
3.2256250381,-0.0687408855,0.0258590494,0.0581313477,21.5632629394,5.5410970052,27.6405334472
3.2282209396,-0.0687408855,0.0258590494,0.0581313477,21.5632629394,5.5410970052,29.6089172363
3.2307858467,-0.0687408855,0.0258590494,0.0581313477,20.8155822754,5.7547200521,29.6089172363
3.2333569527,-0.0687408855,0.0126754557,0.0693618164,20.8155822754,5.7547200521,33.5151672363
3.2359230518,-0.0716705729,0.0126754557,0.0693618164,19.0150451660,5.7242024740,32.3402404785
3.2385878563,-0.0716705729,0.0126754557,0.0693618164,19.0150451660,5.7242024740,32.3402404785
3.2412929535,-0.0716705729,0.0126754557,0.0693618164,17.0619201660,5.8004964193,34.6748352051
3.2439930439,-0.0838776042,0.0185348307,0.0820571290,17.0619201660,5.8004964193,34.6748352051
3.2466959953,-0.0838776042,0.0185348307,0.0820571290,16.2532043457,5.8767903646,36.2007141113
3.2493259907,-0.0838776042,0.0185348307,0.0820571290,16.2532043457,5.8767903646,36.2007141113
3.2518968582,-0.0838776042,0.0185348307,0.0820571290,15.6428527832,6.4108479818,37.2535705566
3.2544729710,-0.0863190105,0.0751754557,0.0586196290,15.6428527832,6.4108479818,37.2535705566
3.2571549416,-0.0863190105,0.0751754557,0.0586196290,15.8106994629,6.3955891927,38.0775451660
3.2598719597,-0.0863190105,0.0751754557,0.0586196290,15.8106994629,6.3955891927,38.0775451660
3.2625789642,-0.0863190105,0.0751754557,0.0586196290,16.5888977051,6.4108479818,38.8557434082
3.2652790546,-0.0882721355,0.0868942057,0.0464125977,16.5888977051,6.4108479818,38.8557434082
3.2680270672,-0.0882721355,0.0868942057,0.0464125977,17.0771789551,6.5786946614,38.5658264160
3.2707328796,-0.0882721355,0.0868942057,0.0464125977,17.0771789551,6.5786946614,38.5658264160
3.2735040188,-0.0882721355,0.1054488932,0.0356704102,18.4809875488,6.8533528646,38.4284973144
3.2763490677,-0.0858307292,0.1054488932,0.0356704102,18.4809875488,6.8533528646,38.4284973144
3.2793579102,-0.0858307292,0.1054488932,0.0356704102,19.0150451660,6.9449055990,38.8252258301
3.2820708752,-0.0858307292,0.1054488932,0.0356704102,19.0150451660,6.9449055990,38.8252258301
3.2847800255,-0.0999908855,0.1117965494,0.0141860352,19.8695373535,6.9296468099,38.4284973144
3.2875008583,-0.0999908855,0.1117965494,0.0141860352,19.8695373535,6.9296468099,38.4284973144
3.2902090549,-0.0999908855,0.1117965494,0.0141860352,21.0902404785,7.3568929036,39.0998840332
3.2929120064,-0.0999908855,0.1117965494,0.0141860352,21.0902404785,7.3568929036,39.0998840332
3.2956209183,-0.1165924479,0.1313277994,-0.0043686523,21.9142150879,7.5857747396,39.6949768066
3.2982990742,-0.1165924479,0.1313277994,-0.0043686523,21.9142150879,7.5857747396,39.6949768066
3.3008730412,-0.1165924479,0.1313277994,-0.0043686523,22.3567199707,7.8756917318,40.2748107910
3.3034479618,-0.1165924479,0.1313277994,-0.0043686523,22.3567199707,7.8756917318,40.2748107910
3.3060219288,-0.1336822917,0.1288863932,-0.0112045898,23.1196594238,8.3487141927,40.8088684082
3.3086049557,-0.1336822917,0.1288863932,-0.0112045898,23.1196594238,8.3487141927,40.8088684082
3.3111798763,-0.1336822917,0.1288863932,-0.0112045898,23.1349182129,9.1726888021,41.4344787597
