time, acceleration x, acceleration y, acceleration z, gyro x gyro y, gyro z
        0.0000000000,       -0.1732887626,-0.1569314003,-0.0051776711,-2.6887321472,1.3714460135,5.6670904160
        0.0026810169,       -0.1732887626,-0.1569314003,-0.0051776711,-6.5949821472,1.2493757010,5.6213140488
        0.0053610802,       -0.1708473563,-0.1627907753,0.0040996727,-2.9481315613,1.2493757010,5.6213140488
        0.0080449581,       -0.1708473563,-0.1627907753,0.0040996727,-2.9481315613,1.4019635916,5.5297613144
        0.0107250214,       -0.1708473563,-0.1627907753,0.0040996727,-3.2227897644,1.4019635916,5.5297613144
        0.0136110783,       -0.1708473563,-0.1627907753,-0.0066425148,-2.5056266785,1.0052350760,5.6365728378
        0.0163090229,       -0.1708473563,-0.1540017128,-0.0066425148,-2.5056266785,1.0052350760,5.6365728378
        0.0190141201,       -0.1708473563,-0.1540017128,-0.0066425148,-6.4118766785,1.1273053885,6.0027837753
        0.0216960907,       -0.1708473563,-0.1540017128,-0.0066425148,-3.2533073425,1.1273053885,6.0027837753
        0.0243721008,       -0.1708473563,-0.1583962440,-0.0032245461,-3.2533073425,1.2493757010,5.9417486191
        0.0271539688,       -0.1659645438,-0.1583962440,-0.0032245461,-3.4669303894,1.2493757010,5.9417486191
        0.0297150612,       -0.1659645438,-0.1583962440,-0.0032245461,-3.4669303894,1.3256696463,5.8959722519
        0.0322749615,       -0.1659645438,-0.1583962440,-0.0032245461,-3.2075309753,1.3256696463,5.8959722519
        0.0348441601,       -0.1718239188,-0.1544899940,-0.0090839211,-3.2075309753,1.3256696463,5.7891607285
        0.0374410152,       -0.1718239188,-0.1544899940,-0.0090839211,-2.8870964050,1.1273053885,5.7891607285
        0.0401501656,       -0.1718239188,-0.1544899940,-0.0090839211,-2.8870964050,1.1273053885,5.5907964706
        0.0428531170,       -0.1718239188,-0.1544899940,-0.0090839211,-2.9786491394,1.1273053885,5.5907964706
        0.0455541611,       -0.1654762626,-0.1544899940,-0.0017597023,-2.9786491394,1.1273053885,5.7128667831
        0.0481970310,       -0.1654762626,-0.1544899940,-0.0017597023,-3.0091667175,0.8221296072,5.7128667831
        0.0507671833,       -0.1654762626,-0.1544899940,-0.0017597023,-3.0091667175,0.8221296072,5.7128667831
        0.0534901619,       -0.1654762626,-0.1544899940,-0.0017597023,-2.8870964050,0.8984235525,5.8349370956
        0.0560660362,       -0.1728004813,-0.1593728065,-0.0037128273,-2.8870964050,0.8984235525,5.8349370956
        0.0588061810,       -0.1728004813,-0.1593728065,-0.0037128273,-3.2533073425,1.0662702322,5.6518316269
        0.0613780022,       -0.1728004813,-0.1593728065,-0.0037128273,-3.2533073425,1.0662702322,5.6518316269
        0.0639441013,       -0.1728004813,-0.1593728065,-0.0037128273,-3.3143424988,1.2798932791,5.8044195175
        0.0665111542,       -0.1693825126,-0.1574196815,-0.0085956398,-3.3143424988,1.2798932791,5.8044195175
        0.0692451000,       -0.1693825126,-0.1574196815,-0.0085956398,-3.3448600769,1.4477399588,5.9417486191
        0.0719540119,       -0.1693825126,-0.1574196815,-0.0085956398,-3.3448600769,1.4477399588,5.9417486191
        0.0746459961,       -0.1693825126,-0.1544899940,-0.0027362648,-3.2838249207,1.3867048025,5.7891607285
        0.0773451328,       -0.1688942313,-0.1544899940,-0.0027362648,-3.2838249207,1.3867048025,5.7891607285
        0.0799131393,       -0.1688942313,-0.1544899940,-0.0027362648,-3.1617546082,1.5698102713,5.7433843613
        0.0824861526,       -0.1688942313,-0.1544899940,-0.0027362648,-3.1617546082,1.5698102713,5.7433843613
        0.0850491524,       -0.1688942313,-0.1623024940,-0.0032245461,-3.2075309753,1.4324811697,5.5602788925
        0.0876569748,       -0.1674293876,-0.1623024940,-0.0032245461,-3.2075309753,1.4324811697,5.5602788925
        0.0903601646,       -0.1674293876,-0.1623024940,-0.0032245461,-3.4364128113,1.4324811697,5.6670904160
        0.0930581093,       -0.1674293876,-0.1623024940,-0.0032245461,-3.4364128113,1.4324811697,5.6670904160
        0.0957520008,       -0.1737770438,-0.1608376503,-0.0042011086,-2.9023551941,1.2798932791,5.8349370956
        0.0984590054,       -0.1737770438,-0.1608376503,-0.0042011086,-2.9023551941,1.2798932791,5.8349370956
        0.1011569500,       -0.1737770438,-0.1608376503,-0.0042011086,-2.7802848816,0.8831647635,5.2703619003
        0.1038560867,       -0.1737770438,-0.1608376503,-0.0042011086,-2.7802848816,0.8831647635,5.2703619003
        0.1065511703,       -0.1688942313,-0.1564431190,-0.0076190773,-2.8565788269,1.0662702322,5.6060552597
        0.1092500687,       -0.1688942313,-0.1564431190,-0.0076190773,-2.8565788269,1.0662702322,5.6060552597
        0.1119520664,       -0.1688942313,-0.1564431190,-0.0076190773,-2.5514030457,0.6390241385,5.6213140488
        0.1146450043,       -0.1688942313,-0.1564431190,-0.0012714211,-2.5514030457,0.6390241385,5.6213140488
        0.1174581051,       -0.1679176688,-0.1652321815,-0.0012714211,-2.8870964050,1.0052350760,5.3924322128
        0.1201610565,       -0.1679176688,-0.1652321815,-0.0012714211,-2.8870964050,1.0052350760,5.3924322128
        0.1228721142,       -0.1679176688,-0.1652321815,-0.0012714211,-3.4669303894,1.1578229666,5.5450201035
        0.1256201267,       -0.1728004813,-0.1554665565,0.0006817039,-3.4669303894,1.1578229666,5.5450201035
        0.1282601357,       -0.1728004813,-0.1554665565,0.0006817039,-3.3296012878,1.4629987478,5.5297613144
        0.1308240891,       -0.1728004813,-0.1554665565,0.0006817039,-3.3296012878,1.4629987478,5.5297613144
        0.1333899498,       -0.1728004813,-0.1554665565,0.0006817039,-3.3296012878,1.2798932791,5.3008794785
        0.1359550953,       -0.1737770438,-0.1564431190,-0.0017597023,-3.3448600769,1.2798932791,5.3008794785
        0.1386239529,       -0.1737770438,-0.1564431190,-0.0017597023,0.5613899231,0.7916120291,5.1177740097
        0.1413199902,       -0.1737770438,-0.1564431190,-0.0017597023,-2.5056266785,0.7916120291,5.1177740097
        0.1440169811,       -0.1737770438,-0.1564431190,-0.0017597023,-2.5056266785,0.9747174978,5.1940679550
        0.1467039585,       -0.1723122001,-0.1603493690,-0.0051776711,-2.5971794128,0.9747174978,5.1940679550
        0.1494100094,       -0.1723122001,-0.1603493690,-0.0051776711,-2.5971794128,1.2646344900,5.2856206894
        0.1521060467,       -0.1723122001,-0.1603493690,-0.0051776711,-2.7802848816,1.2646344900,5.2856206894
        0.1548061371,       -0.1723122001,-0.1603493690,-0.0051776711,-2.7802848816,0.9289411306,5.1940679550
        0.1575150490,       -0.1732887626,-0.1618142128,0.0036113914,-3.1159782410,0.9289411306,5.1940679550
        0.1600770950,       -0.1732887626,-0.1618142128,0.0036113914,-3.1159782410,0.9289411306,5.3466558456
        0.1626410484,       -0.1732887626,-0.1618142128,0.0036113914,-2.8565788269,1.1730817556,5.3466558456
        0.1652071476,       -0.1732887626,-0.1618142128,0.0075176414,-2.8565788269,1.1730817556,5.3313970566
        0.1678891182,       -0.1762184501,-0.1618142128,0.0075176414,-3.1617546082,1.2646344900,5.3313970566
        0.1704599857,       -0.1762184501,-0.1618142128,0.0075176414,-3.1617546082,1.2646344900,5.3313970566
        0.1730241776,       -0.1762184501,-0.1618142128,0.0075176414,-2.9481315613,1.3104108572,5.1025152206
        0.1755909920,       -0.1762184501,-0.1618142128,-0.0022479836,-2.9481315613,1.3104108572,5.1025152206
        0.1782779694,       -0.1674293876,-0.1618142128,-0.0022479836,-2.8565788269,1.2646344900,5.3771734238
        0.1809501648,       -0.1674293876,-0.1618142128,-0.0022479836,-2.8565788269,1.2646344900,5.3771734238
        0.1835210323,       -0.1674293876,-0.1618142128,-0.0022479836,-3.1770133972,1.5850690603,5.4076910019
        0.1860811710,       -0.1674293876,-0.1549782753,-0.0061542336,-3.1770133972,1.5850690603,5.4076910019
        0.1888010502,       -0.1664528251,-0.1549782753,-0.0061542336,-2.9633903503,1.2035993338,5.5297613144
        0.1915011406,       -0.1664528251,-0.1549782753,-0.0061542336,-2.9633903503,1.2035993338,5.5297613144
        0.1941990852,       -0.1664528251,-0.1549782753,-0.0061542336,-2.7345085144,0.9899762869,5.5755376816
        0.1969029903,       -0.1757301688,-0.1569314003,0.0089824852,-2.7345085144,0.9899762869,5.5755376816
        0.1995999813,       -0.1757301688,-0.1569314003,0.0089824852,-2.5056266785,1.1730817556,5.0567388535
        0.2023019791,       -0.1757301688,-0.1569314003,0.0089824852,-2.5056266785,1.1730817556,5.0567388535
        0.2049989700,       -0.1757301688,-0.1569314003,0.0089824852,-2.1088981628,0.9747174978,4.9194097519
        0.2077541351,       -0.1742653251,-0.1564431190,-0.0066425148,-2.1088981628,0.9747174978,4.9194097519
        0.2104520798,       -0.1742653251,-0.1564431190,-0.0066425148,-2.5666618347,1.3714460135,5.4687261581
        0.2131450176,       -0.1742653251,-0.1564431190,-0.0066425148,-2.5666618347,1.3714460135,5.4687261581
        0.2158420086,       -0.1742653251,-0.1564431190,0.0050762352,-2.1546745300,1.0662702322,5.2398443222
        0.2185521126,       -0.1801247001,-0.1535134315,0.0050762352,-2.1546745300,1.0662702322,5.2398443222
        0.2211720943,       -0.1801247001,-0.1535134315,0.0050762352,-2.5666618347,1.0357526541,4.9346685410
        0.2237470150,       -0.1801247001,-0.1535134315,0.0050762352,-2.5666618347,1.0357526541,4.9346685410
        0.2263131142,       -0.1801247001,-0.1535134315,-0.0017597023,-2.4445915222,0.9136823416,5.1940679550
        0.2289669514,       -0.1698707938,-0.1535134315,-0.0017597023,-2.4445915222,0.9136823416,5.1940679550
        0.2315320969,       -0.1698707938,-0.1535134315,-0.0017597023,-1.5900993347,0.6237653494,5.0109624863
        0.2340910435,       -0.1698707938,-0.1535134315,-0.0017597023,-1.5900993347,0.6237653494,5.0109624863
        0.2370631695,       -0.1684059501,-0.1540017128,-0.0085956398,-2.4751091003,0.7763532400,5.3161382675
        0.2397730350,       -0.1684059501,-0.1540017128,-0.0085956398,-2.4751091003,0.7763532400,5.3161382675
        0.2424759865,       -0.1684059501,-0.1540017128,-0.0085956398,-2.5819206238,0.7610944510,5.2245855331
        0.2452809811,       -0.1684059501,-0.1540017128,-0.0085956398,-2.5819206238,0.7610944510,5.2245855331
        0.2479970455,       -0.1732887626,-0.1579079628,-0.0056659523,-2.6887321472,0.7153180838,5.2551031113
        0.2506980896,       -0.1732887626,-0.1579079628,-0.0056659523,-2.6887321472,0.7153180838,5.2551031113
        0.2534010410,       -0.1732887626,-0.1579079628,-0.0056659523,-3.0091667175,1.1120465994,5.5450201035
        0.2560989857,       -0.1732887626,-0.1579079628,-0.0002948586,-3.0091667175,1.1120465994,5.5450201035
        0.2588071823,       -0.1771950126,-0.1579079628,-0.0002948586,-3.1617546082,1.3409284353,5.2551031113
        0.2615120411,       -0.1771950126,-0.1579079628,-0.0002948586,-3.1617546082,1.3409284353,5.2551031113
        0.2642130852,       -0.1771950126,-0.1579079628,-0.0002948586,-2.9786491394,1.2798932791,5.3466558456
        0.2669250965,       -0.1771950126,-0.1593728065,-0.0017597023,-2.9786491394,1.2798932791,5.3466558456
        0.2694890499,       -0.1762184501,-0.1593728065,-0.0017597023,-2.9786491394,1.4477399588,5.4992437363
        0.2720520496,       -0.1762184501,-0.1593728065,-0.0017597023,-3.2533073425,1.4477399588,5.4992437363
        0.2752130032,       -0.1762184501,-0.1593728065,-0.0017597023,-3.0091667175,1.4477399588,5.1788091660
        0.2778661251,       -0.1732887626,-0.1593728065,0.0006817039,-3.0091667175,1.4477399588,5.1788091660
        0.2804319859,       -0.1732887626,-0.1593728065,0.0006817039,-2.3072624207,1.1883405447,5.0414800644
        0.2829949856,       -0.1732887626,-0.1593728065,0.0006817039,-2.3072624207,1.1883405447,5.0414800644
        0.2855541706,       -0.1732887626,-0.1593728065,0.0006817039,-2.3072624207,0.9289411306,5.3313970566
        0.2881200314,       -0.1669411063,-0.1554665565,-0.0017597023,-2.4751091003,0.9289411306,5.3313970566
        0.2906820774,       -0.1669411063,-0.1554665565,-0.0017597023,-2.4751091003,0.9289411306,5.3619146347
        0.2932431698,       -0.1669411063,-0.1554665565,-0.0017597023,-2.8260612488,1.1120465994,5.3619146347
        0.2958049774,       -0.1669411063,-0.1554665565,-0.0017597023,-2.8260612488,1.1120465994,5.3619146347
        0.2983729839,       -0.1752418876,-0.1574196815,0.0006817039,-2.4598503113,0.7610944510,5.2093267441
        0.3009381294,       -0.1752418876,-0.1574196815,0.0006817039,-2.4598503113,0.7610944510,5.2093267441
        0.3034989834,       -0.1752418876,-0.1574196815,0.0006817039,-2.3072624207,0.7458356619,4.9804449081
        0.3060619831,       -0.1752418876,-0.1574196815,0.0006817039,-2.3072624207,0.7458356619,4.9804449081
        0.3087890148,       -0.1708473563,-0.1554665565,0.0001934227,-2.5361442566,1.0510114431,5.2856206894
        0.3113560677,       -0.1708473563,-0.1554665565,0.0001934227,-2.5361442566,1.0510114431,5.2856206894
        0.3139159679,       -0.1708473563,-0.1554665565,0.0001934227,-2.8718376160,0.8068708181,5.3771734238
        0.3164811134,       -0.1708473563,-0.1554665565,0.0001934227,-2.8718376160,0.8068708181,5.3771734238
        0.3191821575,       -0.1698707938,-0.1554665565,-0.0085956398,-2.5208854675,0.8679059744,5.5145025253
        0.3217461109,       -0.1698707938,-0.1554665565,-0.0085956398,-2.5208854675,0.8679059744,5.5145025253
        0.3243069649,       -0.1698707938,-0.1554665565,-0.0085956398,-3.4364128113,1.0815290213,5.4992437363
        0.3269660473,       -0.1698707938,-0.1554665565,-0.0144550148,-3.4364128113,1.0815290213,5.4992437363
        0.3295350075,       -0.1728004813,-0.1627907753,-0.0144550148,-2.6734733582,1.0204938650,5.3161382675
        0.3320980072,       -0.1728004813,-0.1627907753,-0.0144550148,-2.6734733582,1.0204938650,5.3161382675
        0.3346610069,       -0.1728004813,-0.1627907753,-0.0144550148,-6.5797233582,1.2188581228,5.5602788925
        0.3372299671,       -0.1728004813,-0.1627907753,-0.0042011086,-3.0854606628,1.2188581228,5.5602788925
        0.3397951126,       -0.1732887626,-0.1593728065,-0.0042011086,-3.0854606628,1.2188581228,5.4534673691
        0.3423571587,       -0.1732887626,-0.1593728065,-0.0042011086,-3.0396842957,1.3256696463,5.4534673691
        0.3449189663,       -0.1732887626,-0.1593728065,-0.0042011086,-3.0396842957,1.3256696463,5.6518316269
        0.3475611210,       -0.1732887626,-0.1583962440,0.0040996727,-2.8870964050,1.2035993338,5.6518316269
        0.3502631187,       -0.1767067313,-0.1583962440,0.0040996727,-2.8870964050,1.2035993338,5.5755376816
        0.3529579639,       -0.1767067313,-0.1583962440,0.0040996727,-2.7039909363,0.9289411306,5.5755376816
        0.3556511402,       -0.1767067313,-0.1583962440,0.0040996727,-2.7039909363,0.9289411306,5.5755376816
        0.3582999706,       -0.1669411063,-0.1608376503,-0.0105487648,-2.9481315613,1.2035993338,5.6060552597
        0.3608679771,       -0.1669411063,-0.1608376503,-0.0105487648,-2.9481315613,1.2035993338,5.6060552597
        0.3634359837,       -0.1669411063,-0.1608376503,-0.0105487648,-3.1922721863,1.1120465994,5.5907964706
        0.3660011292,       -0.1669411063,-0.1608376503,-0.0105487648,-3.1922721863,1.1120465994,5.5907964706
        0.3686671257,       -0.1752418876,-0.1559548378,0.0050762352,-3.1922721863,1.2035993338,5.6213140488
        0.3714661598,       -0.1752418876,-0.1559548378,0.0050762352,-3.1922721863,1.2035993338,5.6213140488
        0.3741710186,       -0.1752418876,-0.1559548378,0.0050762352,-2.7955436707,1.4324811697,5.6823492050
        0.3768739700,       -0.1752418876,-0.1559548378,0.0050762352,-2.7955436707,1.4324811697,5.6823492050
        0.3795740604,       -0.1757301688,-0.1598610878,-0.0066425148,-2.3835563660,1.0510114431,6.0027837753
        0.3822729588,       -0.1757301688,-0.1598610878,-0.0066425148,-2.3835563660,1.0510114431,6.0027837753
        0.3850560188,       -0.1757301688,-0.1598610878,-0.0066425148,-2.3530387878,0.9441999197,5.6670904160
        0.3880770206,       -0.1757301688,-0.1598610878,-0.0022479836,-2.3530387878,0.9441999197,5.6670904160
        0.3907811642,       -0.1718239188,-0.1598610878,-0.0022479836,-3.0396842957,1.0662702322,5.6365728378
        0.3934800625,       -0.1718239188,-0.1598610878,-0.0022479836,-3.0396842957,1.0662702322,5.6365728378
        0.3961789608,       -0.1718239188,-0.1598610878,-0.0022479836,-3.2075309753,1.1120465994,5.4229497910
        0.3989210129,       -0.1684059501,-0.1583962440,-0.0046893898,-3.2075309753,1.1120465994,5.4229497910
        0.4016211033,       -0.1684059501,-0.1583962440,-0.0046893898,-3.3143424988,1.3104108572,5.4687261581
        0.4043159485,       -0.1684059501,-0.1583962440,-0.0046893898,-3.3143424988,1.3104108572,5.4687261581
        0.4070620537,       -0.1684059501,-0.1583962440,-0.0046893898,-3.3296012878,1.3409284353,5.7739019394
        0.4096269608,       -0.1684059501,-0.1598610878,-0.0032245461,-3.3296012878,1.3409284353,5.7739019394
        0.4121921062,       -0.1684059501,-0.1598610878,-0.0032245461,-2.9633903503,1.1120465994,5.5907964706
        0.4147610664,       -0.1684059501,-0.1598610878,-0.0032245461,-2.9633903503,1.1120465994,5.5907964706
        0.4173581600,       -0.1684059501,-0.1598610878,-0.0032245461,-2.8108024597,1.0204938650,5.5145025253
        0.4199249744,       -0.1688942313,-0.1535134315,-0.0056659523,-2.8108024597,1.0204938650,5.5145025253
        0.4224920273,       -0.1688942313,-0.1535134315,-0.0056659523,-3.2227897644,1.4324811697,5.5450201035
        0.4250600338,       -0.1688942313,-0.1535134315,-0.0056659523,-3.2227897644,1.4324811697,5.5450201035
        0.4276349545,       -0.1688942313,-0.1535134315,-0.0056659523,-3.2075309753,1.3561872244,5.4687261581
        0.4302060604,       -0.1713356376,-0.1574196815,0.0006817039,-3.2075309753,1.3561872244,5.4687261581
        0.4327690601,       -0.1713356376,-0.1574196815,0.0006817039,-3.2075309753,1.5698102713,5.6365728378
        0.4353411198,       -0.1713356376,-0.1574196815,0.0006817039,-3.1770133972,1.5698102713,5.6365728378
        0.4381439686,       -0.1713356376,-0.1574196815,-0.0115253273,-3.1770133972,1.3409284353,5.6365728378
        0.4407141209,       -0.1698707938,-0.1505837440,-0.0115253273,-3.5127067566,1.3409284353,5.6365728378
        0.4432830811,       -0.1698707938,-0.1505837440,-0.0115253273,-3.5127067566,1.3409284353,5.6670904160
        0.4458560944,       -0.1698707938,-0.1505837440,-0.0115253273,-3.2380485535,1.1578229666,5.6670904160
        0.4486570358,       -0.1698707938,-0.1583962440,0.0094707664,-3.2380485535,5.0640730858,5.5755376816
        0.4513590336,       -0.1771950126,-0.1583962440,0.0094707664,-3.5737419128,1.4782575369,5.5755376816
        0.4540569782,       -0.1771950126,-0.1583962440,0.0094707664,-3.5737419128,-2.4279923439,5.6518316269
        0.4567611217,       -0.1771950126,-0.1583962440,0.0094707664,-3.3601188660,1.3714460135,5.6518316269
        0.4593260288,       -0.1713356376,-0.1549782753,-0.0085956398,-3.3601188660,1.3714460135,5.6060552597
        0.4618999958,       -0.1713356376,-0.1549782753,-0.0085956398,-2.8413200378,1.1120465994,5.6060552597
        0.4644689560,       -0.1713356376,-0.1549782753,-0.0085956398,-2.8413200378,1.1120465994,5.6060552597
        0.4671039581,       -0.1713356376,-0.1549782753,-0.0085956398,-3.6500358582,1.5087751150,5.4687261581
        0.4698021412,       -0.1723122001,-0.1657204628,-0.0076190773,-3.6500358582,1.5087751150,5.4687261581
        0.4725050926,       -0.1723122001,-0.1657204628,-0.0076190773,-3.4211540222,1.4477399588,5.7586431503
        0.4752039909,       -0.1723122001,-0.1657204628,-0.0076190773,-3.4211540222,1.4477399588,5.7586431503
        0.4779419899,       -0.1723122001,-0.1657204628,-0.0076190773,-2.9328727722,1.7529157400,6.0180425644
        0.4806439877,       -0.1737770438,-0.1520485878,-0.0076190773,-2.9328727722,1.7529157400,6.0180425644
        0.4833431244,       -0.1737770438,-0.1520485878,-0.0076190773,-3.2380485535,1.2951520681,5.9417486191
        0.4860401154,       -0.1737770438,-0.1520485878,-0.0076190773,-3.2380485535,1.2951520681,5.9417486191
        0.4887499809,       -0.1737770438,-0.1520485878,-0.0115253273,-3.4364128113,1.1578229666,5.8196783066
        0.4914481640,       -0.1718239188,-0.1544899940,-0.0115253273,-3.4364128113,1.1578229666,5.8196783066
        0.4941501617,       -0.1718239188,-0.1544899940,-0.0115253273,-3.4669303894,1.3714460135,5.5602788925
        0.4968621731,       -0.1718239188,-0.1544899940,-0.0115253273,-3.4669303894,1.3714460135,5.5602788925
        0.4994320869,       -0.1703590751,-0.1583962440,0.0006817039,-3.7873649597,1.3714460135,5.5755376816
        0.5021021366,       -0.1703590751,-0.1583962440,0.0006817039,-3.7873649597,1.3714460135,5.5755376816
        0.5047781467,       -0.1703590751,-0.1583962440,0.0006817039,-3.8484001160,1.2035993338,5.6365728378
        0.5076000690,       -0.1703590751,-0.1583962440,0.0006817039,-3.8484001160,1.2035993338,5.6365728378
        0.5103061199,       -0.1688942313,-0.1623024940,-0.0032245461,-4.3061637878,1.2646344900,5.9264898300
        0.5130059719,       -0.1688942313,-0.1623024940,-0.0032245461,-4.3061637878,1.2646344900,5.9264898300
        0.5157001019,       -0.1688942313,-0.1623024940,-0.0032245461,-4.2451286316,1.4935163260,5.5297613144
        0.5184130669,       -0.1688942313,-0.1623024940,-0.0032245461,-4.2451286316,1.4935163260,5.5297613144
        0.5211100578,       -0.1752418876,-0.1559548378,0.0089824852,-3.5584831238,1.4477399588,5.4534673691
        0.5238130093,       -0.1752418876,-0.1559548378,0.0089824852,-3.5584831238,1.4477399588,5.4534673691
        0.5265159607,       -0.1752418876,-0.1559548378,0.0089824852,-3.8026237488,1.1730817556,5.4382085800
        0.5292251110,       -0.1752418876,-0.1559548378,0.0099590477,-3.8026237488,1.1730817556,5.4382085800
        0.5319249630,       -0.1737770438,-0.1520485878,0.0099590477,-3.5127067566,1.0815290213,5.5297613144
        0.5346281528,       -0.1737770438,-0.1520485878,0.0099590477,-3.5127067566,1.0815290213,5.5297613144
        0.5373201370,       -0.1737770438,-0.1520485878,0.0099590477,-3.4211540222,1.2341169119,5.6365728378
        0.5398840904,       -0.1732887626,-0.1515603065,-0.0032245461,-3.4211540222,1.2341169119,5.6365728378
        0.5424499512,       -0.1732887626,-0.1515603065,-0.0032245461,-3.2075309753,1.5087751150,5.1482915878
        0.5450129509,       -0.1732887626,-0.1515603065,-0.0032245461,-3.2075309753,1.5087751150,5.1482915878
        0.5475871563,       -0.1732887626,-0.1515603065,-0.0032245461,-2.9939079285,1.4172223806,5.3008794785
        0.5501520634,       -0.1674293876,-0.1535134315,-0.0027362648,-2.9939079285,1.4172223806,5.3008794785
        0.5527181625,       -0.1674293876,-0.1535134315,-0.0027362648,-3.0702018738,1.1120465994,5.5602788925
        0.5552899837,       -0.1674293876,-0.1535134315,-0.0027362648,-3.0702018738,1.1120465994,5.5602788925
        0.5580070019,       -0.1674293876,-0.1535134315,-0.0027362648,-3.0702018738,1.3256696463,5.4992437363
        0.5605771542,       -0.1737770438,-0.1515603065,0.0021465477,-3.0244255066,1.3256696463,5.4992437363
        0.5631470680,       -0.1737770438,-0.1515603065,0.0021465477,-3.0244255066,5.2319197655,5.5297613144
        0.5658149719,       -0.1737770438,-0.1515603065,0.0021465477,-2.8870964050,1.4782575369,5.5297613144
        0.5684921741,       -0.1737770438,-0.1515603065,0.0021465477,-2.8870964050,1.4782575369,5.4534673691
        0.5711920261,       -0.1635231376,-0.1505837440,-0.0139667336,-2.7039909363,1.6155866385,5.4534673691
        0.5738949776,       -0.1635231376,-0.1505837440,-0.0139667336,-2.7039909363,-2.2906632423,5.2551031113
        0.5766010284,       -0.1635231376,-0.1505837440,-0.0139667336,-1.8800163269,1.0815290213,5.2551031113
        0.5793461800,       -0.1635231376,-0.1505837440,-0.0002948586,-1.8800163269,1.0815290213,5.3619146347
        0.5820531845,       -0.1723122001,-0.1520485878,-0.0002948586,-2.2767448425,1.1273053885,5.3619146347
        0.5847551823,       -0.1723122001,-0.1520485878,-0.0002948586,-2.2767448425,1.1273053885,5.2245855331
        0.5874581337,       -0.1723122001,-0.1520485878,-0.0002948586,-2.4598503113,1.1578229666,5.2245855331
        0.5901551247,       -0.1723122001,-0.1559548378,0.0040996727,-2.4598503113,1.1578229666,5.0567388535
        0.5928521156,       -0.1762184501,-0.1559548378,0.0040996727,-2.8108024597,1.0510114431,5.0567388535
        0.5955560207,       -0.1762184501,-0.1559548378,0.0040996727,-2.8108024597,1.0510114431,5.0567388535
        0.5982661247,       -0.1762184501,-0.1559548378,0.0040996727,-2.9939079285,0.9899762869,5.0567388535
        0.6009640694,       -0.1737770438,-0.1574196815,-0.0076190773,-2.9939079285,0.9899762869,5.1025152206
        0.6036691666,       -0.1737770438,-0.1574196815,-0.0076190773,-2.7650260925,1.3561872244,5.1025152206
        0.6063680649,       -0.1737770438,-0.1574196815,-0.0076190773,-2.7650260925,1.3561872244,5.3771734238
        0.6090810299,       -0.1737770438,-0.1574196815,-0.0076190773,-2.8718376160,1.4782575369,5.3771734238
        0.6117839813,       -0.1781715751,-0.1481423378,-0.0017597023,-2.8718376160,1.4782575369,4.9346685410
        0.6144850254,       -0.1781715751,-0.1481423378,-0.0017597023,-3.0091667175,0.9289411306,4.9346685410
        0.6171910763,       -0.1781715751,-0.1481423378,-0.0017597023,-3.0091667175,0.9289411306,4.6905279160
        0.6198861599,       -0.1781715751,-0.1481423378,0.0016582664,-3.0549430847,1.3867048025,4.6905279160
        0.6225891113,       -0.1757301688,-0.1593728065,0.0016582664,-3.0549430847,1.3867048025,4.9499273300
        0.6253609657,       -0.1757301688,-0.1593728065,0.0016582664,-3.1159782410,2.0580916405,4.9499273300
        0.6282100677,       -0.1757301688,-0.1593728065,0.0016582664,-3.1159782410,2.0580916405,5.0262212753
        0.6310219765,       -0.1747536063,-0.1647439003,0.0075176414,-2.9328727722,2.1343855858,5.0262212753
        0.6337220669,       -0.1747536063,-0.1647439003,0.0075176414,-2.9328727722,2.1343855858,5.0872564316
        0.6364171505,       -0.1747536063,-0.1647439003,0.0075176414,-2.9939079285,2.1038680077,5.0872564316
        0.6391639709,       -0.1747536063,-0.1647439003,0.0075176414,-2.9939079285,2.1038680077,5.3313970566
        0.6418631077,       -0.1776832938,-0.1686501503,0.0031231102,-3.4211540222,1.9207624197,5.3313970566
        0.6445660591,       -0.1776832938,-0.1686501503,0.0031231102,-3.4211540222,1.9207624197,5.6365728378
        0.6472539902,       -0.1776832938,-0.1686501503,0.0031231102,-3.3448600769,2.3785262108,5.6365728378
        0.6498191357,       -0.1776832938,-0.1686501503,0.0031231102,-3.3448600769,2.3785262108,5.3771734238
        0.6523849964,       -0.1693825126,-0.1637673378,0.0060527977,-3.2685661316,2.1801619530,5.3771734238
        0.6549489498,       -0.1693825126,-0.1637673378,0.0060527977,-3.2685661316,2.1801619530,5.3771734238
        0.6575529575,       -0.1693825126,-0.1637673378,0.0060527977,-3.0244255066,1.8292096853,5.3619146347
        0.6601171494,       -0.1693825126,-0.1637673378,0.0060527977,-3.0244255066,1.8292096853,5.3619146347
        0.6626861095,       -0.1718239188,-0.1671853065,-0.0042011086,-3.2838249207,1.7529157400,5.6365728378
        0.6652510166,       -0.1718239188,-0.1671853065,-0.0042011086,-3.2838249207,1.7529157400,5.6365728378
        0.6678261757,       -0.1718239188,-0.1671853065,-0.0042011086,-3.4058952332,1.7071393728,6.0333013535
        0.6703929901,       -0.1718239188,-0.1671853065,0.0011699852,-3.4058952332,1.7071393728,6.0333013535
        0.6729590893,       -0.1654762626,-0.1662087440,0.0011699852,-3.1159782410,1.5240339041,6.5063238144
        0.6755220890,       -0.1654762626,-0.1662087440,0.0011699852,-3.1159782410,1.5240339041,6.5063238144
        0.6782281399,       -0.1654762626,-0.1662087440,0.0011699852,-3.1770133972,1.4935163260,6.5215826035
        0.6807980537,       -0.1654762626,-0.1637673378,-0.0022479836,-3.1770133972,1.4935163260,6.5215826035
        0.6833720207,       -0.1625465751,-0.1637673378,-0.0022479836,-3.2380485535,1.5240339041,6.9640874863
        0.6859400272,       -0.1625465751,-0.1637673378,-0.0022479836,-3.2380485535,1.5240339041,6.9640874863
        0.6886880398,       -0.1625465751,-0.1637673378,-0.0022479836,-3.4211540222,1.5545514822,7.1319341660
        0.6913850307,       -0.1532692313,-0.1662087440,-0.0100604836,-3.4211540222,1.5545514822,7.1319341660
        0.6941881180,       -0.1532692313,-0.1662087440,-0.0100604836,-3.0244255066,1.7071393728,7.3455572128
        0.6968951225,       -0.1532692313,-0.1662087440,-0.0100604836,-3.0244255066,1.7071393728,7.3455572128
        0.6994631290,       -0.1532692313,-0.1662087440,-0.0100604836,-3.0244255066,1.5698102713,7.8185796738
        0.7020251751,       -0.1674293876,-0.1696267128,-0.0120136086,-2.9633903503,1.5698102713,7.8185796738
        0.7045960426,       -0.1674293876,-0.1696267128,-0.0120136086,-2.9633903503,1.5698102713,8.3373785019
        0.7071809769,       -0.1674293876,-0.1696267128,-0.0120136086,-3.2990837097,1.9512799978,8.3373785019
        0.7098751068,       -0.1674293876,-0.1696267128,-0.0120136086,-3.2990837097,1.9512799978,8.5204839706
        0.7125699520,       -0.1586403251,-0.1569314003,-0.0061542336,-2.7497673035,1.7223981619,8.5204839706
        0.7152631283,       -0.1586403251,-0.1569314003,-0.0061542336,-2.7497673035,1.7223981619,8.5967779160
        0.7179720402,       -0.1586403251,-0.1569314003,-0.0061542336,-2.8260612488,1.6003278494,8.5967779160
        0.7206690311,       -0.1586403251,-0.1569314003,-0.0061542336,-2.8260612488,1.6003278494,8.8104009628
        0.7233710289,       -0.1811012626,-0.1637673378,-0.0100604836,-2.8718376160,1.7223981619,8.8104009628
        0.7260701656,       -0.1811012626,-0.1637673378,-0.0100604836,-2.8718376160,1.7223981619,8.8561773300
        0.7287781239,       -0.1811012626,-0.1637673378,-0.0100604836,-2.7497673035,1.4629987478,8.8561773300
        0.7314770222,       -0.1811012626,-0.1730446815,-0.0125018898,-2.7497673035,1.4629987478,8.5815191269
        0.7341749668,       -0.1981911063,-0.1730446815,-0.0125018898,-2.6582145691,1.6003278494,8.5815191269
        0.7368831635,       -0.1981911063,-0.1730446815,-0.0125018898,-2.6582145691,1.6003278494,9.4207525253
        0.7395770550,       -0.1981911063,-0.1730446815,-0.0125018898,-2.9786491394,1.2798932791,9.4207525253
        0.7422730923,       -0.1757301688,-0.1647439003,-0.0012714211,-2.9786491394,1.2798932791,9.6343755722
        0.7451939583,       -0.1757301688,-0.1647439003,-0.0012714211,-4.1383171082,1.2188581228,9.6343755722
        0.7482781410,       -0.1757301688,-0.1647439003,-0.0012714211,-4.1383171082,1.7681745291,9.6648931503
        0.7508490086,       -0.1757301688,-0.1647439003,-0.0012714211,-4.7028923035,1.7681745291,9.6648931503
        0.7534141541,       -0.1742653251,-0.1603493690,-0.0129901711,-4.7028923035,1.7681745291,9.9242925644
        0.7559821606,       -0.1742653251,-0.1603493690,-0.0129901711,-5.3132438660,1.6766217947,9.9242925644
        0.7586650848,       -0.1742653251,-0.1603493690,-0.0129901711,-5.3132438660,1.6766217947,9.8327398300
        0.7612371445,       -0.1742653251,-0.1603493690,-0.0027362648,-5.5268669128,1.5545514822,9.8327398300
        0.7638061047,       -0.1684059501,-0.1525368690,-0.0027362648,-5.5268669128,1.5545514822,9.8327398300
        0.7663741112,       -0.1684059501,-0.1525368690,-0.0027362648,-5.8473014832,1.6308454275,9.7106695175
        0.7690629959,       -0.1684059501,-0.1525368690,-0.0027362648,-5.8473014832,1.6308454275,9.7106695175
        0.7717590332,       -0.1684059501,-0.1256814003,-0.0027362648,-5.5116081238,1.8597272635,9.4817876816
        0.7744519711,       -0.1581520438,-0.1256814003,-0.0027362648,-5.5116081238,1.8597272635,9.4817876816
        0.7771561146,       -0.1581520438,-0.1256814003,-0.0027362648,-4.6723747253,2.0886092186,8.9935064316
        0.7797260284,       -0.1581520438,-0.1256814003,-0.0027362648,-4.6723747253,2.0886092186,8.9935064316
        0.7822921276,       -0.1713356376,-0.1305642128,0.0138652977,-3.8484001160,1.8139508963,8.7188482285
        0.7848591805,       -0.1713356376,-0.1305642128,0.0138652977,-3.8484001160,1.8139508963,8.7188482285
        0.7874331474,       -0.1713356376,-0.1305642128,0.0138652977,-3.4058952332,2.0123152733,7.6202154160
        0.7899980545,       -0.1713356376,-0.1305642128,0.0138652977,-3.4058952332,2.0123152733,7.6202154160
        0.7925651073,       -0.1986793876,-0.1237282753,0.0050762352,-3.3143424988,2.1038680077,6.7809820175
        0.7951300144,       -0.1986793876,-0.1237282753,0.0050762352,-3.3143424988,2.1038680077,6.7809820175
        0.7978589535,       -0.1986793876,-0.1237282753,0.0050762352,-3.3296012878,2.1649031639,6.3232183456
        0.8004291058,       -0.1986793876,-0.1237282753,0.0050762352,-3.3296012878,2.1649031639,6.3232183456
        0.8029940128,       -0.1767067313,-0.1266579628,0.0021465477,0.5766487122,2.0886092186,6.2621831894
        0.8055620193,       -0.1767067313,-0.1266579628,0.0021465477,-2.5514030457,2.0886092186,6.2621831894
        0.8082730770,       -0.1767067313,-0.1266579628,0.0021465477,-6.4576530457,2.3327498436,6.0333013535
        0.8109710217,       -0.1767067313,-0.1266579628,0.0021465477,-2.7345085144,2.3327498436,6.0333013535
        0.8136730194,       -0.1649879813,-0.1530251503,-0.0066425148,1.1717414856,2.5311141014,5.5907964706
        0.8163630962,       -0.1649879813,-0.1530251503,-0.0066425148,-2.5971794128,2.5311141014,5.5907964706
        0.8190701008,       -0.1649879813,-0.1530251503,-0.0066425148,-2.5971794128,2.2869734764,5.9417486191
        0.8218729496,       -0.1649879813,-0.1530251503,-0.0066425148,-2.0783805847,2.2869734764,5.9417486191
        0.8245680332,       -0.1747536063,-0.1603493690,-0.0066425148,-2.0783805847,2.2259383202,6.2774419785
        0.8272640705,       -0.1747536063,-0.1603493690,-0.0066425148,-2.2614860535,2.2259383202,6.2774419785
        0.8299620152,       -0.1747536063,-0.1603493690,-0.0066425148,-2.2614860535,2.1496443748,6.7809820175
        0.8326580524,       -0.1747536063,-0.1701149940,0.0128887352,-2.3835563660,2.1496443748,6.7809820175
        0.8353550434,       -0.1664528251,-0.1701149940,0.0128887352,-2.3835563660,2.4548201561,7.5134038925
        0.8380579948,       -0.1664528251,-0.1701149940,0.0128887352,-2.5666618347,2.4548201561,7.5134038925
        0.8407540321,       -0.1664528251,-0.1701149940,0.0128887352,-2.5666618347,2.5158553123,8.3068609238
        0.8434541225,       -0.1752418876,-0.1852517128,-0.0081073586,-2.6429557800,2.5158553123,8.3068609238
        0.8461501598,       -0.1752418876,-0.1852517128,-0.0081073586,-2.6429557800,2.9125838280,9.6038579941
        0.8488590717,       -0.1752418876,-0.1852517128,-0.0081073586,-2.5666618347,2.9125838280,9.6038579941
        0.8515591621,       -0.1752418876,-0.1852517128,-0.0081073586,-2.5666618347,2.9125838280,10.7787847519
        0.8542549610,       -0.1854957938,-0.1774392128,0.0001934227,-2.3988151550,3.1414656639,10.7787847519
        0.8569600582,       -0.1854957938,-0.1774392128,0.0001934227,-2.3988151550,3.1414656639,11.8774175644
        0.8596661091,       -0.1854957938,-0.1774392128,0.0001934227,-2.2004508972,3.1414656639,11.8774175644
        0.8623650074,       -0.1854957938,-0.1774392128,-0.0056659523,-2.2004508972,3.1414656639,13.0981206894
        0.8650729656,       -0.1728004813,-0.1710915565,-0.0056659523,-2.3530387878,3.1262068748,13.0981206894
        0.8678469658,       -0.1728004813,-0.1710915565,-0.0056659523,-2.3530387878,3.1262068748,14.5324468613
        0.8705580235,       -0.1728004813,-0.1710915565,-0.0056659523,-2.0783805847,3.4313826561,14.5324468613
        0.8732590675,       -0.1679176688,-0.1955056190,0.0021465477,-2.0783805847,3.4313826561,16.3482437134
        0.8759591579,       -0.1679176688,-0.1955056190,0.0021465477,-1.8952751160,3.4008650780,16.3482437134
        0.8786690235,       -0.1679176688,-0.1955056190,0.0021465477,-1.8952751160,3.4008650780,18.9880142212
        0.8813710213,       -0.1679176688,-0.1955056190,0.0021465477,-2.7497673035,2.9278426170,18.9880142212
        0.8840739727,       -0.1791481376,-0.2506814003,0.0055645164,-2.7497673035,2.9278426170,21.8871841431
        0.8868930340,       -0.1791481376,-0.2506814003,0.0055645164,-4.8554801941,3.0346541405,21.8871841431
        0.8906240463,       -0.1791481376,-0.2506814003,0.0055645164,-6.9001579285,2.7905135155,25.4119644165
        0.8931889534,       -0.3041481376,-0.2843728065,-0.0037128273,-6.9001579285,2.7905135155,25.4119644165
        0.8957550526,       -0.1977028251,-0.2843728065,-0.0037128273,-8.8075065613,2.7447371483,29.5318374634
        0.8984701633,       -0.1977028251,-0.2843728065,-0.0037128273,-8.8075065613,2.7447371483,29.5318374634
        0.9010350704,       -0.1977028251,-0.2843728065,-0.0037128273,-11.1268424988,2.9431014061,34.7198257446
        0.9035940170,       -0.2177223563,-0.2819314003,-0.0090839211,-11.1268424988,2.9431014061,34.7198257446
        0.9061610699,       -0.2177223563,-0.2819314003,-0.0090839211,-11.1268424988,3.5381941795,40.1214370728
        0.9087400436,       -0.2177223563,-0.2819314003,-0.0090839211,-12.3322868347,3.5381941795,40.1214370728
        0.9113070965,       -0.2177223563,-0.2819314003,-0.0090839211,-12.3322868347,3.5381941795,46.0418472290
        0.9138729572,       -0.2401832938,-0.2824196815,-0.0388690755,-11.7219352722,3.6144881248,46.0418472290
        0.9164381027,       -0.2401832938,-0.2824196815,-0.0388690755,-11.7219352722,3.6144881248,53.8543472290
        0.9190499783,       -0.2401832938,-0.2824196815,-0.0388690755,-10.3333854675,3.5992293358,52.7251968384
        0.9216201305,       -0.2401832938,-0.2824196815,-0.0388690755,-10.3333854675,3.5992293358,52.7251968384
        0.9241850376,       -0.2294411063,-0.2863259315,-0.0750018880,-8.3955192566,3.3703474998,59.3475112915
        0.9267590046,       -0.2294411063,-0.2863259315,-0.0750018880,-8.3955192566,3.3703474998,59.3475112915
        0.9293260574,       -0.2294411063,-0.2863259315,-0.0750018880,-6.4271354675,3.1414656639,66.4886245728
        0.9318940639,       -0.2294411063,-0.2863259315,-0.0750018880,-6.4271354675,3.1414656639,66.4886245728
        0.9344611168,       -0.2118629813,-0.2824196815,-0.1077167317,-5.6794548035,1.4477399588,73.9349136353
        0.9372210503,       -0.2118629813,-0.2824196815,-0.1077167317,-5.6794548035,1.4477399588,73.9349136353
        0.9397981167,       -0.2118629813,-0.2824196815,-0.1077167317,-5.2979850769,-0.8410784006,79.1076431274
        0.9423689842,       -0.2118629813,-0.2824196815,-0.1077167317,-5.2979850769,-0.8410784006,79.1076431274
        0.9449450970,       -0.1928200126,-0.2326149940,-0.1135761067,-5.8320426941,-2.9925675392,83.9904556274
        0.9476821423,       -0.1928200126,-0.2326149940,-0.1135761067,-5.8320426941,-2.9925675392,83.9904556274
        0.9505021572,       -0.1928200126,-0.2326149940,-0.1135761067,-6.7933464050,-5.4034562111,88.9648208618
        0.9532070160,       -0.1928200126,-0.2326149940,-0.1194354817,-6.7933464050,-5.4034562111,88.9648208618
        0.9559111595,       -0.1986793876,-0.1959939003,-0.1194354817,-7.7546501160,-7.0208878517,93.5424575806
        0.9585511684,       -0.1986793876,-0.1959939003,-0.1194354817,-7.7546501160,-7.0208878517,93.5424575806
        0.9611220360,       -0.1986793876,-0.1959939003,-0.1194354817,-10.4554557800,-8.8214254379,97.4029312134
        0.9636960030,       -0.1986793876,-0.2047829628,-0.1077167317,-10.4554557800,-8.8214254379,97.4029312134
        0.9662749767,       -0.2001442313,-0.2047829628,-0.1077167317,-14.0565299988,-9.9963521957,100.1342544556
        0.9689950943,       -0.2001442313,-0.2047829628,-0.1077167317,-14.0565299988,-9.9963521957,100.1342544556
        0.9716999531,       -0.2001442313,-0.2047829628,-0.1077167317,-18.2526969910,-11.7511129379,101.5990982056
        0.9744069576,       -0.1596168876,-0.1642556190,-0.0876972005,-18.2526969910,-11.7511129379,101.5990982056
        0.9771649837,       -0.1596168876,-0.1642556190,-0.0876972005,-22.6930046082,-12.4987936020,101.5380630493
        0.9798741341,       -0.1596168876,-0.1642556190,-0.0876972005,-22.6930046082,-12.4987936020,101.5380630493
        0.9825811386,       -0.1596168876,-0.1642556190,-0.0876972005,-22.6930046082,-13.5363912582,100.7446060181
        0.9852859974,       -0.0624489188,-0.0851540565,-0.0457050130,-25.5158805847,-13.5363912582,100.7446060181
        0.9879591465,       -0.0624489188,-0.0851540565,-0.0457050130,-29.4221305847,-14.0551900864,99.1271743774
        0.9905591011,       -0.0624489188,-0.0851540565,-0.0457050130,-26.4314079285,-14.0551900864,99.1271743774
        0.9931371212,       -0.0624489188,-0.0851540565,-0.0457050130,-26.4314079285,-14.0551900864,97.4639663696
        0.9957079887,       -0.0067848563,-0.0514626503,-0.0305682961,-25.9889030457,-13.3990621567,97.4639663696
        0.9983880520,       -0.0067848563,-0.0514626503,-0.0305682961,-25.9889030457,-13.3990621567,95.9075698853
        1.0010910034,       -0.0067848563,-0.0514626503,-0.0305682961,-26.6145133972,-12.0410299301,95.9075698853
        1.0039191246,       -0.0067848563,-0.0514626503,-0.0027362648,-26.6145133972,-12.0410299301,94.4122085571
        1.0070731640,        0.0542502999,-0.0827126503,-0.0027362648,-28.7812614441,-11.3696432114,94.4122085571
        1.0097770691,        0.0542502999,-0.0827126503,-0.0027362648,-32.6875114441,-12.0562887192,94.0765151978
        1.0124750137,        0.0542502999,-0.0827126503,-0.0027362648,-33.0384635925,-12.0562887192,94.0765151978
        1.0152800083,        0.1133323312,-0.0314431190,0.0866192058,-37.4482536316,-14.1162252426,93.8628921509
        1.0179960728,        0.1133323312,-0.0314431190,0.0866192058,-37.4482536316,-14.1162252426,93.8628921509
        1.0206940174,        0.1133323312,-0.0314431190,0.0866192058,-40.8814811707,-16.8322887421,93.3135757446
        1.0233941078,        0.1133323312,-0.0314431190,0.0866192058,-40.8814811707,-16.8322887421,93.3135757446
        1.0260910988,        0.0356956124,0.0237326622,0.1681621671,-44.7877311707,-17.7478160858,93.0236587524
        1.0287799835,        0.0356956124,0.0237326622,0.1681621671,-41.8427848816,-17.7478160858,93.0236587524
        1.0314540863,        0.0356956124,0.0237326622,0.1681621671,-37.9365348816,-17.5647106171,92.7184829712
        1.0341310501,        0.0356956124,0.0237326622,0.1823223233,-40.6068229675,-17.5647106171,92.7184829712
        1.0367970467,       -0.0526832938,0.0012717247,0.1823223233,-40.6068229675,-18.1598033905,92.5048599243
        1.0394771099,       -0.0526832938,0.0012717247,0.1823223233,-39.4776725769,-18.1598033905,92.5048599243
        1.0420501232,       -0.0526832938,0.0012717247,0.1823223233,-39.4776725769,-18.1598033905,92.5964126587
        1.0446231365,       -0.0526832938,0.0461935997,0.1452129483,-37.3719596863,-19.0295543671,92.5964126587
        1.0472061634,       -0.1225075126,0.0461935997,0.1452129483,-37.3719596863,-19.0295543671,92.6727066040
        1.0497910976,       -0.1225075126,0.0461935997,0.1452129483,-33.2063102722,-19.7467174530,92.6727066040
        1.0523669720,       -0.1225075126,0.0461935997,0.1452129483,-33.2063102722,-19.7467174530,92.6727066040
        1.0549440384,       -0.2475075126,0.0901389122,0.0368145183,-25.9126091003,-18.9380016327,91.8945083618
        1.0576710701,       -0.1879372001,0.0901389122,0.0368145183,-25.9126091003,-18.9380016327,91.8945083618
        1.0602531433,       -0.1879372001,0.0901389122,0.0368145183,-16.1012077332,-17.4426403046,91.3604507446
        1.0628330708,       -0.1879372001,0.0901389122,0.0368145183,-16.1012077332,-17.4426403046,91.3604507446
        1.0654079914,       -0.2396950126,0.0051779747,-0.0447284505,-7.5410270691,-16.8322887421,91.3757095337
        1.0681490898,       -0.2396950126,0.0051779747,-0.0447284505,-7.5410270691,-16.8322887421,91.3757095337
        1.0708601475,       -0.2396950126,0.0051779747,-0.0447284505,-3.7110710144,-16.0083141327,92.0470962524
        1.0735590458,       -0.2396950126,0.0051779747,-0.0447284505,-3.7110710144,-16.0083141327,92.0470962524
        1.0762650967,       -0.1913551688,-0.2194314003,-0.1047870442,-3.3753776550,-17.0611705780,92.8558120728
        1.0790820122,       -0.1913551688,-0.2194314003,-0.1047870442,-3.3753776550,-17.0611705780,92.8558120728
        1.0817880630,       -0.1913551688,-0.2194314003,-0.1047870442,-7.9377555847,-19.3042125702,93.3440933228
        1.0844891071,       -0.1913551688,-0.2194314003,-0.0710956380,-7.9377555847,-19.3042125702,93.3440933228
        1.0871989727,       -0.0878395438,-0.1935524940,-0.0710956380,-16.3453483582,-22.8442516327,94.0459976196
        1.0897750854,       -0.0878395438,-0.1935524940,-0.0710956380,-16.3453483582,-22.8442516327,94.0459976196
        1.0923531055,       -0.0878395438,-0.1935524940,-0.0710956380,-25.4395866394,-26.0485973358,95.0988540649
        1.0949261189,       -0.0878395438,0.0515646935,0.0114238914,-25.4395866394,-26.0485973358,95.0988540649
        1.0975730419,       -0.1142067313,0.0515646935,0.0114238914,-31.0700798035,-27.2540416718,96.0601577759
        1.1002850533,       -0.1142067313,0.0515646935,0.0114238914,-31.0700798035,-27.2540416718,96.0601577759
        1.1029920578,       -0.1142067313,0.0515646935,0.0114238914,-32.7790641785,-27.0556774139,95.0683364868
        1.1056950092,       -0.1073707938,0.2000021935,0.0587871745,-32.7790641785,-27.0556774139,95.0683364868
        1.1084201336,       -0.1073707938,0.2000021935,0.0587871745,-31.2837028503,-27.2845592499,92.2912368774
        1.1111290455,       -0.1073707938,0.2000021935,0.0587871745,-31.2837028503,-27.2845592499,92.2912368774
        1.1138350964,       -0.1073707938,0.2000021935,0.0587871745,-27.2706413269,-27.3455944061,89.9261245728
        1.1165411472,       -0.0697731376,0.1609396935,0.0856426433,-27.2706413269,-27.3455944061,89.9261245728
        1.1192660332,       -0.0697731376,0.1609396935,0.0856426433,-22.9218864441,-26.1554088593,88.3239517212
        1.1219751835,       -0.0697731376,0.1609396935,0.0856426433,-22.9218864441,-26.1554088593,88.3239517212
        1.1248991489,       -0.0697731376,0.1609396935,0.1354473233,-19.7633171082,-25.9570446014,87.0574722290
        1.1280241013,       -0.0238747001,0.1028342247,0.1354473233,-19.7633171082,-25.9570446014,87.0574722290
        1.1307351589,       -0.0238747001,0.1028342247,0.1354473233,-17.3982048035,-26.3690319061,85.5315933228
        1.1334440708,       -0.0238747001,0.1028342247,0.1354473233,-17.3982048035,-26.3690319061,85.5315933228
        1.1361541748,       -0.0878395438,0.2654318810,0.2052715421,-16.3911247253,-26.1096324921,83.1207046509
        1.1387670040,       -0.0878395438,0.2654318810,0.2052715421,-16.3911247253,-26.1096324921,83.1207046509
        1.1413409710,       -0.0878395438,0.2654318810,0.2052715421,-12.2102165222,-25.8960094452,79.8400650024
        1.1439201832,       -0.0878395438,0.2654318810,0.2052715421,-12.2102165222,-25.8960094452,79.8400650024
        1.1466009617,       -0.0526832938,0.2732443810,0.0802715495,-5.1148796082,-26.5368785858,77.6427993774
        1.1493489742,       -0.0526832938,0.2732443810,0.0802715495,-5.1148796082,-26.5368785858,77.6427993774
        1.1520559788,       -0.0526832938,0.2732443810,0.0802715495,4.3150520325,-26.5063610077,75.0488052368
        1.1547620296,       -0.0526832938,0.2732443810,0.0802715495,4.3150520325,-26.5063610077,75.0488052368
        1.1574511528,       -0.0927223563,0.2966818810,0.0568340495,9.8997688293,-25.1330699921,71.4782485962
        1.1600279808,       -0.0927223563,0.2966818810,0.0568340495,9.8997688293,-25.1330699921,71.4782485962
        1.1626060009,       -0.0927223563,0.2966818810,0.0568340495,11.3340950012,-24.5684947968,68.4112319946
        1.1651799679,       -0.0927223563,0.2966818810,-0.0710956380,11.3340950012,-24.5684947968,68.4112319946
        1.1677689552,       -0.1884254813,0.2302756310,-0.0710956380,14.1111946106,-24.1412487030,67.2668228149
        1.1703419685,       -0.1884254813,0.2302756310,-0.0710956380,14.1111946106,-24.1412487030,67.2668228149
        1.1729199886,       -0.1884254813,0.2302756310,-0.0710956380,14.1111946106,-23.5461559296,68.1976089478
        1.1755001545,       -0.1884254813,0.2302756310,-0.0530292317,14.1111946106,-23.5461559296,68.1976089478
        1.1782319546,       -0.1234840751,0.0930685997,-0.0530292317,14.1111946106,-19.6399059296,68.7927017212
        1.1808121204,       -0.1234840751,0.0930685997,-0.0530292317,9.6556282043,-21.5625133514,68.7927017212
        1.1833910942,       -0.1234840751,0.0930685997,-0.0530292317,9.6556282043,-21.5625133514,67.7703628540
        1.1859650612,       -0.1234840751,0.1531271935,0.0895488933,1.3548469543,-20.0976696014,67.7703628540
        1.1887149811,       -0.1391090751,0.1531271935,0.0895488933,1.3548469543,-20.0976696014,66.4123306274
        1.1914250851,       -0.1391090751,0.1531271935,0.0895488933,-2.6429557800,-18.8922252655,66.4123306274
        1.1941311359,       -0.1391090751,0.1531271935,0.0895488933,-2.6429557800,-18.8922252655,65.3289566040
        1.1968450546,       -0.0282692313,0.1726584435,0.0714824870,-0.8576774597,-19.7924938202,65.3289566040
        1.1995520592,       -0.0282692313,0.1726584435,0.0714824870,-0.8576774597,-19.7924938202,64.6270523071
        1.2022590637,       -0.0282692313,0.1726584435,0.0714824870,3.1401252747,-20.5859508514,64.6270523071
        1.2049610615,       -0.0282692313,0.1726584435,0.0714824870,3.1401252747,-20.5859508514,63.8641128540
        1.2076771259,       -0.0165504813,0.1682639122,0.1237285808,6.4512825012,-19.3957653046,63.8641128540
        1.2104899883,       -0.0165504813,0.1682639122,0.1237285808,6.4512825012,-19.3957653046,61.5600357056
        1.2131969929,       -0.0165504813,0.1682639122,0.1237285808,6.3139533997,-17.6257457733,61.5600357056
        1.2158970833,       -0.0165504813,0.1682639122,0.0788067058,6.3139533997,-17.6257457733,59.3322525024
        1.2186160088,       -0.0976051688,0.2615256310,0.0788067058,4.6660041809,-17.5494518280,59.3322525024
        1.2213170528,       -0.0976051688,0.2615256310,0.0788067058,4.6660041809,-17.5494518280,57.7911148071
        1.2240240574,       -0.0976051688,0.2615256310,0.0788067058,7.1989631653,-17.1069469452,57.7911148071
        1.2267260551,       -0.0077614188,0.3074240685,0.0519512370,7.1989631653,-17.1069469452,56.8755874634
        1.2294371128,       -0.0077614188,0.3074240685,0.0519512370,11.8986701965,-16.3897838593,56.8755874634
        1.2321469784,       -0.0077614188,0.3074240685,0.0519512370,11.8986701965,-16.3897838593,55.2734146118
        1.2348611355,       -0.0077614188,0.3074240685,0.0519512370,15.9880256653,-15.5200338364,55.2734146118
        1.2375869751,       -0.0634254813,0.2937521935,0.0734356120,15.9880256653,-15.5200338364,52.7251968384
        1.2402930260,       -0.0634254813,0.2937521935,0.0734356120,16.5983772278,-13.9331197739,52.7251968384
        1.2430660725,       -0.0634254813,0.2937521935,0.0734356120,16.5983772278,-13.9331197739,50.6194839478
        1.2458090782,       -0.0634254813,0.2937521935,0.0734356120,18.4752082825,-12.3309469223,50.6194839478
        1.2489609718,       -0.0761207938,0.2502951622,0.0705059245,18.4752082825,-12.3309469223,48.6053237915
        1.2516691685,       -0.0761207938,0.2502951622,0.0705059245,19.5585823059,-10.8661031723,48.6053237915
        1.2543790340,       -0.0761207938,0.2502951622,0.0705059245,19.5585823059,-6.9598526955,46.1639175415
        1.2571260929,       -0.0468239188,0.2361350060,0.0827129558,19.1008186340,-8.5925436020,46.1639175415
        1.2598330975,       -0.0468239188,0.2361350060,0.0827129558,19.1008186340,-8.5925436020,43.2037124634
        1.2625429630,       -0.0468239188,0.2361350060,0.0827129558,17.2697639465,-6.5936417580,43.2037124634
        1.2652499676,       -0.0468239188,0.2361350060,0.0827129558,17.2697639465,-2.6873917580,39.7399673462
        1.2679631710,       -0.0214332938,0.3167014122,0.0709942058,15.7896614075,-5.8001847267,39.7399673462
        1.2706689835,       -0.0214332938,0.3167014122,0.0709942058,15.7896614075,-9.7064352036,35.5590591431
        1.2733790874,       -0.0214332938,0.3167014122,0.0709942058,15.8812141418,-7.0666642189,35.5590591431
        1.2761940956,       -0.0214332938,0.3167014122,0.0709942058,15.8812141418,-7.0666642189,31.8359146118
        1.2788481712,        0.0254417062,0.3567404747,0.0475567058,16.4610481262,-8.6383199692,31.8359146118
        1.2814290524,        0.0254417062,0.3567404747,0.0475567058,16.4610481262,-8.6383199692,28.0517349243
        1.2840020657,        0.0254417062,0.3567404747,0.0475567058,16.9340705872,-11.0186910629,28.0517349243
        1.2865781784,        0.0254417062,0.3567404747,0.0607402995,16.9340705872,-11.0186910629,24.1454849243
        1.2891671658,        0.0371604562,0.3562521935,0.0607402995,16.4152717590,-12.7429342270,23.9318618774
        1.2917430401,        0.0371604562,0.3562521935,0.0607402995,16.4152717590,-12.7429342270,23.9318618774
        1.2943201065,        0.0371604562,0.3562521935,0.0607402995,13.7907600403,-14.8028707504,19.1406021118
        1.2969760895,        0.0371604562,0.3630881310,0.0661113933,13.7907600403,-14.8028707504,19.1406021118
        1.2995631695,        0.0654807687,0.3630881310,0.0661113933,12.6158332825,-16.4508190155,14.7918462753
        1.3021399975,        0.0654807687,0.3630881310,0.0661113933,12.6158332825,-16.4508190155,14.7918462753
        1.3047130108,        0.0654807687,0.3630881310,0.0661113933,12.8294563293,-17.7783336639,10.5956792831
        1.3074581623,       -0.0595192313,0.3997092247,0.0822246745,12.8294563293,-17.7783336639,10.5956792831
        1.3101651669,        0.0215354562,0.3997092247,0.0822246745,13.0278205872,-17.4884166718,6.4147710800
        1.3128731251,        0.0215354562,0.3997092247,0.0822246745,13.0278205872,-17.4884166718,6.4147710800
        1.3155870438,        0.0215354562,0.3997092247,0.0822246745,14.7368049622,-16.0083141327,2.2491216660
        1.3183410168,       -0.0297340751,0.3713889122,0.0778301433,14.7368049622,-16.0083141327,2.2491216660
        1.3210480213,       -0.0297340751,0.3713889122,0.0778301433,16.7357063293,-14.9249410629,-2.6184320450
        1.3237531185,       -0.0297340751,0.3713889122,0.0778301433,16.7357063293,-14.9249410629,-2.6184320450
        1.3264591694,       -0.0297340751,0.3713889122,0.0778301433,19.6806526184,-13.4753561020,-7.0282220840
        1.3290691376,       -0.1107887626,0.3513693810,0.1154277995,19.6806526184,-13.4753561020,-7.0282220840
        1.3316481113,       -0.1107887626,0.3513693810,0.1154277995,25.8909797668,-10.4083395004,-11.7584466934
        1.3342251778,       -0.1107887626,0.3513693810,0.1154277995,25.8909797668,-10.4083395004,-11.7584466934
        1.3368511200,       -0.1107887626,0.3513693810,0.1662090421,30.8958625793,-6.9445939064,-17.5720443726
        1.3396601677,       -0.1796364188,0.4343771935,0.1662090421,30.8958625793,-6.9445939064,-17.5720443726
        1.3423609734,       -0.1796364188,0.4343771935,0.1662090421,37.7928352356,-2.9773087502,-23.8739242554
        1.3450691700,       -0.1796364188,0.4343771935,0.1662090421,37.7928352356,-2.9773087502,-23.8739242554
        1.3477871418,       -0.1796364188,0.3835959435,0.2287090421,46.6276741028,3.0193953514,-29.8553695679
        1.3504970074,       -0.1679176688,0.3835959435,0.2287090421,46.6276741028,3.0193953514,-29.8553695679
        1.3532011509,       -0.1679176688,0.3835959435,0.2287090421,57.2935676575,7.6733260155,-33.7005844116
        1.3559081554,       -0.1679176688,0.3835959435,0.2287090421,57.2935676575,7.6733260155,-33.7005844116
        1.3585510254,       -0.1059059501,0.2659201622,0.2960918546,69.6074066162,8.4515237808,-36.3403549194
        1.3611261845,       -0.1059059501,0.2659201622,0.2960918546,69.6074066162,8.4515237808,-36.3403549194
        1.3638150692,       -0.1059059501,0.2659201622,0.2960918546,73.7883148193,7.0629744530,-39.7888412476
        1.3664040565,       -0.1059059501,0.2659201622,0.2960918546,73.7883148193,7.0629744530,-39.7888412476
        1.3694341183,       -0.0829567313,0.3064475060,0.2824199796,73.9561614990,6.4983992577,-44.7326889038
        1.3720099926,       -0.0829567313,0.3064475060,0.2824199796,73.9561614990,6.4983992577,-44.7326889038
        1.3745830059,       -0.0829567313,0.3064475060,0.2824199796,70.0499114990,6.9409041405,-50.2868881226
        1.3771829605,       -0.0829567313,0.3064475060,0.1574199796,71.3163909912,6.9409041405,-50.2868881226
        1.3798880577,       -0.0873512626,0.4011740685,0.2160137296,67.4101409912,7.5817732811,-57.1686019897
        1.3825919628,       -0.0873512626,0.4011740685,0.2160137296,66.7845306396,7.5817732811,-57.1686019897
        1.3852989674,       -0.0873512626,0.4011740685,0.2160137296,66.7845306396,9.4280862808,-64.4775619507
        1.3880171776,       -0.0873512626,0.4241232872,0.1188457683,64.1447601318,9.4280862808,-64.4775619507
        1.3907289505,       -0.1322731376,0.4241232872,0.1188457683,60.2385139465,12.2051858902,-72.0306625366
        1.3934381008,       -0.1322731376,0.4241232872,0.1188457683,61.2303352356,12.2051858902,-72.0306625366
        1.3961491585,       -0.1322731376,0.4241232872,0.1188457683,57.3240852356,17.2863636017,-80.6213607788
        1.3987619877,       -0.2392067313,0.5461935997,0.0421856120,56.2559700012,17.2863636017,-80.6213607788
        1.4016070366,       -0.2392067313,0.5461935997,0.0421856120,52.7464485168,23.3593616486,-91.1957015991
        1.4048891068,       -0.2392067313,0.5461935997,0.0421856120,52.7464485168,23.3593616486,-91.1957015991
        1.4075620174,       -0.2392067313,0.5461935997,0.0421856120,49.9083137512,30.5920276642,-102.8534164429
        1.4101340771,       -0.3954567313,0.6389670372,-0.0193378273,49.9083137512,30.5920276642,-102.8534164429
        1.4127099514,       -0.3954567313,0.6389670372,-0.0193378273,46.3072395325,38.4197845459,-116.2658920288
        1.4152810574,       -0.3954567313,0.6389670372,-0.0193378273,46.3072395325,38.4197845459,-116.2658920288
        1.4179091454,       -0.3954567313,0.6389670372,-0.0149432961,46.3072395325,46.3543548584,-132.4554748535
        1.4204850197,       -0.5741676688,0.6726584435,-0.0149432961,40.7835578918,46.3543548584,-132.4554748535
        1.4230580330,       -0.5741676688,0.6726584435,-0.0149432961,40.7835578918,46.3543548584,-149.8962707520
        1.4256379604,       -0.5741676688,0.6726584435,-0.0149432961,33.5203742981,54.1668548584,-149.8962707520
        1.4282701015,       -0.5741676688,0.7092795372,-0.0549823567,33.5203742981,54.1668548584,-167.1692199707
        1.4308440685,       -0.8554176688,0.7092795372,-0.0549823567,27.8746223450,61.4605560303,-167.1692199707
        1.4334220886,       -0.8554176688,0.7092795372,-0.0549823567,27.8746223450,61.4605560303,-167.1692199707
        1.4359941483,       -0.8554176688,0.7092795372,-0.0549823567,25.3721809387,68.9221038818,-187.1734924316
        1.4385781288,       -0.8554176688,0.7703146935,-0.0320331380,25.3721809387,68.9221038818,-187.1734924316
        1.4411580563,       -1.2924294472,0.7703146935,-0.0320331380,24.7465705872,75.7733001709,-210.7788391113
        1.4437301159,       -1.2924294472,0.7703146935,-0.0320331380,24.7465705872,75.7733001709,-210.7788391113
        1.4463040829,       -1.2924294472,0.7703146935,-0.0320331380,24.7923469543,81.3122406006,-234.8419494629
        1.4490129948,       -1.9682106972,0.6575217247,0.0807598308,24.7923469543,81.3122406006,-234.8419494629
        1.4515900612,       -1.9682106972,0.6575217247,0.0807598308,24.5024299622,82.8686370850,-260.2325744629
        1.4541690350,       -1.9682106972,0.6575217247,0.0807598308,24.5024299622,82.8686370850,-260.2325744629
        1.4567551613,       -1.9682106972,0.6575217247,0.0807598308,22.7934455872,79.3133392334,-288.5071105957
        1.4596161842,       -2.7133278847,0.0393576622,0.2414043546,22.7934455872,79.3133392334,-288.5071105957
        1.4623291492,       -2.7133278847,0.0393576622,0.2414043546,22.8849983215,73.1487884521,-321.8017883301
        1.4650349617,       -2.7133278847,0.0393576622,0.2414043546,22.8849983215,73.1487884521,-321.8017883301
        1.4678330421,       -2.7133278847,0.0393576622,0.2414043546,23.8768196106,69.2272796631,-360.9710998535
        1.4704110622,       -2.9647927284,-1.0656228065,0.4957988858,23.8768196106,69.2272796631,-360.9710998535
        1.4729850292,       -2.9647927284,-1.0656228065,0.4957988858,25.1432991028,57.8747406006,-403.6957092285
        1.4755611420,       -2.9647927284,-1.0656228065,0.4957988858,25.1432991028,57.8747406006,-403.6957092285
        1.4782111645,       -2.9647927284,-1.0656228065,0.3707988858,37.5334358215,43.6382904053,-439.1113586426
        1.4809150696,       -2.9135231972,-1.5509743690,0.4166973233,37.5334358215,43.6382904053,-439.1113586426
        1.4836220741,       -2.9135231972,-1.5509743690,0.4166973233,26.7759895325,26.8841419220,-454.5685119629
        1.4863271713,       -2.9135231972,-1.5509743690,0.4166973233,26.7759895325,26.8841419220,-454.5685119629
        1.4890470505,       -2.9135231972,-0.4318337440,0.6847637296,-23.1355094910,5.2776961327,-425.8209533691
        1.4917521477,       -3.0702614784,-0.4318337440,0.6847637296,-23.1355094910,5.2776961327,-425.8209533691
        1.4944541454,       -3.0702614784,-0.4318337440,0.6847637296,-39.8896598816,4.7894148827,-336.9842834473
        1.4971740246,       -3.0702614784,-0.4318337440,0.6847637296,-39.8896598816,4.7894148827,-336.9842834473
        1.4998860359,       -1.3002419472,4.1726584435,1.2340801954,-14.4074821472,77.1008148193,-217.6758117676
        1.5025961399,       -1.3002419472,4.1726584435,1.2340801954,-14.4074821472,77.1008148193,-217.6758117676
        1.5053000450,       -1.3002419472,4.1726584435,1.2340801954,-17.7033805847,89.0179290771,-108.9264144897
        1.5080189705,       -1.3002419472,4.1726584435,1.2340801954,-17.7033805847,89.0179290771,-108.9264144897
        1.5107231140,        2.9707541466,4.5837912560,1.0563458204,59.9638557434,-24.0802135468,-8.3709955215
        1.5136201382,        2.9707541466,4.5837912560,1.0563458204,59.9638557434,-24.0802135468,-8.3709955215
        1.5166721344,        2.9707541466,4.5837912560,1.0563458204,119.5799407959,-68.2544097900,96.2890396118
        1.5192770958,        2.9707541466,-1.0758767128,0.3253887296,119.5799407959,-68.2544097900,96.2890396118
        1.5218560696,       -0.1122536063,-1.0758767128,0.3253887296,119.1984710693,-30.1532115936,181.6009216309
        1.5244350433,       -0.1122536063,-1.0758767128,0.3253887296,119.1984710693,-30.1532115936,181.6009216309
        1.5270841122,       -0.1122536063,-1.0758767128,0.3253887296,122.8605804443,-21.0284557343,238.8213806152
        1.5297880173,       -0.7089332938,-0.3029274940,-0.6702167392,122.8605804443,-21.0284557343,238.8213806152
        1.5326039791,       -0.7089332938,-0.3029274940,-0.6702167392,65.1670989990,-15.7946920395,282.9497985840
        1.5353171825,       -0.7089332938,-0.3029274940,-0.6702167392,65.1670989990,-15.7946920395,282.9497985840
        1.5380361080,       -0.7089332938,-0.3029274940,-0.6702167392,-13.1715202332,-11.8274068832,314.3218688965
        1.5407471657,       -0.2016090751,0.4451193810,-0.0696307942,-13.1715202332,-11.8274068832,314.3218688965
        1.5434560776,       -0.2016090751,0.4451193810,-0.0696307942,-64.9903717041,-23.0120983124,318.3044128418
        1.5461690426,       -0.2016090751,0.4451193810,-0.0696307942,-64.9903717041,-23.0120983124,318.3044128418
        1.5487840176,       -0.2016090751,0.4451193810,-0.3196308017,-92.3341217041,-34.0747222900,306.8298034668
        1.5513660908,       -0.3842262626,-0.7711892128,-0.3821308017,-90.4115142822,-34.0747222900,306.8298034668
        1.5539481640,       -0.3842262626,-0.7711892128,-0.3821308017,-90.4115142822,-33.3117828369,289.4042663574
        1.5565211773,       -0.3842262626,-0.7711892128,-0.3821308017,-98.5597076416,-33.3117828369,289.4042663574
        1.5591921806,       -0.3842262626,-0.7711892128,-0.8894550204,-98.5597076416,-29.4055309296,268.1182556152
        1.5617740154,       -0.4164528251,-1.3302712440,-0.8894550204,-110.2326812744,-28.6578502655,268.1182556152
        1.5643520355,       -0.4164528251,-1.3302712440,-0.8894550204,-110.2326812744,-28.6578502655,246.0693054199
        1.5670311451,       -0.4164528251,-1.3302712440,-0.8894550204,-128.2533111572,-26.6436901093,246.0693054199
        1.5697581768,       -0.4164528251,-0.6559548378,-0.7131854892,-128.2533111572,-26.6436901093,225.4089050293
        1.5724689960,        0.0884299874,-0.6559548378,-0.7131854892,-136.2183990479,-26.6284313202,225.4089050293
        1.5751721859,        0.0884299874,-0.6559548378,-0.7131854892,-136.2183990479,-26.6284313202,205.4961853027
        1.5779311657,        0.0884299874,-0.6559548378,-0.7131854892,-125.8881988525,-30.6720104218,205.4961853027
        1.5806391239,        0.4790549874,-0.4386696815,-0.6414081454,-125.8881988525,-30.6720104218,185.0188903809
        1.5833489895,        0.4790549874,-0.4386696815,-0.6414081454,-101.3215484619,-34.3341217041,185.0188903809
        1.5860590935,        0.4790549874,-0.4386696815,-0.6414081454,-101.3215484619,-34.3341217041,159.7045593262
        1.5887751579,        0.4790549874,-0.4386696815,-0.6414081454,-73.1385650635,-25.6671276093,159.7045593262
        1.5914831161,        0.4023948312,-1.3444314003,-0.7058612704,-73.1385650635,-25.6671276093,126.8371353149
        1.5941941738,        0.4023948312,-1.3444314003,-0.7058612704,-57.9865837097,-5.4034562111,126.8371353149
        1.5970520973,        0.4023948312,-1.3444314003,-0.7058612704,-57.9865837097,-5.4034562111,90.0329360962
        1.5996291637,        0.4023948312,-1.3444314003,-0.6062518954,-66.6840972900,13.3648538589,90.0329360962
        1.6022040844,        0.6982932687,-1.9005837440,-0.6062518954,-66.6840972900,13.3648538589,90.0329360962
        1.6047790051,        0.6982932687,-1.9005837440,-0.6062518954,-94.6076812744,22.9015979767,53.3050308228
        1.6073851585,        0.6982932687,-1.9005837440,-0.6062518954,-94.6076812744,22.9015979767,53.3050308228
        1.6099610329,        0.6982932687,-1.6505837440,-0.4959003329,-126.1628570557,26.8383655548,17.6757583618
        1.6125340462,        1.2607932091,-1.6164040565,-0.4959003329,-126.1628570557,26.8383655548,17.6757583618
        1.6151130199,        1.2607932091,-1.6164040565,-0.4959003329,-148.0287017822,28.6236438751,-15.1916742325
        1.6177539825,        1.2607932091,-1.6164040565,-0.4959003329,-148.0287017822,28.6236438751,-15.1916742325
        1.6203279495,        1.2607932091,-0.7916970253,-0.1262714267,-154.9867095947,26.6857776642,-46.1059799194
        1.6229040623,        1.3584494591,-0.7916970253,-0.1262714267,-154.9867095947,26.6857776642,-46.1059799194
        1.6255970001,        1.3584494591,-0.7916970253,-0.1262714267,-145.4652252197,23.1915149689,-72.0764389038
        1.6285500526,        1.3584494591,-0.7916970253,-0.1262714267,-145.4652252197,23.1915149689,-72.0764389038
        1.6311299801,        0.8369651437,-0.0436501503,0.0646465495,-121.5852203369,25.6329212189,-89.8681869507
        1.6337080002,        0.8369651437,-0.0436501503,0.0646465495,-121.5852203369,25.6329212189,-89.8681869507
        1.6362850666,        0.8369651437,-0.0436501503,0.0646465495,-84.7810211182,29.9358997345,-95.6970443726
        1.6388909817,        0.8369651437,-0.0436501503,0.0646465495,-84.7810211182,29.9358997345,-95.6970443726
        1.6414649487,        0.5127463937,0.1111350060,0.0763652995,-39.6455192566,28.0590686798,-100.9765853882
        1.6440429688,        0.5127463937,0.1111350060,0.0763652995,-39.6455192566,28.0590686798,-100.9765853882
        1.6466181278,        0.5127463937,0.1111350060,0.0763652995,-0.5830192566,29.0051136017,-98.7640609741
        1.6492371559,        0.5127463937,0.1111350060,0.0763652995,-2.2767448425,29.0051136017,-98.7640609741
        1.6518080235,        0.3955588937,-0.0231423378,0.0592754558,-2.2767448425,25.0988636017,-98.0316390991
        1.6543810368,        0.3955588937,-0.0231423378,0.0592754558,20.9318733215,26.8536243439,-98.0316390991
        1.6569521427,        0.3955588937,-0.0231423378,0.0592754558,20.9318733215,26.8536243439,-97.7874984741
        1.6596481800,        0.3955588937,-0.0231423378,0.0592754558,33.5203742981,23.9239368439,-97.7874984741
        1.6622209549,        0.4238792062,-0.1559548378,-0.0310565773,33.5203742981,23.9239368439,-93.8812484741
        1.6647951603,        0.4238792062,-0.1559548378,-0.0310565773,38.8762092590,19.3768177032,-94.9188461304
        1.6673879623,        0.4238792062,-0.1559548378,-0.0310565773,38.8762092590,19.3768177032,-94.9188461304
        1.6699690819,        0.4238792062,-0.1559548378,-0.0310565773,42.2941780090,13.0596780777,-90.2496566772
        1.6725499630,        0.4673362374,-0.1256814003,-0.0417987630,42.2941780090,13.0596780777,-90.2496566772
        1.6751341820,        0.4673362374,-0.1256814003,-0.0417987630,48.8859748840,7.2460799217,-82.8491439819
        1.6778559685,        0.4673362374,-0.1256814003,-0.0417987630,48.8859748840,7.2460799217,-82.8491439819
        1.6804280281,        0.4673362374,-0.1256814003,-0.0598651692,60.7878303528,4.4994978905,-74.5636215210
        1.6830091476,        0.4663596749,0.0193381310,-0.0598651692,60.7878303528,4.4994978905,-74.5636215210
        1.6855859756,        0.4663596749,0.0193381310,-0.0598651692,74.9479827881,3.3245711327,-66.1255111694
        1.6882550716,        0.4663596749,0.0193381310,-0.0598651692,74.9479827881,3.3245711327,-66.1255111694
        1.6908311844,        0.4663596749,0.1047873497,-0.1199237630,86.4225921631,2.4243025780,-58.1451644897
        1.6934080124,        0.4526877999,0.1047873497,-0.1199237630,86.4225921631,2.4243025780,-58.1451644897
        1.6959819794,        0.4526877999,0.1047873497,-0.1199237630,94.6318206787,1.4935163260,-51.2176742554
        1.6985681057,        0.4526877999,0.1047873497,-0.1199237630,94.6318206787,1.4935163260,-51.2176742554
        1.7011439800,        0.4526877999,0.0588889122,-0.1726581454,102.4443206787,1.3409284353,-45.5871810913
        1.7037200928,        0.3926292062,0.0588889122,-0.1726581454,99.6519622803,1.3409284353,-45.5871810913
        1.7062890530,        0.3926292062,0.0588889122,-0.1726581454,99.6519622803,5.2471785545,-39.7735824585
        1.7088999748,        0.3926292062,0.0588889122,-0.1726581454,98.7516937256,1.7529157400,-39.7735824585
        1.7114741802,        0.3926292062,-0.0690407753,-0.1970722079,98.7516937256,1.7529157400,-34.0362777710
        1.7140460014,        0.3804221749,-0.0690407753,-0.1970722079,91.2748870850,2.4853377342,-34.0362777710
        1.7166149616,        0.3804221749,-0.0690407753,-0.1970722079,91.2748870850,2.4853377342,-26.2237777710
        1.7192540169,        0.3804221749,-0.0690407753,-0.1970722079,79.2051849365,3.4008650780,-27.5360336304
        1.7219271660,        0.4321799874,-0.2257790565,-0.1951190829,79.2051849365,3.4008650780,-27.5360336304
        1.7245020866,        0.4321799874,-0.2257790565,-0.1951190829,64.5414886475,4.4384627342,-21.0205307007
        1.7271251678,        0.4321799874,-0.2257790565,-0.1951190829,64.5414886475,4.4384627342,-21.0205307007
        1.7297000885,        0.4321799874,-0.2257790565,-0.1951190829,48.8401985168,5.7812361717,-15.6036615372
        1.7322721481,        0.4805198312,-0.3029274940,-0.1868183017,48.8401985168,5.7812361717,-15.6036615372
        1.7348430157,        0.4805198312,-0.3029274940,-0.1868183017,33.4440803528,6.4221053123,-11.9873285294
        1.7374081612,        0.4805198312,-0.3029274940,-0.1868183017,33.4440803528,6.4221053123,-11.9873285294
        1.7399811745,        0.4805198312,-0.3029274940,-0.1868183017,20.1231575012,6.8188338280,-9.8968744278
        1.7425601482,        0.5156760812,-0.2448220253,-0.1487323642,20.1231575012,6.8188338280,-9.8968744278
        1.7452170849,        0.5156760812,-0.2448220253,-0.1487323642,10.3117561340,7.5359969139,-9.1034173965
        1.7481839657,        0.5156760812,-0.2448220253,-0.1487323642,10.3117561340,7.5359969139,-9.1034173965
        1.7508909702,        0.5156760812,-0.2448220253,-0.0237323586,4.4828987122,7.8106551170,-9.7595453262
        1.7535910606,        0.5415549874,-0.1559548378,-0.1116229817,4.4828987122,7.8106551170,-9.7595453262
        1.7562911510,        0.5415549874,-0.1559548378,-0.1116229817,2.6213264465,8.2989358902,-10.5682611465
        1.7589051723,        0.5415549874,-0.1559548378,-0.1116229817,2.6213264465,8.2989358902,-10.5682611465
        1.7614781857,        0.5415549874,-0.1559548378,-0.0671893880,4.9711799622,8.2073831558,-12.5824213028
        1.7640450001,        0.5610862374,-0.0958962440,-0.0671893880,4.9711799622,8.2073831558,-12.5824213028
        1.7666151524,        0.5610862374,-0.0958962440,-0.0671893880,9.8539924622,8.4667825699,-15.3900384903
        1.7693591118,        0.5610862374,-0.0958962440,-0.0671893880,9.8539924622,8.4667825699,-15.3900384903
        1.7720680237,        0.5610862374,-0.0841774940,-0.0198261086,16.5068244934,8.2836771011,-17.1600570679
        1.7747759819,        0.5371604562,-0.0841774940,-0.0198261086,16.5068244934,8.2836771011,-17.1600570679
        1.7775051594,        0.5371604562,-0.0841774940,-0.0198261086,23.6784553528,7.6428084373,-18.9300765991
        1.7800731659,        0.5371604562,-0.0841774940,-0.0198261086,23.6784553528,7.6428084373,-18.9300765991
        1.7826499939,        0.5283713937,-0.0856423378,0.0114238914,23.6784553528,7.0782332420,-19.6777572632
        1.7852270603,        0.5283713937,-0.0856423378,0.0114238914,31.4146614075,7.0782332420,-19.6777572632
        1.7879130840,        0.5283713937,-0.0856423378,0.0114238914,31.4146614075,7.0782332420,-19.5404281616
        1.7904951572,        0.5283713937,-0.0856423378,0.0114238914,39.0440559387,6.2237410545,-19.5404281616
        1.7930691242,        0.5210471749,-0.1129860878,0.0519512370,39.0440559387,6.2237410545,-18.2892074585
        1.7956480980,        0.5210471749,-0.1129860878,0.0519512370,45.9715461731,4.4689803123,-18.2892074585
        1.7984089851,        0.5210471749,-0.1129860878,0.0519512370,45.9715461731,4.4689803123,-15.8020257950
        1.8009841442,        0.5210471749,-0.1129860878,0.0519512370,52.8227424622,3.3550887108,-15.8020257950
        1.8035600185,        0.5303245187,-0.1300759315,0.0900371745,52.8227424622,3.3550887108,-15.8020257950
        1.8061370850,        0.5303245187,-0.1300759315,0.0900371745,59.9943733215,1.9207624197,-12.5061273575
        1.8088879585,        0.5303245187,-0.1300759315,0.0900371745,59.9943733215,1.9207624197,-12.5061273575
        1.8115930557,        0.5303245187,-0.1300759315,0.1149395183,66.8455657959,-0.4290910959,-9.4391107559
        1.8141660690,        0.5654807687,-0.1920876503,0.1149395183,66.8455657959,-0.4290910959,-9.4391107559
        1.8167440891,        0.5654807687,-0.1920876503,0.1149395183,73.5441741943,-3.2061905861,-7.4249505997
        1.8194999695,        0.5654807687,-0.1920876503,0.1149395183,73.5441741943,-3.2061905861,-7.4249505997
        1.8229470253,        0.5605979562,-0.2707009315,0.0602520183,79.3577728271,-5.5407853127,-7.0739984512
        1.8255310059,        0.5605979562,-0.2707009315,0.0602520183,79.3577728271,-5.5407853127,-7.0739984512
        1.8281641006,        0.5605979562,-0.2707009315,0.0602520183,84.6525726318,-7.1887345314,-7.8216791153
        1.8307330608,        0.5605979562,-0.2707009315,0.0602520183,84.6525726318,-7.1887345314,-7.8216791153
        1.8333110809,        0.5313010812,-0.3815407753,-0.0300800148,88.0552825928,-6.9751114845,-10.7208490372
        1.8358809948,        0.5313010812,-0.3815407753,-0.0300800148,88.0552825928,-6.9751114845,-10.7208490372
        1.8385150433,        0.5313010812,-0.3815407753,-0.0300800148,88.1163177490,-5.0372452736,-14.3829584122
        1.8410940170,        0.5313010812,-0.3815407753,-0.0300800148,88.1163177490,-5.0372452736,-14.3829584122
        1.8436629772,        0.5303245187,-0.4723610878,-0.1008807942,84.1185150146,-2.6873917580,-18.9758529663
        1.8462400436,        0.5303245187,-0.4723610878,-0.1008807942,84.1185150146,-2.6873917580,-18.9758529663
        1.8488521576,        0.5303245187,-0.4723610878,-0.1008807942,75.5430755615,0.3185895681,-23.9197006226
        1.8515479565,        0.5303245187,-0.4723610878,-0.1008807942,75.5430755615,0.3185895681,-23.9197006226
        1.8541281223,        0.5625510812,-0.5119118690,-0.1091815755,63.1529426575,2.9583601952,-28.8025131226
        1.8567039967,        0.5625510812,-0.5119118690,-0.1091815755,63.1529426575,2.9583601952,-28.8025131226
        1.8592810631,        0.5625510812,-0.5119118690,-0.1091815755,48.1840705872,4.5452742577,-33.5022201538
        1.8618550301,        0.5625510812,-0.5119118690,-0.1091815755,48.1840705872,4.5452742577,-33.5022201538
        1.8644330502,        0.6016135812,-0.4943337440,-0.0627948567,28.6528205872,5.5981307030,-38.0951156616
        1.8672370911,        0.6016135812,-0.4943337440,-0.0627948567,32.2386360168,5.5981307030,-38.0951156616
        1.8698050976,        0.6016135812,-0.4943337440,-0.0627948567,20.5198860168,6.6357283592,-42.8100814819
        1.8723771572,        0.6016135812,-0.4943337440,-0.0584003255,17.9716682434,6.6357283592,-42.8100814819
        1.8749501705,        0.6011252999,-0.4503884315,-0.0584003255,17.9716682434,6.6357283592,-46.8078842163
        1.8776621819,        0.6011252999,-0.4503884315,-0.0584003255,5.4594612122,7.0019392967,-46.8078842163
        1.8802289963,        0.6011252999,-0.4503884315,-0.0584003255,5.4594612122,7.0019392967,-50.1648178101
        1.8828001022,        0.6011252999,-0.3800759315,-0.0457050130,-5.0538444519,8.0547952652,-50.1648178101
        1.8853659630,        0.5557151437,-0.3800759315,-0.0457050130,-5.0538444519,8.0547952652,-50.1648178101
        1.8879480362,        0.5557151437,-0.3800759315,-0.0457050130,-13.9802360535,9.2907571793,-52.9266586304
        1.8905160427,        0.5557151437,-0.3800759315,-0.0457050130,-13.9802360535,9.2907571793,-52.9266586304
        1.8930890560,        0.5557151437,-0.3097634315,-0.0530292317,-23.5627555847,10.6030130386,-55.1544418335
        1.8956680298,        0.5068870187,-0.3097634315,-0.0530292317,-23.5627555847,10.6030130386,-55.1544418335
        1.8982830048,        0.5068870187,-0.3097634315,-0.0530292317,-33.7251091003,11.8694925308,-56.8481674194
        1.9008531570,        0.5068870187,-0.3097634315,-0.0530292317,-33.7251091003,11.8694925308,-56.8481674194
        1.9034321308,        0.4780784249,-0.2619118690,-0.0466815755,-43.2923698425,12.7697610855,-57.9773178101
        1.9060101509,        0.4780784249,-0.2619118690,-0.0466815755,-43.2923698425,12.7697610855,-57.9773178101
        1.9086871147,        0.4780784249,-0.2619118690,-0.0466815755,-52.7680778503,12.9833841324,-58.2214584351
        1.9113950729,        0.4780784249,-0.2619118690,-0.0466815755,-52.7680778503,12.9833841324,-58.2214584351
        1.9141311646,        0.4766135812,-0.2326149940,-0.0242206398,-60.5042839050,13.2733011246,-58.0993881226
        1.9167151451,        0.4766135812,-0.2326149940,-0.0242206398,-60.5042839050,13.2733011246,-58.0993881226
        1.9195051193,        0.4766135812,-0.2326149940,-0.0242206398,-65.2650299072,12.9376077652,-57.6874008179
        1.9227089882,        0.4766135812,-0.2057595253,0.0138652977,-65.2650299072,12.9376077652,-57.6874008179
        1.9258980751,        0.4634299874,-0.2057595253,0.0138652977,-66.8214263916,12.2967386246,-57.1380844116
        1.9285411835,        0.4634299874,-0.2057595253,0.0138652977,-66.8214263916,12.2967386246,-57.1380844116
        1.9311189651,        0.4634299874,-0.2057595253,0.0138652977,-65.6159820557,10.6182718277,-56.6803207397
        1.9336850643,        0.4634299874,-0.2086892128,0.0036113914,-65.6159820557,10.6182718277,-56.6803207397
        1.9362530708,        0.4595237374,-0.2086892128,0.0036113914,-61.9691276550,8.9092874527,-56.4056625366
        1.9388771057,        0.4595237374,-0.2086892128,0.0036113914,-61.9691276550,8.9092874527,-56.4056625366
        1.9414470196,        0.4595237374,-0.2086892128,0.0036113914,-56.2318229675,7.4749617577,-56.0547103882
        1.9440250397,        0.4380393624,-0.2018532753,-0.0261737648,-56.2318229675,7.4749617577,-56.0547103882
        1.9465930462,        0.4380393624,-0.2018532753,-0.0261737648,-50.0520133972,6.7425398827,-55.7190170288
        1.9492180347,        0.4380393624,-0.2018532753,-0.0261737648,-50.0520133972,6.7425398827,-55.7190170288
        1.9517929554,        0.4380393624,-0.2018532753,-0.0261737648,-44.1316032410,5.6896834373,-54.4525375366
        1.9543631077,        0.4209495187,-0.1774392128,0.0202129539,-44.1316032410,5.6896834373,-54.4525375366
        1.9569339752,        0.4209495187,-0.1774392128,0.0202129539,-36.3191032410,4.8504500389,-52.5146713257
        1.9595160484,        0.4209495187,-0.1774392128,0.0202129539,-37.7686882019,4.8504500389,-52.5146713257
        1.9620821476,        0.4209495187,-0.1774392128,0.0202129539,-37.7686882019,4.8504500389,-50.3174057007
        1.9646561146,        0.4199729562,-0.1022439003,0.0207012352,-31.6956901550,4.3163924217,-50.3174057007
        1.9673149586,        0.4199729562,-0.1022439003,0.0207012352,-31.6956901550,4.3163924217,-47.8759994507
        1.9698960781,        0.4199729562,-0.1022439003,0.0207012352,-24.9055290222,4.4994978905,-47.8759994507
        1.9724819660,        0.4199729562,-0.1022439003,0.0207012352,-24.9055290222,4.4994978905,-43.9697494507
        1.9750571251,        0.4160667062,-0.0265603065,0.0124004539,-18.0695915222,4.7588973045,-42.7795639038
        1.9777810574,        0.4160667062,-0.0265603065,0.0124004539,-18.0695915222,4.7588973045,-42.7795639038
        1.9803659916,        0.4160667062,-0.0265603065,0.0124004539,-10.3639030457,5.2319197655,-36.1267318726
        1.9829370975,        0.4160667062,-0.0265603065,0.0124004539,-10.3639030457,5.2319197655,-36.1267318726
        1.9855129719,        0.4038596749,0.0730490685,0.0602520183,-1.2696647644,6.1016707420,-28.7262191772
        1.9881789684,        0.4038596749,0.0730490685,0.0602520183,-1.2696647644,6.1016707420,-28.7262191772
        1.9908709526,        0.4038596749,0.0730490685,0.0602520183,9.2283821106,6.1016707420,-20.5169906616
        1.9935669899,        0.4038596749,0.0730490685,0.0495098308,9.2283821106,6.1016707420,-20.5169906616
        1.9962530136,        0.4380393624,0.1956076622,0.0495098308,20.2147102356,4.8809676170,-12.4145746231
        1.9989509583,        0.4380393624,0.1956076622,0.0495098308,20.2147102356,4.8809676170,-12.4145746231
        2.0016479492,        0.4380393624,0.1956076622,0.0495098308,31.6130256653,2.1649031639,-5.0903558731
        2.0043380260,        0.5630393624,0.2805685997,0.0177715477,31.6130256653,2.1649031639,-5.0903558731
        2.0070929527,        0.4570823312,0.2805685997,0.0177715477,42.5993537903,-1.7108293772,2.2186040878
        2.0097801685,        0.4570823312,0.2805685997,0.0177715477,42.5993537903,-1.7108293772,2.2186040878
        2.0124671459,        0.4570823312,0.2805685997,0.0177715477,52.7617073059,-5.2966446877,9.8327398300
        2.0151619911,        0.4580588937,0.3127951622,-0.0422870442,52.7617073059,-5.2966446877,9.8327398300
        2.0179140568,        0.4580588937,0.3127951622,-0.0422870442,60.3605842590,-6.6394181252,18.7896499634
        2.0206060410,        0.4580588937,0.3127951622,-0.0422870442,60.3605842590,-6.6394181252,18.7896499634
        2.0233030319,        0.4580588937,0.3127951622,-0.0422870442,67.3491058350,-8.3026266098,27.9296646118
        2.0259990692,        0.0400901437,0.8923850060,-0.5598651767,67.3491058350,-8.3026266098,27.9296646118
        2.0287251472,        0.0400901437,0.8923850060,-0.5598651767,89.9473724365,21.5740833282,48.6511001587
        2.0313000679,        0.0400901437,0.8923850060,-0.5598651767,89.9473724365,21.5740833282,48.6511001587
        2.0340349674,        0.0400901437,0.8923850060,-0.8787128329,89.2912445068,52.4120941162,127.3711929321
        2.0366170406,       -1.0800271034,9.4539089203,-0.8787128329,89.2912445068,52.4120941162,127.3711929321
        2.0397551060,       -1.0800271034,9.4539089203,-0.8787128329,37.7165412903,-29.5886363983,301.5807800293
        2.0425770283,       -1.0800271034,9.4539089203,-0.8787128329,37.7165412903,-29.5886363983,301.5807800293
        2.0452890396,       -4.2030739784,8.3308620453,2.5949199200,89.6727142334,-79.9884185791,486.5173034668
        2.0480079651,       -4.2030739784,8.3308620453,2.5949199200,89.6727142334,-79.9884185791,486.5173034668
        2.0507190228,       -4.2030739784,8.3308620453,2.5949199200,-315.4481201172,42.2344818115,499.7161560059
        2.0534210205,       -4.2030739784,8.3308620453,2.5949199200,-315.4481201172,42.2344818115,499.7161560059
        2.0561251640,       -5.4091286659,-11.7135715485,-1.1521502733,-189.5936431885,-79.1491851807,338.9800720215
        2.0588490963,       -5.4091286659,-11.7135715485,-1.1521502733,-189.5936431885,-79.1491851807,338.9800720215
        2.0615551472,       -5.4091286659,-11.7135715485,-1.1521502733,45.3154182434,-73.7933502197,253.6071472168
        2.0642690659,       -5.4091286659,-11.7135715485,0.7326152921,45.3154182434,-73.7933502197,253.6071472168
        2.0669791698,        0.2881370187,-7.5690407753,0.7326152921,-80.4322662354,-52.7819976807,195.2880554199
        2.0695581436,        0.2881370187,-7.5690407753,0.7326152921,-80.4322662354,-52.7819976807,195.2880554199
        2.0721399784,        0.2881370187,-7.5690407753,0.7326152921,95.1353607178,-53.8501129150,116.8273696899
        2.0747120380,        0.2881370187,3.5286154747,1.2106426954,95.1353607178,-53.8501129150,116.8273696899
        2.0773401260,       -2.1835427284,3.5286154747,1.2106426954,-164.2487945557,-102.4646148682,130.0414733887
        2.0799219608,       -2.1835427284,3.5286154747,1.2106426954,-164.2487945557,-102.4646148682,130.0414733887
        2.0824899673,       -2.1835427284,3.5286154747,1.2106426954,-384.9061279297,-94.3316802979,224.7070007324
        2.0850741863,       -9.0585422516,2.3884787560,-1.2937518358,-384.9061279297,-94.3316802979,224.7070007324
        2.0878250599,       -9.0297336578,2.3884787560,-1.2937518358,-96.6828765869,3.6602644920,240.0115661621
        2.0903949738,       -9.0297336578,2.3884787560,-1.2937518358,-96.6828765869,3.6602644920,240.0115661621
        2.0929720402,       -9.0297336578,2.3884787560,-1.2937518358,-96.6828765869,48.5516204834,206.2286071777
        2.0955469608,       -1.9672341347,-1.5792946815,-0.9392597079,101.7729339600,48.5516204834,206.2286071777
        2.0982840061,       -1.9672341347,-1.5792946815,-0.9392597079,101.7729339600,34.0405120850,191.6106872559
        2.1009900570,       -1.9672341347,-1.5792946815,-0.9392597079,61.6423225403,34.0405120850,191.6106872559
        2.1036889553,       -1.9672341347,-1.5792946815,-0.9392597079,61.6423225403,14.4940042496,191.1986999512
        2.1065080166,       -0.4252418876,0.4773459435,-0.7483417392,-66.9892730713,14.4940042496,191.1986999512
        2.1092259884,       -0.4252418876,0.4773459435,-0.7483417392,-66.9892730713,14.5702981949,168.0053405762
        2.1119351387,       -0.4252418876,0.4773459435,-0.7483417392,-177.0051422119,14.5702981949,168.0053405762
        2.1146559715,       -0.4252418876,0.4773459435,0.1945293546,-177.0051422119,31.2634143829,124.5025405884
        2.1173560619,        0.5908713937,1.5227560997,0.1945293546,-195.2699127197,31.2634143829,124.5025405884
        2.1199381351,        0.5908713937,1.5227560997,0.1945293546,-195.2699127197,27.3571643829,94.0765151978
        2.1225149632,        0.5908713937,1.5227560997,0.1945293546,-147.1742095947,28.4252796173,94.0765151978
        2.1250820160,        0.5908713937,1.2727560997,0.9020488858,-147.1742095947,28.4252796173,75.4760513306
        2.1277379990,        1.9375510216,1.2302756310,0.9020488858,-81.3783111572,5.2319197655,75.4760513306
        2.1303989887,        1.9375510216,1.2302756310,0.9020488858,-81.3783111572,5.2319197655,47.8271255493
        2.1330599785,        1.9375510216,1.2302756310,0.9020488858,-24.9360466003,-16.3745250702,47.8271255493
        2.1357281208,        2.7598166466,1.2678732872,1.0001934767,-24.9360466003,-16.3745250702,0.9521245956
        2.1384019852,        2.7598166466,1.2678732872,1.0001934767,33.0320930481,-36.6534576416,0.1434087753
        2.1409790516,        2.7598166466,1.2678732872,1.0001934767,33.0320930481,-36.6534576416,0.1434087753
        2.1435501575,        2.7598166466,1.2678732872,1.0001934767,75.5125579834,-48.4485015869,-28.8025131226
        2.1461241245,        0.4629417062,0.8948264122,-0.0588886067,75.5125579834,-48.4485015869,-28.8025131226
        2.1488540173,        0.4629417062,0.8948264122,-0.0588886067,96.2187347412,-45.6256256104,-40.3991928101
        2.1515240669,        0.4629417062,0.8948264122,-0.0588886067,96.2187347412,-45.6256256104,-40.3991928101
        2.1543741226,        0.4629417062,0.8948264122,-0.0588886067,90.0999603271,-30.5346813202,-49.8291244507
        2.1575181484,       -1.3256325722,0.1838889122,-0.7625018954,90.0999603271,-30.5346813202,-49.8291244507
        2.1600940228,       -1.3256325722,0.1838889122,-0.7625018954,61.5049934387,-10.1184225082,-51.7517318726
        2.1626770496,       -1.3256325722,0.1838889122,-0.7625018954,61.5049934387,-10.1184225082,-51.7517318726
        2.1652581692,       -1.3256325722,0.1838889122,-0.3879901767,18.4446907043,2.0733504295,-45.8770980835
        2.1681270599,       -1.4154763222,-0.2155251503,-0.3879901767,18.4446907043,2.0733504295,-45.8770980835
        2.1709520817,       -1.4154763222,-0.2155251503,-0.3879901767,-35.6324577332,9.5043802261,-37.0880355835
        2.1736640930,       -1.4154763222,-0.2155251503,-0.3879901767,-35.6324577332,9.5043802261,-37.0880355835
        2.1763751507,       -0.3344215751,0.0149435997,0.3795879483,-72.9096832275,15.4247903824,-33.1512680054
        2.1790909767,       -0.3344215751,0.0149435997,0.3795879483,-72.9096832275,15.4247903824,-33.1512680054
        2.1818029881,       -0.3344215751,0.0149435997,0.3795879483,-76.9532623291,16.3860950470,-34.2346420288
        2.1845190525,       -0.3344215751,0.0149435997,0.3795879483,-76.9532623291,16.3860950470,-34.2346420288
        2.1872310638,        0.0845237374,0.3479514122,0.5382793546,-65.8906402588,15.6841897964,-38.2477035522
        2.1898131371,        0.0845237374,0.3479514122,0.5382793546,-65.8906402588,15.6841897964,-38.2477035522
        2.1923961639,        0.0845237374,0.3479514122,0.5382793546,-48.2362174988,17.3626575470,-43.4662094116
        2.1949760914,        0.0845237374,0.3479514122,0.5382793546,-48.2362174988,17.3626575470,-43.4662094116
        2.1975941658,       -0.0507301688,0.4739279747,0.1803691983,-27.3316764832,20.3991565704,-50.6073226929
        2.2003080845,       -0.0507301688,0.4739279747,0.1803691983,-27.3316764832,20.3991565704,-50.6073226929
        2.2030160427,       -0.0507301688,0.4739279747,0.1803691983,-9.9824333191,23.6035022736,-57.6721420288
        2.2057311535,       -0.0507301688,0.4739279747,0.0006817039,-9.9824333191,23.6035022736,-57.6721420288
        2.2083830833,       -0.0683082938,0.3713889122,0.0006817039,-0.0184440613,26.2585315704,-62.6159896851
        2.2109580040,       -0.0683082938,0.3713889122,0.0006817039,-0.0184440613,26.2585315704,-62.6159896851
        2.2135350704,       -0.0683082938,0.3713889122,0.0006817039,5.5204963684,27.2045764923,-65.4693832397
        2.2161061764,       -0.0683082938,0.2400412560,0.0241192039,5.5204963684,27.2045764923,-65.4693832397
        2.2188179493,       -0.1146950126,0.2400412560,0.0241192039,7.4431037903,27.2350940704,-66.2475814819
        2.2213981152,       -0.1146950126,0.2400412560,0.0241192039,7.4431037903,27.2350940704,-66.2475814819
        2.2239789963,       -0.1146950126,0.2400412560,0.0241192039,7.1837043762,27.5707874298,-65.0116195679
        2.2265660763,       -0.1146950126,0.1174826622,0.0475567058,7.1837043762,27.5707874298,-65.0116195679
        2.2294571400,       -0.1679176688,0.1174826622,0.0475567058,10.0676155090,27.7386341095,-62.8143539429
        2.2321650982,       -0.1679176688,0.1174826622,0.0475567058,10.0676155090,27.7386341095,-62.8143539429
        2.2349829674,       -0.1679176688,0.1174826622,0.0475567058,16.1863899231,28.4557971954,-62.0056381226
        2.2377421856,       -0.2001442313,0.0515646935,-0.0286151711,16.1863899231,28.4557971954,-62.0056381226
        2.2404530048,       -0.2001442313,0.0515646935,-0.0286151711,18.3226203918,28.3642444611,-62.3871078491
        2.2431600094,       -0.2001442313,0.0515646935,-0.0286151711,18.3226203918,28.3642444611,-62.3871078491
        2.2458720207,       -0.2001442313,0.0515646935,0.0963848308,12.7989387512,24.5037708282,-63.0127182007
        2.2485971451,       -0.1703590751,-0.1808571815,-0.0144550148,12.7989387512,24.5037708282,-63.0127182007
        2.2513041496,       -0.1703590751,-0.1808571815,-0.0144550148,1.9651985168,20.2465686798,-62.6465072632
        2.2540099621,       -0.1703590751,-0.1808571815,-0.0144550148,1.9651985168,20.2465686798,-62.6465072632
        2.2567181587,       -0.1703590751,-0.3117165565,0.0241192039,-9.8756217957,17.8356800079,-61.1969223022
        2.2593140602,       -0.1518043876,-0.3117165565,0.0241192039,-9.8756217957,17.8356800079,-61.1969223022
        2.2618961334,       -0.1518043876,-0.3117165565,0.0241192039,-21.5943717957,16.7675647736,-59.6557846069
        2.2644751072,       -0.1518043876,-0.3117165565,0.0241192039,-18.9546012878,16.7675647736,-59.6557846069
        2.2671201229,       -0.1225075126,-0.1930642128,-0.0447284505,-18.9546012878,16.4013538361,-59.3506088257
        2.2698299885,       -0.1225075126,-0.1930642128,-0.0447284505,-18.8935661316,16.4013538361,-59.3506088257
        2.2725360394,       -0.1225075126,-0.1930642128,-0.0447284505,-18.8935661316,16.1419544220,-60.7696762085
        2.2752449512,       -0.1225075126,-0.1930642128,-0.0447284505,-9.7688102722,16.1419544220,-60.7696762085
        2.2779669762,       -0.1405739188,-0.0900368690,-0.1760761142,-9.7688102722,16.9201526642,-63.7451400757
        2.2806751728,       -0.1405739188,-0.0900368690,-0.1760761142,1.9804573059,16.9201526642,-63.7451400757
        2.2834501266,       -0.1405739188,-0.0900368690,-0.1760761142,13.6992073059,17.3779163361,-66.8274154663
        2.2861580849,       -0.1405739188,-0.0900368690,-0.1760761142,14.5231819153,17.3779163361,-66.8274154663
        2.2888679504,       -0.1439918876,0.0374045372,-0.1946308017,14.5231819153,16.4623889923,-67.1631088257
        2.2915761471,       -0.1439918876,0.0374045372,-0.1946308017,22.7934455872,16.4623889923,-67.1631088257
        2.2942860126,       -0.1439918876,0.0374045372,-0.1946308017,22.7934455872,13.8531351089,-63.1195297241
        2.2969861031,       -0.1439918876,0.1677756310,-0.1140643880,22.5035285950,13.8531351089,-63.1195297241
        2.2996730804,       -0.0717262626,0.1677756310,-0.1140643880,22.5035285950,9.9468851089,-56.7260971069
        2.3022470474,       -0.0717262626,0.1677756310,-0.1140643880,15.9269905090,9.6569681168,-56.7260971069
        2.3048219681,       -0.0717262626,0.1677756310,-0.1140643880,15.9269905090,9.6569681168,-54.2846908569
        2.3074350357,       -0.0009254813,0.0520529747,-0.0959979817,4.8491096497,6.9103865623,-54.2846908569
        2.3101391792,       -0.0009254813,0.0520529747,-0.0959979817,4.8491096497,6.9103865623,-54.2846908569
        2.3128411770,       -0.0009254813,0.0520529747,-0.0959979817,-7.1137809753,7.7801375389,-54.2846908569
        2.3155419827,       -0.0009254813,0.0520529747,-0.0959979817,-7.1137809753,7.7801375389,-51.3244857788
        2.3181929588,        0.0771995187,0.0442404747,-0.0637714192,-13.9192008972,7.5359969139,-51.3244857788
        2.3207621574,        0.0771995187,0.0442404747,-0.0637714192,-13.9192008972,7.5359969139,-43.5119857788
        2.3234350681,        0.0771995187,0.0442404747,-0.0637714192,-16.0859489441,4.1180281639,-44.3969955444
        2.3267209530,        0.0771995187,0.0442404747,-0.0168964211,-16.0859489441,0.2117780447,-37.7746810913
        2.3293809891,       -0.0507301688,-0.0143532753,-0.0168964211,-17.0014762878,1.2035993338,-37.7746810913
        2.3319571018,       -0.0507301688,-0.0143532753,-0.0168964211,-17.0014762878,1.2035993338,-33.3801498413
        2.3345279694,       -0.0507301688,-0.0143532753,-0.0168964211,-14.2701530457,0.9136823416,-33.3801498413
        2.3371479511,       -0.0507301688,-0.1393532753,0.0050762352,-14.2701530457,0.9136823416,-33.3801498413
        2.3397290707,       -0.1830543876,-0.1745095253,0.0050762352,-9.6314811707,1.6461042166,-30.6640853882
        2.3422961235,       -0.1830543876,-0.1745095253,0.0050762352,-9.6314811707,1.6461042166,-30.6640853882
        2.3448569775,       -0.1830543876,-0.1745095253,0.0050762352,-7.3731803894,2.1649031639,-27.3071517944
        2.3474371433,       -0.1830543876,-0.2399392128,0.0499981120,-7.3731803894,2.1649031639,-27.3071517944
        2.3500051498,       -0.2118629813,-0.2399392128,0.0499981120,-7.6783561707,2.2106795311,-23.8281478882
        2.3525760174,       -0.2118629813,-0.2399392128,0.0499981120,-7.6783561707,2.2106795311,-23.8281478882
        2.3551430702,       -0.2118629813,-0.2399392128,0.0499981120,-6.1372184753,2.8515486717,-21.1120834351
        2.3577599525,       -0.2118629813,-0.2282204628,0.0631817058,-6.1372184753,2.8515486717,-21.1120834351
        2.3603310585,       -0.1903786063,-0.2282204628,0.0631817058,-3.9399528503,3.6450057030,-19.3420639038
        2.3630011082,       -0.1903786063,-0.2282204628,0.0631817058,-3.9399528503,3.6450057030,-19.3420639038
        2.3655669689,       -0.1903786063,-0.2282204628,0.0631817058,-1.1781120300,4.6063094139,-18.0908432007
        2.3682820797,       -0.1342262626,-0.1989235878,0.0656231120,-1.1781120300,4.6063094139,-18.0908432007
        2.3708450794,       -0.1342262626,-0.1989235878,0.0656231120,2.7281379700,5.5218367577,-17.0379867554
        2.3734161854,       -0.1342262626,-0.1989235878,0.0656231120,2.7281379700,5.5218367577,-17.0379867554
        2.3759801388,       -0.1342262626,-0.1989235878,0.0656231120,2.7281379700,6.3763289452,-15.9546136856
        2.3786611557,       -0.1039528251,-0.1403298378,0.0543926433,4.8033332825,6.3763289452,-15.9546136856
        2.3812301159,       -0.1039528251,-0.1403298378,0.0543926433,4.8033332825,6.3763289452,-15.0238275528
        2.3837931156,       -0.1039528251,-0.1403298378,0.0543926433,4.5591926575,6.9714217186,-15.0238275528
        2.3863561153,       -0.1039528251,-0.1403298378,0.0543926433,4.5591926575,6.9714217186,-13.5742425919
        2.3889300823,       -0.1068825126,-0.1281228065,0.0587871745,3.5826301575,6.7577986717,-13.5742425919
        2.3914961815,       -0.1068825126,-0.1281228065,0.0587871745,3.5826301575,6.7577986717,-13.5742425919
        2.3940651417,       -0.1068825126,-0.1281228065,0.0587871745,1.2785530090,6.5136580467,-12.8265619278
        2.3966300488,       -0.1068825126,-0.1281228065,0.0587871745,1.2785530090,6.5136580467,-12.8265619278
        2.3992509842,       -0.1317848563,-0.1154274940,0.0348613933,-0.9492301941,6.4983992577,-12.8875970840
        2.4018299580,       -0.1317848563,-0.1154274940,0.0348613933,-0.9492301941,6.4983992577,-12.8875970840
        2.4044051170,       -0.1317848563,-0.1154274940,0.0348613933,-1.5595817566,6.8493514061,-11.8805170059
        2.4069740772,       -0.1317848563,-0.1154274940,0.0348613933,-1.5595817566,6.8493514061,-11.8805170059
        2.4095520973,       -0.1635231376,-0.0465798378,-0.0115253273,-2.6124382019,7.8564314842,-10.1867914200
        2.4121229649,       -0.1635231376,-0.0465798378,-0.0115253273,-2.6124382019,7.8564314842,-10.1867914200
        2.4146990776,       -0.1635231376,-0.0465798378,-0.0115253273,-3.2685661316,8.5430765152,-7.6996088028
        2.4173510075,       -0.1635231376,-0.0465798378,-0.0115253273,-3.2685661316,8.5430765152,-7.6996088028
        2.4200551510,       -0.1825661063,-0.0485329628,-0.0564472005,-4.2451286316,8.2836771011,-5.9143304825
        2.4227530956,       -0.1825661063,-0.0485329628,-0.0564472005,-4.2451286316,8.2836771011,-5.9143304825
        2.4255590439,       -0.1825661063,-0.0485329628,-0.0564472005,-6.0761833191,7.1850447655,-5.5786371231
        2.4282670021,       -0.1825661063,-0.1398415565,-0.0574237630,-6.0761833191,7.1850447655,-5.5786371231
        2.4309740067,       -0.1952614188,-0.1398415565,-0.0574237630,-8.2581901550,5.9490828514,-6.0669183731
        2.4337191582,       -0.1952614188,-0.1398415565,-0.0574237630,-8.2581901550,5.9490828514,-6.0669183731
        2.4364271164,       -0.1952614188,-0.1398415565,-0.0574237630,-9.5704460144,5.6896834373,-5.8075189590
        2.4390351772,       -0.1923317313,-0.0861306190,-0.0945331380,-9.5704460144,5.6896834373,-5.8075189590
        2.4416050911,       -0.1923317313,-0.0861306190,-0.0945331380,-10.4401969910,5.5523543358,-3.3050775528
        2.4441709518,       -0.1923317313,-0.0861306190,-0.0945331380,-10.4401969910,5.5523543358,-3.3050775528
        2.4467380047,       -0.1923317313,-0.0861306190,-0.0945331380,-10.4401969910,4.7436385155,1.0741949081
        2.4494349957,       -0.1972145438,0.0793967247,-0.0779315755,-12.5459098816,4.7436385155,1.0741949081
        2.4521391392,       -0.1972145438,0.0793967247,-0.0779315755,-12.5459098816,3.2787947655,4.9651861191
        2.4548361301,       -0.1972145438,0.0793967247,-0.0779315755,-14.3769645691,3.2787947655,4.9651861191
        2.4575550556,       -0.1972145438,0.0793967247,-0.0779315755,-14.3769645691,2.2411971092,6.3384771347
        2.4602551460,       -0.1874489188,0.0222678185,-0.0579120442,-14.8805046082,2.2411971092,6.3384771347
        2.4629559517,       -0.1874489188,0.0222678185,-0.0579120442,-14.8805046082,1.7376569510,6.1248540878
        2.4656579494,       -0.1874489188,0.0222678185,-0.0579120442,-13.8581657410,1.7376569510,6.1248540878
        2.4683020115,       -0.1874489188,0.0222678185,-0.0481464192,-13.8581657410,-2.1685929298,5.8044195175
        2.4708700180,       -0.1596168876,-0.0446267128,-0.0481464192,-11.9355583191,1.3714460135,5.8044195175
        2.4734361172,       -0.1596168876,-0.0446267128,-0.0481464192,-11.9355583191,1.3714460135,5.8501958847
        2.4759969711,       -0.1596168876,-0.0446267128,-0.0481464192,-8.8532829285,0.8679059744,5.8501958847
        2.4786851406,       -0.1596168876,-0.0446267128,-0.0637714192,-8.8532829285,0.8679059744,5.8501958847
        2.4812490940,       -0.1601051688,-0.0509743690,-0.0637714192,-6.0761833191,0.7763532400,5.6518316269
        2.4838161469,       -0.1601051688,-0.0509743690,-0.0637714192,-6.0761833191,0.7763532400,5.6518316269
        2.4863841534,       -0.1601051688,-0.0509743690,-0.0637714192,-4.1993522644,-0.0476213694,5.3466558456
        2.4890391827,       -0.1601051688,0.0139670372,-0.0344745442,-4.1993522644,-0.0476213694,5.3466558456
        2.4917130470,       -0.1708473563,0.0139670372,-0.0344745442,-1.9410514832,-1.5582414865,5.2703619003
        2.4942791462,       -0.1708473563,0.0139670372,-0.0344745442,-1.9410514832,-1.5582414865,5.2703619003
        2.4968760014,       -0.1708473563,0.0139670372,-0.0344745442,0.0883674622,-1.8634172678,5.2398443222
        2.4995729923,       -0.1566872001,0.0452170372,0.0124004539,0.0883674622,-1.8634172678,5.2398443222
        2.5022721291,       -0.1566872001,0.0452170372,0.0124004539,3.0485725403,-1.9549700022,5.1635503769
        2.5049700737,       -0.1566872001,0.0452170372,0.0124004539,3.0485725403,-1.9549700022,5.1635503769
        2.5076711178,       -0.1566872001,0.0452170372,0.0124004539,5.6730842590,-1.6803117990,3.9581060410
        2.5103659630,       -0.1581520438,0.0002951622,0.0021465477,5.6730842590,-1.6803117990,3.9581060410
        2.5130610466,       -0.1581520438,0.0002951622,0.0021465477,6.9700813293,-1.3141008615,2.4322271347
        2.5157601833,       -0.1581520438,0.0002951622,0.0021465477,6.9700813293,-1.3141008615,2.4322271347
        2.5184640884,       -0.1581520438,0.0002951622,0.0021465477,7.8093147278,-0.6427141428,1.2878179550
        2.5211629868,       -0.1386207938,-0.0592751503,-0.0125018898,7.8093147278,-0.6427141428,1.2878179550
        2.5238690376,       -0.1386207938,-0.0592751503,-0.0125018898,8.2975959778,-0.0628801584,0.3417730331
        2.5265710354,       -0.1386207938,-0.0592751503,-0.0125018898,8.2975959778,-0.0628801584,0.3417730331
        2.5293550491,       -0.1386207938,-0.0617165565,-0.0115253273,8.2518196106,-0.2612444162,-0.5279779434
        2.5319299698,       -0.1259254813,-0.0617165565,-0.0115253273,8.2518196106,-0.2612444162,-0.5279779434
        2.5345001221,       -0.1259254813,-0.0617165565,-0.0115253273,7.2447395325,-0.7800432444,-1.3366937637
        2.5372710228,       -0.1259254813,-0.0617165565,-0.0115253273,7.2447395325,-0.7800432444,-1.3366937637
        2.5399250984,       -0.1478981376,0.0310568810,-0.0159198586,5.3831672668,-0.8563371897,-0.6500482559
        2.5426280499,       -0.1478981376,0.0310568810,-0.0159198586,5.3831672668,-0.8563371897,-0.6500482559
        2.5452921391,       -0.1478981376,0.0310568810,-0.0159198586,2.8502082825,-0.7800432444,0.0518560410
        2.5481541157,       -0.1478981376,0.0310568810,-0.0159198586,2.8502082825,-0.7800432444,0.0518560410
        2.5508601665,       -0.1718239188,0.0344748497,-0.0051776711,1.8278694153,-0.2154680490,0.2807378769
        2.5535559654,       -0.1718239188,0.0344748497,-0.0051776711,1.8278694153,-0.2154680490,0.2807378769
        2.5563621521,       -0.1718239188,0.0344748497,-0.0051776711,1.1717414856,0.3338483572,-0.3906488419
        2.5589501858,       -0.1718239188,0.0344748497,-0.1301776767,1.1717414856,0.3338483572,-0.3906488419
        2.5615150928,       -0.1747536063,-0.0836892128,-0.0300800148,0.2256965637,1.1578229666,-1.7029047012
        2.5640900135,       -0.1747536063,-0.0836892128,-0.0300800148,0.2256965637,1.1578229666,-1.7029047012
        2.5666561127,       -0.1747536063,-0.0836892128,-0.0300800148,0.2256965637,1.7071393728,-2.1606683731
        2.5692660809,       -0.1747536063,-0.0836892128,-0.0422870442,-1.0102653503,1.7071393728,-2.1606683731
        2.5718381405,       -0.1273903251,-0.0939431190,-0.0422870442,-1.0102653503,1.7071393728,-2.6947259903
        2.5744049549,       -0.1273903251,-0.0939431190,-0.0422870442,-2.2614860535,1.6003278494,-2.6947259903
        2.5769751072,       -0.1273903251,-0.0939431190,-0.0422870442,-2.2614860535,1.6003278494,-2.7252435684
        2.5795431137,       -0.1273903251,-0.0939431190,-0.0056659523,-3.6195182800,1.6308454275,-2.7252435684
        2.5821101665,       -0.1420387626,-0.0646462440,-0.0056659523,-3.6195182800,1.6308454275,-2.7252435684
        2.5846819878,       -0.1420387626,-0.0646462440,-0.0056659523,-4.3519401550,1.5392926931,-3.0151605606
        2.5872530937,       -0.1420387626,-0.0646462440,-0.0056659523,-4.3519401550,1.5392926931,-3.0151605606
        2.5898141861,       -0.1420387626,-0.0646462440,-0.0056659523,-4.8707389832,1.8444684744,-3.7475824356
        2.5923759937,       -0.1640114188,-0.0397439003,-0.0056659523,-4.8707389832,1.8444684744,-3.7475824356
        2.5949380398,       -0.1640114188,-0.0397439003,-0.0056659523,-4.6723747253,2.3480086327,-4.1137933731
        2.5976860523,       -0.1640114188,-0.0397439003,-0.0056659523,-4.6723747253,2.3480086327,-4.1137933731
        2.6002490520,       -0.1640114188,0.0193381310,0.0050762352,-4.3061637878,1.9817975760,-4.8919916153
        2.6028151512,       -0.1640114188,0.0193381310,0.0050762352,-4.3061637878,1.9817975760,-4.8919916153
        2.6053881645,       -0.1640114188,0.0193381310,0.0050762352,-2.1088981628,1.7071393728,-6.1126947403
        2.6080870628,       -0.1640114188,0.0193381310,0.0050762352,-2.1088981628,1.7071393728,-6.1126947403
        2.6106541157,       -0.1649879813,0.0349631310,-0.0037128273,1.0496711731,1.5545514822,-7.5775384903
        2.6132230759,       -0.1649879813,0.0349631310,-0.0037128273,1.0496711731,1.5545514822,-7.5775384903
        2.6157860756,       -0.1649879813,0.0349631310,-0.0037128273,3.5826301575,2.0580916405,-9.5306634903
        2.6184771061,       -0.1649879813,0.0349631310,-0.0037128273,3.5826301575,2.0580916405,-9.5306634903
        2.6210451126,       -0.1732887626,0.0266623497,0.0011699852,7.4888801575,2.6074080467,-10.6292963028
        2.6236100197,       -0.1732887626,0.0266623497,0.0011699852,5.5052375793,2.6074080467,-10.6292963028
        2.6261811256,       -0.1732887626,0.0266623497,0.0011699852,5.5052375793,2.6074080467,-11.0870599747
        2.6287560463,       -0.1732887626,0.0266623497,0.0011699852,6.8174934387,2.6837019920,-11.0870599747
        2.6313240528,       -0.1703590751,0.0002951622,-0.0212909523,6.8174934387,2.6837019920,-11.9110345840
        2.6338911057,       -0.1703590751,0.0002951622,-0.0212909523,7.8856086731,2.3022322655,-11.9110345840
        2.6364581585,       -0.1703590751,0.0002951622,-0.0212909523,7.8856086731,2.3022322655,-11.9110345840
        2.6392149925,       -0.1703590751,0.0002951622,-0.0212909523,7.9313850403,2.2564558983,-13.5742425919
        2.6419250965,       -0.1781715751,-0.0363259315,-0.0247089211,7.9313850403,2.2564558983,-17.4804916382
        2.6446280479,       -0.1781715751,-0.0363259315,-0.0247089211,7.0463752747,2.3632674217,-15.0696039200
        2.6473519802,       -0.1781715751,-0.0363259315,-0.0247089211,7.0463752747,2.3632674217,-15.0696039200
        2.6500601768,       -0.1781715751,-0.0363259315,-0.0291034523,6.8785285950,2.2259383202,-15.8630609512
        2.6527681351,       -0.1669411063,0.0042014122,-0.0291034523,6.8785285950,2.2259383202,-15.8630609512
        2.6554729939,       -0.1669411063,0.0042014122,-0.0291034523,6.2224006653,1.9055036306,-16.0614242554
        2.6581361294,       -0.1669411063,0.0042014122,-0.0291034523,6.2224006653,1.9055036306,-16.0614242554
        2.6607170105,       -0.1669411063,0.0125021935,-0.0344745442,5.2000617981,1.4629987478,-16.1987533569
        2.6633601189,       -0.1640114188,0.0125021935,-0.0344745442,5.2000617981,1.4629987478,-16.1987533569
        2.6659519672,       -0.1640114188,0.0125021935,-0.0344745442,4.8033332825,1.3561872244,-16.7175521851
        2.6688301563,       -0.1640114188,0.0125021935,-0.0344745442,4.8033332825,1.3561872244,-16.7175521851
        2.6715321541,       -0.1669411063,0.0105490685,-0.0417987630,5.4136848450,1.2951520681,-17.5110092163
        2.6742320061,       -0.1669411063,0.0105490685,-0.0417987630,5.4136848450,1.2951520681,-17.5110092163
        2.6769440174,       -0.1669411063,0.0105490685,-0.0417987630,6.4970588684,1.2188581228,-17.7704086304
        2.6796481609,       -0.1669411063,0.0105490685,-0.0417987630,6.4970588684,1.2188581228,-17.7704086304
        2.6824641228,       -0.1718239188,0.0286154747,-0.0525409505,7.3515510559,0.4864362478,-17.3279037476
        2.6851811409,       -0.1718239188,0.0286154747,-0.0525409505,7.3515510559,0.4864362478,-17.3279037476
        2.6879370213,       -0.1718239188,0.0286154747,-0.0525409505,7.9924201965,-0.1696916819,-17.0532455444
        2.6906530857,       -0.1718239188,0.0286154747,-0.0398456380,7.9924201965,-0.1696916819,-17.0532455444
        2.6933600903,       -0.1732887626,-0.0158181190,-0.0398456380,9.2283821106,-0.2307268381,-17.2210922241
        2.6960670948,       -0.1732887626,-0.0158181190,-0.0398456380,9.2283821106,-0.2307268381,-17.2210922241
        2.6986830235,       -0.1732887626,-0.0158181190,-0.0398456380,10.0523567200,-0.2154680490,-17.6178207397
        2.7012541294,       -0.1732887626,-0.0788064003,-0.0471698567,10.0523567200,-0.2154680490,-17.6178207397
        2.7038350105,       -0.1669411063,-0.0788064003,-0.0471698567,11.3035774231,0.1049665213,-17.9535140991
        2.7064080238,       -0.1669411063,-0.0788064003,-0.0471698567,11.3035774231,0.1049665213,-17.9535140991
        2.7090380192,       -0.1669411063,-0.0788064003,-0.0471698567,11.8528938293,-0.3833147287,-17.5110092163
        2.7116169930,       -0.1557106376,-0.0792946815,-0.0500995442,11.8528938293,-0.3833147287,-17.5110092163
        2.7141959667,       -0.1557106376,-0.0792946815,-0.0500995442,12.0359992981,-1.6192766428,-16.1224594116
        2.7167751789,       -0.1557106376,-0.0792946815,-0.0500995442,12.0359992981,-1.6192766428,-16.1224594116
        2.7193980217,       -0.1557106376,-0.0792946815,-0.0500995442,11.9139289856,-2.2601456642,-14.2303705215
        2.7219719887,       -0.1620582938,-0.1115212440,-0.0271503273,11.9139289856,-2.2601456642,-14.2303705215
        2.7245540619,       -0.1620582938,-0.1115212440,-0.0271503273,11.9139289856,-2.7942032814,-12.5061273575
        2.7272729874,       -0.1620582938,-0.1115212440,-0.0271503273,11.6087532043,-2.7942032814,-12.5061273575
        2.7299799919,       -0.1620582938,-0.1115212440,-0.0271503273,11.6087532043,-2.8552384377,-10.9344720840
        2.7326910496,       -0.1610817313,-0.1593728065,-0.0291034523,10.7847785950,-2.8552384377,-10.9344720840
        2.7353949547,       -0.1610817313,-0.1593728065,-0.0291034523,10.7847785950,-3.0078263283,-8.8897943497
        2.7381570339,       -0.1610817313,-0.1593728065,-0.0291034523,9.9150276184,-3.0078263283,-8.8897943497
        2.7408649921,       -0.1610817313,-0.1593728065,-0.0334979817,9.9150276184,-3.4503312111,-6.9519281387
        2.7435700893,       -0.1410622001,-0.2228493690,-0.0334979817,9.6403694153,-3.4503312111,-6.9519281387
        2.7464010715,       -0.1410622001,-0.2228493690,-0.0334979817,9.3351936340,-4.0759415627,-5.0598382950
        2.7491550446,       -0.1410622001,-0.2228493690,-0.0334979817,9.3351936340,-4.0759415627,-5.0598382950
        2.7518560886,       -0.1410622001,-0.2692360878,-0.0339862630,8.8621711731,-4.9914689064,-3.3203363419
        2.7545621395,       -0.1317848563,-0.2692360878,-0.0339862630,8.8621711731,-4.9914689064,-3.3203363419
        2.7572469711,       -0.1317848563,-0.2692360878,-0.0339862630,8.8621711731,-5.6475968361,-1.0010004044
        2.7598211765,       -0.1317848563,-0.2692360878,-0.0339862630,8.2518196106,-5.6475968361,-1.0010004044
        2.7623879910,       -0.1317848563,-0.2711892128,-0.0193378273,8.2518196106,-9.5538473129,1.3183355331
        2.7649641037,       -0.1317848563,-0.2711892128,-0.0193378273,8.2060432434,-6.8835587502,1.3183355331
        2.7675940990,       -0.1317848563,-0.2711892128,-0.0193378273,8.2060432434,-6.8835587502,3.4698247910
        2.7702989578,       -0.1317848563,-0.2711892128,-0.0193378273,8.2518196106,-7.6770157814,3.4698247910
        2.7730050087,       -0.1542457938,-0.2604470253,-0.0330097005,8.2518196106,-7.6770157814,5.8501958847
        2.7757191658,       -0.1542457938,-0.2604470253,-0.0330097005,7.6414680481,-8.1195211411,5.8501958847
        2.7784399986,       -0.1542457938,-0.2604470253,-0.0330097005,7.6414680481,-8.1195211411,9.6343755722
        2.7811470032,       -0.1542457938,-0.2604470253,-0.0330097005,7.4736213684,-8.4704732895,9.6343755722
        2.7840111256,       -0.1659645438,-0.2165017128,-0.0486347005,7.4736213684,-8.4704732895,15.0054693222
        2.7871510983,       -0.1659645438,-0.2165017128,-0.0486347005,6.3139533997,-8.8519430161,15.0054693222
        2.7898681164,       -0.1659645438,-0.2165017128,-0.0486347005,2.4077033997,-10.4693746567,20.3765640259
        2.7925729752,       -0.2050270438,-0.2199196815,-0.0413104817,4.9101448059,-10.4693746567,20.3765640259
        2.7952849865,       -0.2050270438,-0.2199196815,-0.0413104817,4.9101448059,-11.4154195786,24.8321304321
        2.7980060577,       -0.2050270438,-0.2199196815,-0.0413104817,3.7962532043,-11.4154195786,24.8321304321
        2.8007190228,       -0.2050270438,-0.2199196815,-0.0413104817,3.7962532043,-11.5374898911,28.2806167603
        2.8034300804,       -0.2103981376,-0.2887673378,-0.0457050130,2.3008918762,-11.5374898911,28.2806167603
        2.8061361313,       -0.2103981376,-0.2887673378,-0.0457050130,-1.6053581238,-11.2475728989,31.0882339478
        2.8087711334,       -0.2103981376,-0.2887673378,-0.0457050130,0.7750129700,-11.2475728989,31.0882339478
        2.8114531040,       -0.2103981376,-0.2887673378,-0.0457050130,0.7750129700,-11.4611959457,34.1094741821
        2.8140251637,       -0.1742653251,-0.3151345253,-0.0623065755,-0.4914665222,-11.4611959457,34.1094741821
        2.8165991306,       -0.1742653251,-0.3151345253,-0.0623065755,-0.4914665222,-11.4611959457,37.4969253540
        2.8192260265,       -0.1742653251,-0.3151345253,-0.0623065755,-3.7110710144,-12.0715475082,37.4969253540
        2.8217971325,       -0.1742653251,-0.3151345253,-0.0667011067,-3.7110710144,-12.0715475082,41.4031753540
        2.8243720531,       -0.1527809501,-0.2536110878,-0.0667011067,-6.2592887878,-12.6208639145,41.3268814087
        2.8269441128,       -0.1527809501,-0.2536110878,-0.0667011067,-6.2592887878,-12.6208639145,41.3268814087
        2.8295230865,       -0.1527809501,-0.2536110878,-0.0667011067,-7.3121452332,-13.5516500473,47.0336685181
        2.8321011066,       -0.1527809501,-0.0036110878,-0.0505878255,-7.3121452332,-13.5516500473,47.0336685181
        2.8346750736,       -0.1776832938,-0.0841774940,-0.0505878255,-8.4718132019,-14.2077779770,54.6630630493
        2.8372960091,       -0.1776832938,-0.0841774940,-0.0505878255,-8.4718132019,-14.2077779770,54.6630630493
        2.8398721218,       -0.1776832938,-0.0841774940,-0.0505878255,-9.4331169128,-14.4824361801,60.9191665649
        2.8424429893,       -0.1776832938,0.0046896935,-0.0398456380,-9.4331169128,-14.4824361801,60.9191665649
        2.8450241089,       -0.2235817313,0.0046896935,-0.0398456380,-8.1513786316,-13.1854391098,64.9017105103
        2.8477220535,       -0.2235817313,0.0046896935,-0.0398456380,-8.1513786316,-13.1854391098,64.9017105103
        2.8503000736,       -0.2235817313,0.0046896935,-0.0398456380,-7.0985221863,-9.9353170395,67.4194107056
        2.8528699875,       -0.2235817313,-0.0954079628,-0.0125018898,-7.0985221863,-9.9353170395,67.4194107056
        2.8554410934,       -0.2079567313,-0.0954079628,-0.0125018898,-7.7699089050,-7.6464982033,69.5098648071
        2.8580770493,       -0.2079567313,-0.0954079628,-0.0125018898,-7.7699089050,-7.6464982033,69.5098648071
        2.8607649803,       -0.2079567313,-0.0954079628,-0.0125018898,-8.5328483582,-7.0819230080,71.3866958618
        2.8634591103,       -0.1273903251,-0.1925759315,0.0373027995,-8.5328483582,-7.0819230080,71.3866958618
        2.8661501408,       -0.1273903251,-0.1925759315,0.0373027995,-9.7688102722,-7.6617569923,74.0875015259
        2.8688280582,       -0.1273903251,-0.1925759315,0.0373027995,-9.7688102722,-7.6617569923,74.0875015259
