time, acceleration x, acceleration y, acceleration z, gyro x gyro y, gyro z
        0.0000000000,       -0.0453066230,-0.1347736120,-0.0119614601,0.5921326876,1.1083788872,-6.0894064903
        0.0031402111,       -0.0438417792,-0.1406329870,-0.0119614601,0.5158387423,1.2762255669,-6.1962180138
        0.0058391094,       -0.0438417792,-0.1406329870,-0.0119614601,0.5158387423,1.2762255669,-6.1962180138
        0.0084421635,       -0.0438417792,-0.1406329870,-0.0119614601,0.9430848360,1.0931200981,-5.9368185997
        0.0110030174,       -0.0414003730,-0.1440509558,-0.0187973976,0.9430848360,1.0931200981,-5.9368185997
        0.0135622025,       -0.0414003730,-0.1440509558,-0.0187973976,0.5616151094,1.1083788872,-5.8147482872
        0.0161180496,       -0.0414003730,-0.1440509558,-0.0187973976,0.5616151094,1.1083788872,-5.8147482872
        0.0190172195,       -0.0414003730,-0.1440509558,-0.0187973976,0.5616151094,1.1846728325,-5.9063010216
        0.0215911865,       -0.0477480292,-0.1469806433,-0.0212388039,0.5616151094,1.1846728325,-5.9063010216
        0.0241482258,       -0.0477480292,-0.1469806433,-0.0212388039,0.5616151094,1.3220019341,-5.2959494591
        0.0267190933,       -0.0477480292,-0.1469806433,-0.0212388039,0.5616151094,1.3220019341,-5.2959494591
        0.0293171406,       -0.0477480292,-0.1469806433,-0.0212388039,0.0275575072,1.1083788872,-5.2501730919
        0.0318720341,       -0.0438417792,-0.1362384558,-0.0153794289,0.0275575072,1.1083788872,-5.2501730919
        0.0344390869,       -0.0438417792,-0.1362384558,-0.0153794289,0.4242860079,1.0473437309,-5.6774191856
        0.0371370316,       -0.0438417792,-0.1362384558,-0.0153794289,0.4242860079,1.0473437309,-5.6774191856
        0.0398020744,       -0.0438417792,-0.1362384558,-0.0153794289,0.3479920626,1.0015673637,-5.7689719200
        0.0424711704,       -0.0516542792,-0.1420978308,-0.0197739601,0.3479920626,1.0015673637,-5.7689719200
        0.0451350212,       -0.0516542792,-0.1420978308,-0.0197739601,0.6226502657,0.8947558403,-5.7384543419
        0.0478191376,       -0.0516542792,-0.1420978308,-0.0197739601,0.6226502657,0.8947558403,-5.7384543419
        0.0505239964,       -0.0516542792,-0.1420978308,-0.0119614601,0.4090272188,0.8337206841,-5.6163840294
        0.0534009933,       -0.0555605292,-0.1474689245,-0.0119614601,0.4090272188,0.8337206841,-5.6163840294
        0.0561091900,       -0.0555605292,-0.1474689245,-0.0119614601,0.4395447969,1.2304491997,-5.5553488731
        0.0586922169,       -0.0555605292,-0.1474689245,-0.0119614601,0.4395447969,1.2304491997,-5.5553488731
        0.0612621307,       -0.0555605292,-0.1455157995,-0.0173325539,0.4395447969,0.9252734184,-5.5400900841
        0.0638360977,       -0.0477480292,-0.1455157995,-0.0173325539,1.3245545626,0.9252734184,-5.5400900841
        0.0665302277,       -0.0477480292,-0.1455157995,-0.0173325539,1.3245545626,0.9557909966,-5.5248312950
        0.0691041946,       -0.0477480292,-0.1455157995,-0.0173325539,0.5005799532,0.9557909966,-5.5248312950
        0.0716831684,       -0.0457949042,-0.1420978308,-0.0173325539,0.5005799532,0.9557909966,-5.6011252403
        0.0742490292,       -0.0457949042,-0.1420978308,-0.0173325539,0.2259217650,0.7726855278,-5.6011252403
        0.0769991875,       -0.0457949042,-0.1420978308,-0.0173325539,0.2259217650,0.7726855278,-5.2654318810
        0.0796780586,       -0.0457949042,-0.1420978308,-0.0173325539,0.2564393282,1.0931200981,-5.2654318810
        0.0823562145,       -0.0487245917,-0.1401447058,-0.0231919289,0.2564393282,1.0931200981,-5.2959494591
        0.0850391388,       -0.0487245917,-0.1401447058,-0.0231919289,0.0885926634,1.0931200981,-5.2959494591
        0.0877301693,       -0.0487245917,-0.1401447058,-0.0231919289,0.0885926634,1.0931200981,-5.2196555138
        0.0904061794,       -0.0487245917,-0.1401447058,-0.0231919289,-0.5065001249,1.2457079887,-5.2196555138
        0.0930891037,       -0.0448183417,-0.1401447058,-0.0222153664,-0.5065001249,1.2457079887,-5.3112082481
        0.0957670212,       -0.0448183417,-0.1401447058,-0.0222153664,-0.5217589140,1.3220019341,-5.3112082481
        0.0984489918,       -0.0448183417,-0.1401447058,-0.0222153664,-0.5217589140,1.3220019341,-5.2806906700
        0.1012930870,       -0.0448183417,-0.1357501745,-0.0114731789,-0.5217589140,0.9863085747,-5.2806906700
        0.1039881706,       -0.0477480292,-0.1357501745,-0.0114731789,-0.5217589140,0.9863085747,-5.3417258263
        0.1066970825,       -0.0477480292,-0.1357501745,-0.0114731789,-0.1402891725,1.0626025200,-5.3417258263
        0.1093962193,       -0.0477480292,-0.1357501745,-0.0114731789,-0.1402891725,1.0626025200,-5.2959494591
        0.1120941639,       -0.0428652167,-0.1333087683,-0.0202622414,-0.0792540163,1.1694140434,-5.2959494591
        0.1147971153,       -0.0428652167,-0.1333087683,-0.0202622414,-0.0792540163,1.1694140434,-5.0823264122
        0.1176440716,       -0.0428652167,-0.1333087683,-0.0202622414,-0.3539122343,1.1694140434,-5.0823264122
        0.1202170849,       -0.0428652167,-0.1333087683,-0.0202622414,-0.3539122343,1.1694140434,-8.9885768890
        0.1227850914,       -0.0389589667,-0.1411212683,-0.0129380226,-0.2013243288,1.0473437309,-5.2196555138
        0.1253480911,       -0.0389589667,-0.1411212683,-0.0129380226,-0.2013243288,1.0473437309,-5.2196555138
        0.1280050278,       -0.0389589667,-0.1411212683,-0.0129380226,0.7447205782,1.0626025200,-5.4332785606
        0.1307091713,       -0.0389589667,-0.1411212683,-0.0129380226,0.7447205782,1.0626025200,-5.4332785606
        0.1335310936,       -0.0487245917,-0.1420978308,-0.0119614601,0.4853211641,0.8032031059,-5.4180197716
        0.1362252235,       -0.0487245917,-0.1420978308,-0.0119614601,0.4853211641,0.8032031059,-5.4180197716
        0.1389319897,       -0.0487245917,-0.1420978308,-0.0119614601,0.6073914766,1.0473437309,-5.2196555138
        0.1416351795,       -0.0487245917,-0.1416095495,-0.0119614601,0.6073914766,1.0473437309,-5.2196555138
        0.1443371773,       -0.0497011542,-0.1416095495,-0.0119614601,0.6684266329,1.1694140434,-5.1586203575
        0.1470761299,       -0.0497011542,-0.1416095495,-0.0119614601,0.6684266329,1.1694140434,-5.1586203575
        0.1497771740,       -0.0497011542,-0.1416095495,-0.0119614601,0.7447205782,1.1694140434,-4.8229269981
        0.1524732113,       -0.0457949042,-0.1381915808,-0.0173325539,0.7447205782,1.1694140434,-4.8229269981
        0.1551780701,       -0.0457949042,-0.1381915808,-0.0173325539,0.8210145235,0.8184618950,-5.1891379356
        0.1578841209,       -0.0457949042,-0.1381915808,-0.0173325539,0.8210145235,0.8184618950,-5.1891379356
        0.1605830193,       -0.0457949042,-0.1381915808,-0.0173325539,0.4242860079,0.7421679497,-5.2349143028
        0.1632840633,       -0.0487245917,-0.1430743933,-0.0192856789,0.4242860079,0.7421679497,-5.2349143028
        0.1659841537,       -0.0487245917,-0.1430743933,-0.0192856789,-0.0029600710,0.8794970512,-5.0212912560
        0.1685822010,       -0.0487245917,-0.1430743933,-0.0192856789,-0.0029600710,0.8794970512,-5.0212912560
        0.1711511612,       -0.0487245917,-0.1430743933,-0.0192856789,0.2869569063,0.7269091606,-5.2806906700
        0.1737160683,       -0.0506777167,-0.1352618933,-0.0178208351,0.2869569063,0.7269091606,-5.2806906700
        0.1762881279,       -0.0506777167,-0.1352618933,-0.0178208351,0.7294617891,0.8337206841,-5.4027609825
        0.1789870262,       -0.0506777167,-0.1352618933,-0.0178208351,0.7294617891,0.8337206841,-5.4027609825
        0.1816611290,       -0.0506777167,-0.1352618933,-0.0153794289,0.1954041868,1.1083788872,-5.1433615685
        0.1842269897,       -0.0409120917,-0.1386798620,-0.0153794289,0.1954041868,1.1083788872,-5.1433615685
        0.1868360043,       -0.0409120917,-0.1386798620,-0.0153794289,0.1191102415,1.3677783012,-5.1738791466
        0.1895170212,       -0.0409120917,-0.1386798620,-0.0153794289,0.1191102415,1.3677783012,-5.1738791466
        0.1922011375,       -0.0409120917,-0.1386798620,-0.0173325539,-0.2318419069,1.5814013481,-4.9907736778
        0.1948871613,       -0.0467714667,-0.1386798620,-0.0173325539,-0.2318419069,1.5814013481,-4.9907736778
        0.1975719929,       -0.0467714667,-0.1386798620,-0.0173325539,-0.7048643827,1.1694140434,-4.8381857872
        0.2002770901,       -0.0467714667,-0.1386798620,-0.0173325539,-0.7048643827,1.1694140434,-4.8381857872
        0.2029762268,       -0.0379824042,-0.1362384558,-0.0109848976,-0.8574522734,1.1388964653,-4.8229269981
        0.2056741714,       -0.0379824042,-0.1362384558,-0.0109848976,-0.8574522734,1.1388964653,-4.8229269981
        0.2083821297,       -0.0379824042,-0.1362384558,-0.0109848976,-0.3996886015,1.2609667778,-4.9602560997
        0.2110800743,       -0.0379824042,-0.1362384558,-0.0109848976,-0.3996886015,1.2609667778,-4.9602560997
        0.2137801647,       -0.0467714667,-0.1391681433,-0.0095200539,0.2869569063,1.3525195122,-5.2959494591
        0.2164871693,       -0.0467714667,-0.1391681433,-0.0095200539,0.2869569063,1.3525195122,-5.2959494591
        0.2191851139,       -0.0467714667,-0.1391681433,-0.0095200539,-0.1555479616,1.1388964653,-5.1128439903
        0.2218852043,       -0.0467714667,-0.1391681433,-0.0222153664,-0.1555479616,1.1388964653,-5.1128439903
        0.2246980667,       -0.0399355292,-0.1313556433,-0.0222153664,-0.1708067507,1.0015673637,-5.0060324669
        0.2274541855,       -0.0399355292,-0.1313556433,-0.0222153664,-0.1708067507,1.0015673637,-5.0060324669
        0.2301151752,       -0.0399355292,-0.1313556433,-0.0222153664,-0.4759825468,0.7726855278,-5.4332785606
        0.2328701019,       -0.0399355292,-0.1420978308,-0.0124497414,-0.4759825468,0.7726855278,-5.4332785606
        0.2359240055,       -0.0443300605,-0.1420978308,-0.0124497414,-0.1402891725,0.6963915825,-5.5400900841
        0.2386732101,       -0.0443300605,-0.1420978308,-0.0124497414,-0.1402891725,0.6963915825,-5.5400900841
        0.2413680553,       -0.0443300605,-0.1420978308,-0.0124497414,-0.1097715944,1.3067431450,-5.2959494591
        0.2440640926,       -0.0448183417,-0.1440509558,-0.0153794289,-0.1097715944,1.3067431450,-5.2959494591
        0.2468810081,       -0.0448183417,-0.1440509558,-0.0153794289,-0.0182188600,1.7492480278,-5.1433615685
        0.2495830059,       -0.0448183417,-0.1440509558,-0.0153794289,-0.0182188600,1.7492480278,-5.1433615685
        0.2522811890,       -0.0448183417,-0.1440509558,-0.0153794289,-0.2471006960,1.6882128716,-5.3722434044
        0.2549850941,       -0.0472597480,-0.1333087683,-0.0153794289,-0.2471006960,1.6882128716,-5.3722434044
        0.2576930523,       -0.0472597480,-0.1333087683,-0.0153794289,-0.1860655397,1.4135546684,-5.3417258263
        0.2603940964,       -0.0472597480,-0.1333087683,-0.0153794289,-0.1860655397,1.4135546684,-5.3417258263
        0.2631001472,       -0.0472597480,-0.1352618933,-0.0168442726,0.0122987181,1.1541552544,-5.3417258263
        0.2658050060,       -0.0457949042,-0.1352618933,-0.0168442726,0.0122987181,1.1541552544,-5.3417258263
        0.2684152126,       -0.0457949042,-0.1352618933,-0.0168442726,-0.0792540163,1.5203661919,-5.3112082481
        0.2709882259,       -0.0457949042,-0.1352618933,-0.0168442726,-0.0792540163,1.5203661919,-5.3112082481
        0.2735571861,       -0.0511659980,-0.1323322058,-0.0178208351,-3.9855039120,1.7645068169,-5.3722434044
        0.2761251926,       -0.0511659980,-0.1323322058,-0.0178208351,-0.3539122343,1.7645068169,-5.3722434044
        0.2787361145,       -0.0511659980,-0.1323322058,-0.0178208351,-0.3539122343,1.3525195122,-5.4485373497
        0.2813010216,       -0.0511659980,-0.1323322058,-0.0178208351,-0.1097715944,1.3525195122,-5.4485373497
        0.2838690281,       -0.0428652167,-0.1377032995,-0.0173325539,-0.1097715944,1.3525195122,-5.3112082481
        0.2865111828,       -0.0428652167,-0.1377032995,-0.0173325539,-0.0945128053,1.1541552544,-5.3112082481
        0.2892160416,       -0.0428652167,-0.1377032995,-0.0173325539,-0.0945128053,1.1541552544,-5.0365500450
        0.2919161320,       -0.0428652167,-0.1377032995,-0.0173325539,0.0428162962,1.5356249809,-5.0365500450
        0.2946140766,       -0.0453066230,-0.1425861120,-0.0192856789,0.0428162962,1.5356249809,-4.8381857872
        0.2973260880,       -0.0453066230,-0.1425861120,-0.0192856789,-0.2318419069,1.4898486137,-4.8381857872
        0.3000221252,       -0.0453066230,-0.1425861120,-0.0192856789,-0.2318419069,1.4898486137,-4.8992209435
        0.3027200699,       -0.0453066230,-0.1425861120,-0.0139145851,-0.1708067507,1.1846728325,-4.8992209435
        0.3054220676,       -0.0477480292,-0.1372150183,-0.0139145851,-0.1708067507,1.1846728325,-5.1128439903
        0.3081381321,       -0.0477480292,-0.1372150183,-0.0139145851,-0.2928770781,1.3677783012,-5.1128439903
        0.3109440804,       -0.0477480292,-0.1372150183,-0.0139145851,-0.2928770781,1.3677783012,-5.2043967247
        0.3136501312,       -0.0448183417,-0.1367267370,-0.0212388039,-0.2623594999,1.5356249809,-5.2043967247
        0.3163909912,       -0.0448183417,-0.1367267370,-0.0212388039,-0.2623594999,1.5356249809,-5.3722434044
        0.3189661503,       -0.0448183417,-0.1367267370,-0.0212388039,-0.0334776491,1.4135546684,-5.3722434044
        0.3215301037,       -0.0448183417,-0.1367267370,-0.0212388039,-0.0334776491,1.4135546684,-5.3722434044
        0.3240971565,       -0.0409120917,-0.1337970495,-0.0158677101,0.1038514525,1.0320849419,-4.9144797325
        0.3267221451,       -0.0409120917,-0.1337970495,-0.0158677101,0.1038514525,1.0320849419,-4.9144797325
        0.3294150829,       -0.0409120917,-0.1337970495,-0.0158677101,0.5158387423,1.0931200981,-5.1891379356
        0.3321142197,       -0.0409120917,-0.1337970495,-0.0158677101,0.5158387423,1.0931200981,-5.1891379356
        0.3348221779,       -0.0418886542,-0.1430743933,-0.0168442726,0.3937684298,1.1694140434,-5.4027609825
        0.3375329971,       -0.0418886542,-0.1430743933,-0.0168442726,0.3937684298,1.1694140434,-5.4027609825
        0.3402330875,       -0.0418886542,-0.1430743933,-0.0168442726,0.5005799532,1.3830370903,-4.9755148888
        0.3431701660,       -0.0418886542,-0.1430743933,-0.0212388039,0.5005799532,1.3830370903,-4.9755148888
        0.3458540440,       -0.0457949042,-0.1416095495,-0.0212388039,0.2716981173,1.2457079887,-4.9449973106
        0.3488280773,       -0.0457949042,-0.1416095495,-0.0212388039,0.2716981173,1.2457079887,-4.9449973106
        0.3515300751,       -0.0457949042,-0.1416095495,-0.0212388039,-0.3081358671,1.2457079887,-5.0212912560
        0.3542401791,       -0.0501894355,-0.1420978308,-0.0168442726,-0.3081358671,1.2457079887,-8.9275417328
        0.3569500446,       -0.0501894355,-0.1420978308,-0.0168442726,-0.4302061796,1.2762255669,-5.1738791466
        0.3596432209,       -0.0501894355,-0.1420978308,-0.0168442726,-0.4302061796,1.2762255669,-5.1738791466
        0.3623452187,       -0.0501894355,-0.1420978308,-0.0168442726,-0.3233946562,1.4898486137,-5.1891379356
        0.3650441170,       -0.0414003730,-0.1298907995,-0.0168442726,-0.3233946562,1.4898486137,-5.1891379356
        0.3676950932,       -0.0414003730,-0.1298907995,-0.0168442726,-0.0945128053,1.3372607231,-5.0212912560
        0.3702700138,       -0.0414003730,-0.1298907995,-0.0168442726,-0.0945128053,1.3372607231,-5.0212912560
        0.3728342056,       -0.0414003730,-0.1298907995,-0.0168442726,-0.0639952272,1.3830370903,-4.7924094200
        0.3755052090,       -0.0467714667,-0.1352618933,-0.0207505226,-0.0639952272,1.3830370903,-4.7924094200
        0.3780992031,       -0.0467714667,-0.1352618933,-0.0207505226,0.0428162962,1.3982958794,-4.8381857872
        0.3806681633,       -0.0467714667,-0.1352618933,-0.0207505226,0.0428162962,1.3982958794,-4.8381857872
        0.3832411766,       -0.0467714667,-0.1352618933,-0.0207505226,0.0428162962,1.0931200981,-4.8839621544
        0.3858091831,       -0.0433534980,-0.1298907995,-0.0163559914,0.0428162962,1.0931200981,-4.8839621544
        0.3884260654,       -0.0433534980,-0.1298907995,-0.0163559914,-0.0334776491,1.2151904106,-5.1891379356
        0.3909950256,       -0.0433534980,-0.1298907995,-0.0163559914,-0.0334776491,1.2151904106,-5.1891379356
        0.3935592175,       -0.0433534980,-0.1298907995,-0.0104966164,0.0580750853,1.6729540825,-5.0975852013
        0.3961300850,       -0.0462831855,-0.1303790808,-0.0104966164,0.0580750853,1.6729540825,-5.0975852013
        0.3987431526,       -0.0462831855,-0.1303790808,-0.0104966164,-3.8481748104,1.4898486137,-5.0975852013
        0.4013071060,       -0.0462831855,-0.1303790808,-0.0104966164,-0.3081358671,1.4898486137,-5.0975852013
        0.4038810730,       -0.0462831855,-0.1303790808,-0.0183091164,-0.3081358671,-2.4164013863,-5.1128439903
        0.4065101147,       -0.0433534980,-0.1435626745,-0.0183091164,-0.1860655397,1.2304491997,-5.1128439903
        0.4092121124,       -0.0433534980,-0.1435626745,-0.0183091164,-0.1860655397,1.2304491997,-4.9755148888
        0.4119191170,       -0.0433534980,-0.1435626745,-0.0183091164,-0.0792540163,1.2762255669,-4.9755148888
        0.4146142006,       -0.0516542792,-0.1328204870,-0.0168442726,-0.0792540163,5.1824755669,-4.7924094200
        0.4172911644,       -0.0516542792,-0.1328204870,-0.0168442726,-0.1097715944,1.4440722466,-4.7924094200
        0.4198610783,       -0.0516542792,-0.1328204870,-0.0168442726,-0.1097715944,1.4440722466,-4.8839621544
        0.4224309921,       -0.0516542792,-0.1328204870,-0.0168442726,0.0122987181,1.5814013481,-4.8839621544
        0.4250030518,       -0.0462831855,-0.1289142370,-0.0148911476,0.0122987181,1.5814013481,-4.8839621544
        0.4276862144,       -0.0462831855,-0.1289142370,-0.0148911476,-0.0945128053,1.2457079887,-4.7924094200
        0.4303832054,       -0.0462831855,-0.1289142370,-0.0148911476,-0.0945128053,1.2457079887,-4.7924094200
        0.4330880642,       -0.0462831855,-0.1289142370,-0.0148911476,0.1038514525,1.2914843559,-4.8992209435
        0.4357841015,       -0.0506777167,-0.1372150183,-0.0178208351,0.1038514525,1.2914843559,-8.8054714203
        0.4384980202,       -0.0506777167,-0.1372150183,-0.0178208351,-0.4149473906,1.5051074028,-5.2654318810
        0.4413030148,       -0.0506777167,-0.1372150183,-0.0178208351,-0.4149473906,1.5051074028,-1.3591818810
        0.4440062046,       -0.0506777167,-0.1372150183,-0.0178208351,-0.3386534452,1.3982958794,-5.0975852013
        0.4467160702,       -0.0472597480,-0.1337970495,-0.0178208351,-0.3386534452,1.3982958794,-5.0975852013
        0.4494180679,       -0.0472597480,-0.1337970495,-0.0178208351,-0.2318419069,1.4135546684,-5.0060324669
        0.4521191120,       -0.0472597480,-0.1337970495,-0.0178208351,-0.2318419069,1.4135546684,-5.0060324669
        0.4548192024,       -0.0472597480,-0.1386798620,-0.0163559914,-0.3691710234,1.6424365044,-4.7771506310
        0.4574861526,       -0.0506777167,-0.1386798620,-0.0163559914,-0.3691710234,1.6424365044,-4.7771506310
        0.4600601196,       -0.0506777167,-0.1386798620,-0.0163559914,-0.2318419069,1.4593310356,-4.7466330528
        0.4627060890,       -0.0506777167,-0.1386798620,-0.0163559914,-0.2318419069,1.4593310356,-4.7466330528
        0.4652709961,       -0.0457949042,-0.1450275183,-0.0207505226,-0.0487364382,1.2609667778,-4.4567160606
        0.4680981636,       -0.0457949042,-0.1450275183,-0.0207505226,-0.0487364382,1.2609667778,-4.4567160606
        0.4706690311,       -0.0457949042,-0.1450275183,-0.0207505226,-0.4759825468,1.2457079887,-4.6703391075
        0.4732451439,       -0.0457949042,-0.1450275183,-0.0207505226,-0.4759825468,1.2457079887,-4.6703391075
        0.4758121967,       -0.0526308417,-0.1362384558,-0.0173325539,-1.1626280546,1.2914843559,-4.9602560997
        0.4784371853,       -0.0526308417,-0.1362384558,-0.0173325539,-1.1626280546,1.2914843559,-4.9602560997
        0.4814851284,       -0.0526308417,-0.1362384558,-0.0173325539,-1.1626280546,1.1846728325,-4.8076682091
        0.4840500355,       -0.0526308417,-0.1362384558,-0.0173325539,-1.1626280546,1.1846728325,-4.8076682091
        0.4866931438,       -0.0472597480,-0.1342853308,-0.0158677101,-1.2694395781,1.2914843559,-4.7618918419
        0.4892551899,       -0.0472597480,-0.1342853308,-0.0158677101,-1.2694395781,1.2914843559,-4.7618918419
        0.4918150902,       -0.0472597480,-0.1342853308,-0.0158677101,-0.9337462187,1.4745898247,-4.9449973106
        0.4943799973,       -0.0472597480,-0.1342853308,-0.0158677101,-0.9337462187,1.4745898247,-4.9449973106
        0.4969542027,       -0.0472597480,-0.1294025183,-0.0148911476,-0.9032286406,1.1846728325,-4.8687033653
        0.4995160103,       -0.0472597480,-0.1294025183,-0.0148911476,-0.9032286406,1.1846728325,-4.8687033653
        0.5020802021,       -0.0472597480,-0.1294025183,-0.0148911476,-0.9032286406,1.2457079887,-4.5330100060
        0.5047521591,       -0.0472597480,-0.1294025183,-0.0202622414,-0.3691710234,1.2457079887,-4.5330100060
        0.5073292255,       -0.0462831855,-0.1372150183,-0.0202622414,-0.3691710234,1.2457079887,-4.4872336388
        0.5098891258,       -0.0462831855,-0.1372150183,-0.0202622414,-0.1097715944,1.0778613091,-4.4872336388
        0.5124530792,       -0.0462831855,-0.1372150183,-0.0202622414,-0.1097715944,1.0778613091,-4.6398215294
        0.5150160789,       -0.0462831855,-0.1372150183,-0.0168442726,-1.1015928984,1.2151904106,-4.6398215294
        0.5176351070,       -0.0492128730,-0.1367267370,-0.0168442726,-1.1015928984,1.2151904106,-4.6398215294
        0.5202031136,       -0.0492128730,-0.1367267370,-0.0168442726,-1.0863341093,1.4898486137,-4.5787863731
        0.5227670670,       -0.0492128730,-0.1367267370,-0.0168442726,-1.0863341093,1.4898486137,-4.5787863731
        0.5253300667,       -0.0492128730,-0.1372150183,-0.0158677101,-0.9642637968,1.3830370903,-4.6093039513
        0.5279800892,       -0.0448183417,-0.1372150183,-0.0158677101,-0.9642637968,1.3830370903,-4.6093039513
        0.5305449963,       -0.0448183417,-0.1372150183,-0.0158677101,-0.9032286406,1.3982958794,-4.6855978966
        0.5331120491,       -0.0448183417,-0.1372150183,-0.0158677101,-0.9032286406,1.3982958794,-4.6855978966
        0.5356822014,       -0.0443300605,-0.1342853308,-0.0129380226,-0.9947813749,1.4898486137,-4.6093039513
        0.5384430885,       -0.0443300605,-0.1342853308,-0.0129380226,-0.9947813749,1.4898486137,-4.6093039513
        0.5411391258,       -0.0443300605,-0.1342853308,-0.0129380226,-1.0405577421,1.3372607231,-4.5940451622
        0.5438361168,       -0.0443300605,-0.1342853308,-0.0129380226,-1.0405577421,1.3372607231,-4.5940451622
        0.5465340614,       -0.0438417792,-0.1333087683,-0.0114731789,-0.7048643827,1.2457079887,-4.7771506310
        0.5492310524,       -0.0438417792,-0.1333087683,-0.0114731789,-0.7048643827,1.2457079887,-4.7771506310
        0.5519251823,       -0.0438417792,-0.1333087683,-0.0114731789,-0.8116759062,1.2457079887,-4.8076682091
        0.5546171665,       -0.0438417792,-0.1333087683,-0.0114731789,-0.8116759062,1.2457079887,-4.8076682091
        0.5572881699,       -0.0462831855,-0.1323322058,-0.0148911476,-0.5370177031,1.3525195122,-4.7771506310
        0.5598561764,       -0.0462831855,-0.1323322058,-0.0148911476,-0.5370177031,1.3525195122,-4.7771506310
        0.5624201298,       -0.0462831855,-0.1323322058,-0.0148911476,-0.7658995390,1.4440722466,-4.9297385216
        0.5649859905,       -0.0462831855,-0.1323322058,-0.0148911476,-0.7658995390,1.4440722466,-4.9297385216
        0.5676670074,       -0.0433534980,-0.1337970495,-0.0202622414,-0.6590880156,1.2457079887,-5.0212912560
        0.5702362061,       -0.0433534980,-0.1337970495,-0.0202622414,-0.6590880156,1.2457079887,-5.0212912560
        0.5728020668,       -0.0433534980,-0.1337970495,-0.0202622414,-0.6590880156,1.2151904106,-4.9449973106
        0.5753681660,       -0.0433534980,-0.1337970495,-0.0158677101,-0.5522764921,1.2151904106,-4.9449973106
        0.5780251026,       -0.0477480292,-0.1367267370,-0.0158677101,-0.5522764921,1.4745898247,-4.6703391075
        0.5807240009,       -0.0477480292,-0.1367267370,-0.0158677101,-0.2623594999,1.4745898247,-4.6703391075
        0.5834221840,       -0.0477480292,-0.1367267370,-0.0158677101,-0.2623594999,-2.4316601753,-4.7313742638
        0.5861201286,       -0.0389589667,-0.1367267370,-0.0144028664,-0.3996886015,1.2151904106,-4.7313742638
        0.5888290405,       -0.0389589667,-0.1367267370,-0.0144028664,-0.3996886015,5.1214404106,-4.9449973106
        0.5915210247,       -0.0389589667,-0.1367267370,-0.0144028664,-0.5522764921,1.4440722466,-4.9449973106
        0.5943801403,       -0.0389589667,-0.1367267370,-0.0144028664,-0.5522764921,1.3677783012,-4.7771506310
        0.5974822044,       -0.0418886542,-0.1367267370,-0.0192856789,-0.5370177031,1.3677783012,-4.7771506310
        0.6001830101,       -0.0418886542,-0.1367267370,-0.0192856789,-1.0558165312,1.3067431450,-4.8839621544
        0.6028862000,       -0.0418886542,-0.1367267370,-0.0192856789,-1.0558165312,1.3067431450,-4.8839621544
        0.6055881977,       -0.0418886542,-0.1367267370,-0.0178208351,-0.9947813749,1.3982958794,-4.7771506310
        0.6082081795,       -0.0428652167,-0.1357501745,-0.0178208351,-0.9947813749,1.3982958794,-4.7771506310
        0.6107721329,       -0.0428652167,-0.1357501745,-0.0178208351,-0.9947813749,1.1388964653,-4.3804221153
        0.6133370399,       -0.0428652167,-0.1357501745,-0.0178208351,-0.5217589140,1.1388964653,-4.3804221153
        0.6158962250,       -0.0428652167,-0.1357501745,-0.0241684914,-0.5217589140,1.1388964653,-4.2125754356
        0.6185820103,       -0.0443300605,-0.1342853308,-0.0241684914,-0.8727110624,1.1999316216,-4.2125754356
        0.6212780476,       -0.0443300605,-0.1342853308,-0.0241684914,-0.8727110624,1.1999316216,-4.3956809044
        0.6239800453,       -0.0443300605,-0.1342853308,-0.0241684914,-0.6743468046,1.1694140434,-4.3956809044
        0.6266820431,       -0.0404238105,-0.1455157995,-0.0217270851,-0.6743468046,1.1694140434,-4.4261984825
        0.6292459965,       -0.0404238105,-0.1455157995,-0.0217270851,-0.9337462187,1.1236376762,-4.4261984825
        0.6319241524,       -0.0404238105,-0.1455157995,-0.0217270851,-0.9337462187,1.1236376762,-4.4261984825
        0.6344931126,       -0.0404238105,-0.1455157995,-0.0217270851,-1.2236632109,1.0320849419,-4.3651633263
        0.6370980740,       -0.0438417792,-0.1391681433,-0.0183091164,-1.2236632109,1.0320849419,-4.3651633263
        0.6396620274,       -0.0438417792,-0.1391681433,-0.0183091164,-1.5746153593,0.5743212700,-4.6093039513
        0.6422262192,       -0.0438417792,-0.1391681433,-0.0183091164,-1.5746153593,0.5743212700,-4.6093039513
        0.6447920799,       -0.0438417792,-0.1391681433,-0.0183091164,-2.3222959042,0.6353564262,-4.3193869591
        0.6474030018,       -0.0438417792,-0.1381915808,-0.0153794289,-2.3222959042,0.6353564262,-4.3193869591
        0.6499731541,       -0.0438417792,-0.1381915808,-0.0153794289,-2.0323789120,1.0320849419,-4.2430930138
        0.6525380611,       -0.0438417792,-0.1381915808,-0.0153794289,-2.0323789120,1.0320849419,-4.2430930138
        0.6551091671,       -0.0438417792,-0.1381915808,-0.0153794289,-1.6203917265,0.8947558403,-3.8463644981
        0.6577711105,       -0.0448183417,-0.1503986120,-0.0085434914,-1.6203917265,0.8947558403,-3.8463644981
        0.6603381634,       -0.0448183417,-0.1503986120,-0.0085434914,-1.5593565702,1.3677783012,-3.4954123497
        0.6629021168,       -0.0448183417,-0.1503986120,-0.0085434914,-1.5593565702,1.3677783012,-3.4954123497
        0.6654691696,       -0.0448183417,-0.1503986120,-0.0085434914,-1.5593565702,1.1083788872,-3.3275656700
        0.6681280136,       -0.0482363105,-0.1484454870,-0.0090317726,-1.7729796171,1.1083788872,-3.3275656700
        0.6708271503,       -0.0482363105,-0.1484454870,-0.0090317726,-1.7729796171,1.0320849419,-3.5259299278
        0.6735210419,       -0.0482363105,-0.1484454870,-0.0090317726,-1.8797911406,1.0320849419,-3.5259299278
        0.6762180328,       -0.0482363105,-0.1484454870,-0.0114731789,-1.8797911406,0.7421679497,-3.3123068810
        0.6789271832,       -0.0428652167,-0.1372150183,-0.0114731789,-1.9866026640,0.7421679497,-3.3123068810
        0.6816191673,       -0.0428652167,-0.1372150183,-0.0114731789,-1.9866026640,1.2762255669,-2.5188498497
        0.6843180656,       -0.0428652167,-0.1372150183,-0.0114731789,-2.0018613338,1.2762255669,-2.5188498497
        0.6870141029,       -0.0428652167,-0.1372150183,-0.0217270851,-2.0018613338,0.9405322075,-2.1678977013
        0.6897079945,       -0.0379824042,-0.1372150183,-0.0217270851,-1.7729796171,0.9405322075,-2.1678977013
        0.6924052238,       -0.0379824042,-0.1372150183,-0.0217270851,-1.7729796171,1.1694140434,-2.2289328575
        0.6952090263,       -0.0379824042,-0.1372150183,-0.0217270851,-1.6356505156,1.1694140434,-2.2289328575
        0.6979219913,       -0.0404238105,-0.1352618933,-0.0129380226,-1.6356505156,1.1846728325,-2.0916037560
        0.7006120682,       -0.0404238105,-0.1352618933,-0.0129380226,-2.0018613338,1.1846728325,-2.0916037560
        0.7033090591,       -0.0404238105,-0.1352618933,-0.0129380226,-2.0018613338,1.0473437309,-1.7559103966
        0.7060050964,       -0.0404238105,-0.1352618933,-0.0129380226,-2.5816953182,1.0473437309,-1.7559103966
        0.7086071968,       -0.0330995917,-0.1352618933,-0.0300278664,-2.5816953182,1.0473437309,-1.2218527794
        0.7111730576,       -0.0330995917,-0.1352618933,-0.0300278664,-2.9173886776,0.7116503716,-1.2218527794
        0.7138969898,       -0.0330995917,-0.1352618933,-0.0300278664,-2.9173886776,0.7116503716,-0.8098654747
        0.7168550491,       -0.0330995917,-0.1352618933,-0.0329575539,-2.7190244198,1.2151904106,-0.8098654747
        0.7195641994,       -0.0526308417,-0.1254962683,-0.0329575539,-2.7190244198,1.1846728325,-0.4894309044
        0.7222661972,       -0.0526308417,-0.1254962683,-0.0329575539,-1.9408262968,1.1846728325,-0.4894309044
        0.7249641418,       -0.0526308417,-0.1254962683,-0.0329575539,-1.9408262968,1.4745898247,-0.7183127403
        0.7276701927,       -0.0653261542,-0.1181720495,-0.0300278664,-0.8574522734,1.4745898247,-0.7183127403
        0.7303740978,       -0.0653261542,-0.1181720495,-0.0300278664,-0.8574522734,1.4745898247,-0.0164084435
        0.7330710888,       -0.0653261542,-0.1181720495,-0.0300278664,0.0122987181,1.4593310356,-0.0164084435
        0.7357690334,       -0.0653261542,-0.1181720495,-0.0300278664,0.0122987181,-2.4469189644,0.1056618690
        0.7384760380,       -0.0340761542,-0.1337970495,-0.0163559914,0.6836854219,0.8947558403,0.1056618690
        0.7411780357,       -0.0340761542,-0.1337970495,-0.0163559914,0.6836854219,0.8947558403,0.5023903847
        0.7438740730,       -0.0340761542,-0.1337970495,-0.0163559914,-0.0639952272,0.6811327934,0.5023903847
        0.7466151714,       -0.0340761542,-0.1337970495,-0.0163559914,-0.0639952272,0.6811327934,1.0059304237
        0.7491791248,       -0.0409120917,-0.1772540808,-0.0114731789,-0.6896055937,0.7269091606,1.0059304237
        0.7517461777,       -0.0409120917,-0.1772540808,-0.0114731789,-0.6896055937,0.7269091606,1.0059304237
        0.7543110847,       -0.0409120917,-0.1772540808,-0.0114731789,-0.8421934843,0.6658740044,1.6315407753
        0.7569110394,       -0.0409120917,-0.1772540808,-0.0075669289,-0.8421934843,0.6658740044,1.6315407753
        0.7595860958,       -0.0560488105,-0.1689532995,-0.0075669289,-1.5593565702,0.7116503716,2.0130105019
        0.7621560097,       -0.0560488105,-0.1689532995,-0.0075669289,-1.5593565702,0.7116503716,2.0130105019
        0.7647171021,       -0.0560488105,-0.1689532995,-0.0075669289,-2.8563535213,0.9252734184,2.7149147987
        0.7673790455,       -0.0560488105,-0.1367267370,-0.0168442726,-2.8563535213,0.9252734184,2.7149147987
        0.7699460983,       -0.0462831855,-0.1367267370,-0.0168442726,-4.3517150879,0.9557909966,3.6609597206
        0.7725150585,       -0.0462831855,-0.1367267370,-0.0168442726,-4.3517150879,0.9557909966,3.6609597206
        0.7750811577,       -0.0462831855,-0.1367267370,-0.0168442726,-5.5419006348,-0.0055127144,4.2560524940
        0.7778301239,       -0.0462831855,-0.1547931433,-0.0212388039,-5.5419006348,-0.0055127144,4.2560524940
        0.7805290222,       -0.0433534980,-0.1547931433,-0.0212388039,-5.6639709473,-0.4632763863,4.8511452675
        0.7832231522,       -0.0433534980,-0.1547931433,-0.0212388039,-5.6639709473,-0.4632763863,4.8511452675
        0.7859241962,       -0.0433534980,-0.1547931433,-0.0212388039,-4.4890441895,0.0707812309,4.7138161659
        0.7886261940,       -0.0638613105,-0.1469806433,-0.0212388039,-4.4890441895,0.0707812309,4.7138161659
        0.7913382053,       -0.0638613105,-0.1469806433,-0.0212388039,-4.0312805176,0.3301806450,5.1563210487
        0.7939100266,       -0.0638613105,-0.1469806433,-0.0212388039,-4.0312805176,0.3301806450,5.1563210487
        0.7965540886,       -0.0638613105,-0.1469806433,-0.0212388039,-4.2449035645,0.3759570122,5.9040017128
        0.7991402149,       -0.0414003730,-0.1289142370,-0.0266098976,-4.2449035645,0.3759570122,5.9040017128
        0.8023121357,       -0.0414003730,-0.1289142370,-0.0266098976,-4.5348205566,0.3606982231,7.4298806190
        0.8048820496,       -0.0414003730,-0.1289142370,-0.0266098976,-4.5348205566,0.3606982231,7.4298806190
        0.8075070381,       -0.0414003730,-0.1289142370,-0.0246567726,-5.7097473145,-0.0818066597,8.1165256500
        0.8100800514,       -0.0321230292,-0.1709064245,-0.0246567726,-5.7097473145,-0.0818066597,8.1165256500
        0.8126430511,       -0.0321230292,-0.1709064245,-0.0246567726,-6.0149230957,-0.2649121284,8.5742893219
        0.8152070045,       -0.0321230292,-0.1709064245,-0.0246567726,-6.0149230957,-0.2649121284,8.5742893219
        0.8178210258,       -0.0321230292,-0.1738361120,-0.0227036476,-6.0149230957,-0.1886181831,8.8336887360
        0.8203861713,       -0.0604433417,-0.1738361120,-0.0227036476,-5.7860412598,-0.1886181831,8.8336887360
        0.8230640888,       -0.0604433417,-0.1738361120,-0.0227036476,-5.7860412598,0.2386279106,9.4898166656
        0.8256340027,       -0.0604433417,-0.1738361120,-0.0227036476,-6.7778625488,0.2386279106,9.4898166656
        0.8282411098,       -0.0604433417,-0.1235431433,-0.0329575539,-6.7778625488,0.2386279106,10.4053440094
        0.8308100700,       -0.0580019355,-0.1235431433,-0.0329575539,-8.7157287598,0.2996630669,10.4053440094
        0.8333761692,       -0.0580019355,-0.1235431433,-0.0329575539,-8.7157287598,0.2996630669,14.3115940094
        0.8359441757,       -0.0580019355,-0.1235431433,-0.0329575539,-9.9059143066,0.3301806450,10.8936252594
        0.8385550976,       -0.0330995917,-0.1132892370,-0.0017075539,-9.9059143066,0.3301806450,10.8936252594
        0.8411171436,       -0.0330995917,-0.1132892370,-0.0017075539,-9.6159973145,0.3912158012,11.2750949860
        0.8436911106,       -0.0330995917,-0.1132892370,-0.0017075539,-9.6159973145,0.3912158012,11.2750949860
        0.8462581635,       -0.0330995917,-0.1132892370,-0.0017075539,-8.8835754395,0.4827685356,11.9769992828
        0.8489391804,       -0.0404238105,-0.1298907995,0.0002455711,-8.8835754395,0.4827685356,11.9769992828
        0.8515172005,       -0.0404238105,-0.1298907995,0.0002455711,-7.5408020020,0.8794970512,11.7938938141
        0.8540902138,       -0.0404238105,-0.1298907995,0.0002455711,-7.5408020020,0.8794970512,11.7938938141
        0.8568081856,       -0.0404238105,-0.1298907995,0.0002455711,-5.8318176270,1.1541552544,12.1143283844
        0.8594970703,       -0.0335878730,-0.1045001745,0.0007338524,-5.8318176270,1.1541552544,12.1143283844
        0.8621850014,       -0.0335878730,-0.1045001745,0.0007338524,-5.4808654785,1.0778613091,12.4957981110
        0.8648710251,       -0.0335878730,-0.1045001745,0.0007338524,-5.4808654785,1.0778613091,12.4957981110
        0.8675692081,       -0.0335878730,-0.1045001745,0.0007338524,-5.0536193848,1.3067431450,12.5415744781
        0.8702561855,       -0.0379824042,-0.1098712683,0.0070815086,-5.0536193848,1.3067431450,12.5415744781
        0.8729431629,       -0.0379824042,-0.1098712683,0.0070815086,-4.5805969238,1.3220019341,12.1753635406
        0.8756279945,       -0.0379824042,-0.1098712683,0.0070815086,-4.5805969238,1.3220019341,12.1753635406
        0.8783230782,       -0.0379824042,-0.1098712683,0.0021986961,-4.4737854004,1.2609667778,12.1143283844
        0.8810100555,       -0.0418886542,-0.1054767370,0.0021986961,-4.4737854004,1.2609667778,12.1143283844
        0.8836970329,       -0.0418886542,-0.1054767370,0.0021986961,-4.2754211426,1.5661425591,12.6026096344
        0.8865041733,       -0.0418886542,-0.1054767370,0.0021986961,-4.2754211426,1.5661425591,12.6026096344
        0.8891930580,       -0.0540956855,-0.0986407995,-0.0158677101,-4.1838684082,2.0086474419,12.2516574860
        0.8918800354,       -0.0540956855,-0.0986407995,-0.0158677101,-4.1838684082,2.0086474419,12.2516574860
        0.8945691586,       -0.0540956855,-0.0986407995,-0.0158677101,-5.4961242676,1.5814013481,12.2211399078
        0.8972680569,       -0.0540956855,-0.0986407995,-0.0158677101,-5.4961242676,1.5814013481,12.2211399078
        0.8998401165,       -0.0374941230,-0.1108478308,-0.0227036476,-8.2121887207,1.8560595512,11.6260471344
        0.9024410248,       -0.0374941230,-0.1108478308,-0.0227036476,-8.2121887207,1.8560595512,11.6260471344
        0.9050149918,       -0.0374941230,-0.1108478308,-0.0227036476,-10.8519592285,1.7950243950,10.9851779938
        0.9076440334,       -0.0374941230,-0.1108478308,-0.0227036476,-10.8519592285,1.7950243950,10.9851779938
        0.9102210999,       -0.0184511542,-0.1025470495,-0.0334458351,-10.8519592285,1.7797656059,10.8631076813
        0.9129061699,       -0.0184511542,-0.1025470495,-0.0334458351,-13.3086242676,1.7797656059,10.8631076813
        0.9155020714,       -0.0184511542,-0.1025470495,-0.0334458351,-13.3086242676,2.2527880669,10.3595676422
        0.9183080196,       -0.0184511542,-0.1025470495,-0.0256333351,-15.5974426270,2.2527880669,10.3595676422
        0.9208831787,       -0.0038027167,-0.0605548620,-0.0256333351,-15.5974426270,2.2527880669,10.0086154938
        0.9234549999,       -0.0038027167,-0.0605548620,-0.0256333351,-17.1233215332,3.1835741997,10.0086154938
        0.9260280132,       -0.0038027167,-0.0605548620,-0.0256333351,-17.1233215332,3.1835741997,9.5661106110
        0.9286410809,       -0.0038027167,-0.0605548620,-0.0241684914,-17.7489318848,3.2293505669,9.5661106110
        0.9312121868,       -0.0243105292,-0.0468829870,-0.0241684914,-17.7489318848,3.2293505669,9.5661106110
        0.9337801933,       -0.0243105292,-0.0468829870,-0.0241684914,-18.0541076660,2.5579638481,9.4898166656
        0.9363961220,       -0.0243105292,-0.0468829870,-0.0241684914,-18.0541076660,2.5579638481,9.4898166656
        0.9389672279,       -0.0243105292,-0.0825275183,-0.0129380226,-18.2372131348,1.5966601372,8.5132541656
        0.9415371418,       -0.0340761542,-0.0825275183,-0.0129380226,-18.2372131348,1.5966601372,8.5132541656
        0.9441030025,       -0.0340761542,-0.0825275183,-0.0129380226,-17.0470275879,1.2609667778,7.2009987831
        0.9467160702,       -0.0340761542,-0.0825275183,-0.0129380226,-17.0470275879,1.2609667778,7.2009987831
        0.9494102001,       -0.0340761542,-0.0595782995,-0.0124497414,-14.7276916504,0.8794970512,5.9955544472
        0.9519841671,       -0.0555605292,-0.0595782995,-0.0124497414,-14.7276916504,0.8794970512,5.9955544472
        0.9545521736,       -0.0555605292,-0.0595782995,-0.0124497414,-12.1794738770,0.8642382622,5.3089089394
        0.9571330547,       -0.0555605292,-0.0595782995,-0.0124497414,-12.1794738770,0.8642382622,5.3089089394
        0.9597091675,       -0.0780214667,-0.0351642370,-0.0353989601,-9.6159973145,1.1388964653,4.4849343300
        0.9622700214,       -0.0780214667,-0.0351642370,-0.0353989601,-9.6159973145,1.1388964653,4.4849343300
        0.9648330212,       -0.0780214667,-0.0351642370,-0.0353989601,-5.7097473145,0.7726855278,3.2184548378
        0.9675791264,       -0.0780214667,-0.0351642370,-0.0353989601,-7.9527893066,0.7726855278,3.2184548378
        0.9701511860,       -0.0575136542,-0.0488361120,-0.0319809914,-7.9527893066,0.4369921684,2.4249978065
        0.9727210999,       -0.0575136542,-0.0488361120,-0.0319809914,-7.3119201660,0.4369921684,2.4249978065
        0.9752891064,       -0.0575136542,-0.0488361120,-0.0319809914,-7.3119201660,0.2996630669,2.2113747597
        0.9780571461,       -0.0575136542,-0.0488361120,-0.0319809914,-6.7473449707,0.2996630669,2.2113747597
        0.9807391167,       -0.0394472480,-0.0737384558,-0.0075669289,-6.7473449707,0.2996630669,1.5857644081
        0.9834220409,       -0.0394472480,-0.0737384558,-0.0075669289,-5.8318176270,-0.0818066597,1.5857644081
        0.9861030579,       -0.0394472480,-0.0737384558,-0.0075669289,-5.8318176270,-0.0818066597,1.6467995644
        0.9888331890,       -0.0394472480,-0.0737384558,-0.0075669289,-4.8705139160,-0.0818066597,1.6467995644
        0.9915320873,       -0.0350527167,-0.0781329870,-0.0119614601,-4.8705139160,-0.0818066597,1.5247292519
        0.9942290783,       -0.0350527167,-0.0781329870,-0.0119614601,-4.5195617676,-0.0207715034,1.5247292519
        0.9969182014,       -0.0350527167,-0.0781329870,-0.0119614601,-4.5195617676,-0.0207715034,1.9519753456
        0.9994812012,       -0.0350527167,-0.0947345495,-0.0197739601,-4.0617980957,0.1775927544,1.9519753456
        1.0020492077,       -0.0433534980,-0.0947345495,-0.0197739601,-4.0617980957,0.1775927544,1.9519753456
        1.0046160221,       -0.0433534980,-0.0947345495,-0.0197739601,-3.8786923885,-0.3259472847,2.6538796425
        1.0072610378,       -0.0433534980,-0.0947345495,-0.0197739601,-3.8786923885,-0.3259472847,2.6538796425
        1.0099470615,       -0.0433534980,-0.1176837683,-0.0085434914,-3.7718808651,-0.3869824409,3.9966530800
        1.0127382278,       -0.0492128730,-0.1176837683,-0.0085434914,-3.7718808651,-0.3869824409,3.9966530800
        1.0154230595,       -0.0492128730,-0.1176837683,-0.0085434914,-4.5805969238,-0.8294873238,5.3089089394
        1.0181531906,       -0.0492128730,-0.1176837683,-0.0085434914,-4.5805969238,-0.8294873238,5.3089089394
        1.0208401680,       -0.0663027167,-0.1567462683,-0.0256333351,-4.8247375488,-0.0970654488,6.9415993690
        1.0235280991,       -0.0663027167,-0.1567462683,-0.0256333351,-4.8247375488,-0.0970654488,6.9415993690
        1.0262110233,       -0.0663027167,-0.1567462683,-0.0256333351,-4.4890441895,0.1775927544,9.9780979156
        1.0289070606,       -0.0663027167,-0.1567462683,-0.0256333351,-4.4890441895,0.1775927544,9.9780979156
        1.0315902233,       -0.0702089667,-0.1870197058,-0.0568833351,-4.0160217285,0.9405322075,14.5557346344
        1.0344409943,       -0.0702089667,-0.1870197058,-0.0568833351,-4.0160217285,0.9405322075,14.5557346344
        1.0375590324,       -0.0702089667,-0.1870197058,-0.0568833351,-4.4585266113,1.3982958794,19.6216526031
        1.0402321815,       -0.0702089667,-0.2011798620,-0.0383286476,-4.4585266113,1.3982958794,23.7567844391
        1.0429041386,       -0.0809511542,-0.2011798620,-0.0383286476,-5.3587951660,0.5743212700,23.7567844391
        1.0455741882,       -0.0809511542,-0.2011798620,-0.0383286476,-5.3587951660,0.5743212700,27.6630344391
        1.0482079983,       -0.0809511542,-0.2011798620,-0.0383286476,-6.3658752441,-0.3412060738,28.0902805328
        1.0507760048,       -0.1048769355,-0.2260822058,-0.0534653664,-6.3658752441,-0.3412060738,28.0902805328
        1.0533480644,       -0.1048769355,-0.2260822058,-0.0534653664,-8.0596008301,-0.7226758003,32.5000724792
        1.0559132099,       -0.1048769355,-0.2260822058,-0.0534653664,-8.0596008301,-0.7226758003,32.5000724792
        1.0585892200,       -0.1048769355,-0.2260822058,-0.0534653664,-11.5080871582,0.3606982231,36.1469230652
        1.0612940788,       -0.0882753730,-0.2910236120,-0.0549302101,-11.5080871582,0.3606982231,36.1469230652
        1.0639960766,       -0.0882753730,-0.2910236120,-0.0549302101,-16.2077941895,0.9863085747,39.8395500183
        1.0667080879,       -0.0882753730,-0.2910236120,-0.0549302101,-16.2077941895,0.9863085747,39.8395500183
        1.0692880154,       -0.0882753730,-0.2910236120,-0.0549302101,-20.9380187988,0.8489794731,43.2117424011
        1.0718622208,       -0.0326113105,-0.2099689245,-0.0436997414,-20.9380187988,0.8489794731,43.2117424011
        1.0744321346,       -0.0326113105,-0.2099689245,-0.0436997414,-26.6753234863,-0.4327588081,45.4395256042
        1.0771532059,       -0.0326113105,-0.2099689245,-0.0436997414,-26.6753234863,-0.4327588081,45.4395256042
        1.0797262192,       -0.0326113105,-0.2099689245,0.0813002586,-32.5194396973,-2.3858838081,47.1942863464
        1.0823030472,       -0.0072206855,-0.0493243933,-0.0109848976,-32.5194396973,-2.3858838081,47.1942863464
        1.0848770142,       -0.0072206855,-0.0493243933,-0.0109848976,-34.1216125488,-4.4153027534,48.1250724792
        1.0875921249,       -0.0072206855,-0.0493243933,-0.0109848976,-34.1216125488,-4.4153027534,48.1250724792
        1.0901701450,       -0.0072206855,-0.0493243933,0.0329604149,-30.6426086426,-5.1935009956,47.3316154480
        1.0927381516,        0.0201230645,0.0468670130,0.0329604149,-30.6426086426,-5.1935009956,47.3316154480
        1.0954592228,        0.0201230645,0.0468670130,0.0329604149,-24.0508117676,-6.5210156441,44.8444328308
        1.0982592106,        0.0201230645,0.0468670130,0.0329604149,-24.0508117676,-6.5210156441,44.8444328308
        1.1008341312,        0.0342832208,0.1342693567,0.0661635399,-12.3320617676,-7.8637890816,42.8760490417
        1.1034162045,        0.0342832208,0.1342693567,0.0661635399,-15.4295959473,-7.8637890816,42.8760490417
        1.1059942245,        0.0342832208,0.1342693567,0.0661635399,-7.6170959473,-8.0316352844,41.7163810730
        1.1088202000,        0.0342832208,0.1342693567,0.0661635399,-5.8623352051,-8.0316352844,41.7163810730
        1.1114912033,       -0.0042909980,0.0175701380,0.0334486961,1.9501649141,-6.3226513863,40.9687004089
        1.1144080162,       -0.0042909980,0.0175701380,0.0334486961,2.6215517521,-6.3226513863,40.9687004089
        1.1171309948,       -0.0042909980,0.0175701380,0.0334486961,10.4340515137,-4.9341015816,40.4041252136
        1.1198370457,       -0.0042909980,0.0175701380,0.0334486961,8.4504089355,-4.9341015816,40.4041252136
        1.1225399971,        0.0269590020,-0.1240314245,0.0129408836,8.4504089355,-4.0033154488,41.2280998230
        1.1252410412,        0.0269590020,-0.1240314245,0.0129408836,8.3130798340,-4.0033154488,41.2280998230
        1.1279530525,        0.0269590020,-0.1240314245,0.0129408836,4.4068298340,-3.8812451363,43.1201896667
        1.1306631565,        0.0269590020,-0.0859454870,0.0598158836,3.9795839787,-3.8812451363,43.1201896667
        1.1333661079,        0.0147519708,-0.0859454870,0.0598158836,-3.8329160213,-3.8354687691,44.6308097839
        1.1360750198,        0.0147519708,-0.0859454870,0.0598158836,-2.5664365292,-3.8354687691,44.6308097839
        1.1387910843,        0.0147519708,-0.0859454870,0.0598158836,-6.4726867676,-3.7439160347,46.1261711121
        1.1414921284,       -0.0482363105,0.0024334192,0.0651869774,-7.3424377441,-3.7439160347,46.1261711121
        1.1443011761,       -0.0482363105,0.0024334192,0.0651869774,-11.2486877441,-3.2861523628,47.2705802917
        1.1469922066,       -0.0482363105,0.0024334192,0.0651869774,-8.1664123535,-3.2861523628,47.2705802917
        1.1495652199,       -0.0482363105,0.0024334192,0.0651869774,-8.1664123535,-3.2861523628,48.4607658386
        1.1521379948,       -0.0711855292,0.0546795130,0.0363783836,-5.9538879395,-3.0267529488,48.4607658386
        1.1547081470,       -0.0711855292,0.0546795130,0.0363783836,-5.9538879395,-3.0267529488,49.0863761902
        1.1573970318,       -0.0711855292,0.0546795130,0.0363783836,-2.0628964901,-2.8131299019,49.0863761902
        1.1599740982,       -0.0711855292,0.0546795130,0.0363783836,-2.0628964901,-2.8131299019,52.9926261902
        1.1625430584,       -0.0609316230,-0.0717853308,-0.0578598976,2.3011171818,-1.8976025581,50.1087150574
        1.1651160717,       -0.0609316230,-0.0717853308,-0.0578598976,2.3011171818,-1.8976025581,50.1087150574
        1.1678431034,       -0.0609316230,-0.0717853308,-0.0578598976,3.6133730412,0.2386279106,52.6569328308
        1.1705441475,       -0.0609316230,-0.0717853308,-0.1232895851,3.6133730412,0.2386279106,52.6569328308
        1.1732521057,        0.0860410333,-0.3242267370,-0.1232895851,-2.4748837948,3.5345263481,57.7381095886
        1.1759521961,        0.0860410333,-0.3242267370,-0.1232895851,-2.4748837948,3.5345263481,57.7381095886
        1.1787002087,        0.0860410333,-0.3242267370,-0.1232895851,-15.5974426270,3.9465136528,63.3075675964
        1.1814110279,        0.0860410333,-0.2734454870,-0.0241684914,-15.5974426270,3.9465136528,63.3075675964
        1.1841201782,        0.1407285333,-0.2734454870,-0.0241684914,-31.2224426270,1.3067431450,68.4497756958
        1.1868901253,        0.1407285333,-0.2734454870,-0.0241684914,-31.2224426270,1.3067431450,68.4497756958
        1.1896061897,        0.1407285333,-0.2734454870,-0.0241684914,-45.1384582520,-2.6147656441,71.2879104614
        1.1923141479,        0.0079160333,-0.0781329870,0.0412611961,-45.1384582520,-2.6147656441,71.2879104614
        1.1950302124,        0.0079160333,-0.0781329870,0.0412611961,-53.5918273926,-4.2932324409,72.8748245239
        1.1976871490,        0.0079160333,-0.0781329870,0.0412611961,-53.5918273926,-4.2932324409,72.8748245239
        1.2002601624,        0.0079160333,-0.0781329870,0.0412611961,-54.7514953613,-6.9787793159,74.2175979614
        1.2028381824,        0.0084043145,0.1025310755,0.0412611961,-54.7514953613,-6.9787793159,74.2175979614
        1.2054111958,        0.0084043145,0.1025310755,0.0412611961,-49.9602355957,-13.4027290344,75.2094192505
        1.2082221508,        0.0084043145,0.1025310755,0.0412611961,-49.9602355957,-13.4027290344,75.2094192505
        1.2109341621,        0.0084043145,0.1025310755,0.0393080711,-31.8327941895,-15.4016304016,72.7985305786
        1.2136421204,       -0.0404238105,0.1816326380,0.0393080711,-31.8327941895,-15.4016304016,72.7985305786
        1.2163832188,       -0.0404238105,0.1816326380,0.0393080711,-7.8154602051,-14.0283393860,69.5789260864
        1.2190999985,       -0.0404238105,0.1816326380,0.0393080711,-7.8154602051,-14.0283393860,69.5789260864
        1.2218060493,       -0.1654238105,0.1694256067,-0.0612778664,8.5419616699,-12.2735786438,68.2361526489
        1.2245860100,       -0.1165956855,0.1694256067,-0.0612778664,8.5419616699,-12.2735786438,68.2361526489
        1.2275841236,       -0.1165956855,0.1694256067,-0.0612778664,19.2536315918,-11.0833930969,68.6939163208
        1.2301712036,       -0.1165956855,0.1694256067,-0.0612778664,19.2536315918,-11.0833930969,68.6939163208
        1.2327501774,       -0.0394472480,-0.0717853308,-0.1037583351,24.3805847168,-11.6937446594,70.4944534302
        1.2353281975,       -0.0394472480,-0.0717853308,-0.1037583351,24.3805847168,-11.6937446594,70.4944534302
        1.2379190922,       -0.0394472480,-0.0717853308,-0.1037583351,19.9860534668,-12.2430610657,72.6154251099
        1.2404911518,       -0.0394472480,-0.0717853308,-0.1037583351,19.9860534668,-12.2430610657,72.6154251099
        1.2430682182,        0.0084043145,-0.0473712683,-0.0612778664,10.4798278809,-12.0599555969,74.4769973755
        1.2456431389,        0.0084043145,-0.0473712683,-0.0612778664,10.4798278809,-12.0599555969,74.4769973755
        1.2482690811,        0.0084043145,-0.0473712683,-0.0612778664,-0.1097715944,-10.5188179016,77.0099563599
        1.2508490086,        0.0084043145,-0.0473712683,-0.0612778664,-0.1097715944,-10.5188179016,77.0099563599
        1.2534201145,        0.0752988458,0.0517498255,-0.0378403664,-8.6852111816,-11.2512397766,78.8257522583
        1.2559921741,        0.0752988458,0.0517498255,-0.0378403664,-8.6852111816,-11.2512397766,78.8257522583
        1.2586231232,        0.0752988458,0.0517498255,-0.0378403664,-12.5914611816,-14.2877388000,79.2835159302
        1.2611939907,        0.0752988458,0.0517498255,-0.0378403664,-13.8579406738,-14.2877388000,79.2835159302
        1.2637701035,        0.0977597833,0.1371990442,0.0017104149,-13.8579406738,-14.2877388000,78.3985061646
        1.2663462162,        0.0977597833,0.1371990442,0.0017104149,-16.7571105957,-16.0272407532,78.3985061646
        1.2689771652,        0.0977597833,0.1371990442,0.0017104149,-16.7571105957,-16.0272407532,77.6050491333
        1.2716631889,        0.0977597833,0.1371990442,-0.0178208351,-15.6737365723,-15.3711128235,77.6050491333
        1.2742381096,        0.1211972833,0.1181560755,-0.0178208351,-15.6737365723,-15.3711128235,77.6050491333
        1.2768650055,        0.1211972833,0.1181560755,-0.0178208351,-12.8813781738,-14.8065376282,78.0780715942
        1.2794451714,        0.1211972833,0.1181560755,-0.0178208351,-12.8813781738,-14.8065376282,78.0780715942
        1.2820200920,        0.1211972833,0.1181560755,0.0217299461,-13.1865539551,-15.8441352844,78.6579055786
        1.2845900059,        0.1182675958,0.1220623255,0.0217299461,-13.1865539551,-15.8441352844,78.6579055786
        1.2873020172,        0.1182675958,0.1220623255,0.0217299461,-14.5751037598,-17.3242378235,78.1543655396
        1.2900121212,        0.1182675958,0.1220623255,0.0217299461,-14.5751037598,-17.3242378235,78.1543655396
        1.2927222252,        0.0088925958,0.0810467005,0.0031752586,-13.3544006348,-17.6141548157,77.4982376099
        1.2954261303,        0.0088925958,0.0810467005,0.0031752586,-13.3544006348,-17.6141548157,77.4982376099
        1.2980680466,        0.0088925958,0.0810467005,0.0031752586,-11.3554992676,-18.7890815735,77.6660842896
        1.3006460667,        0.0088925958,0.0810467005,0.0031752586,-11.3554992676,-18.7890815735,77.6660842896
        1.3032240868,       -0.0033144355,0.0551677942,-0.0285630226,-7.4187316895,-18.6822700500,78.0475540161
        1.3057971001,       -0.0033144355,0.0551677942,-0.0285630226,-7.4187316895,-18.6822700500,78.0475540161
        1.3085260391,       -0.0033144355,0.0551677942,-0.0285630226,0.8362733126,-15.7678413391,76.4148635864
        1.3112330437,       -0.0033144355,0.0551677942,-0.0285630226,0.8362733126,-15.7678413391,76.4148635864
        1.3139381409,       -0.0887636542,0.2651287317,0.0603041649,-0.5370177031,-15.3100776672,74.0802688599
        1.3166761398,       -0.0887636542,0.2651287317,0.0603041649,-0.5370177031,-15.3100776672,74.0802688599
        1.3192520142,       -0.0887636542,0.2651287317,0.0603041649,-2.5359189510,-15.1269721985,71.8677444458
        1.3218290806,       -0.0887636542,0.2651287317,0.0603041649,-2.5359189510,-15.1269721985,71.8677444458
        1.3244030476,       -0.0262636542,0.2783123255,-0.0075669289,1.8891297579,-16.4239692688,70.4334182739
        1.3270831108,       -0.0262636542,0.2783123255,-0.0075669289,1.8891297579,-16.4239692688,70.4334182739
        1.3296620846,       -0.0262636542,0.2783123255,-0.0075669289,5.6427917480,-17.1869087219,68.6939163208
        1.3322350979,       -0.0262636542,0.2783123255,0.0544447899,5.6427917480,-17.1869087219,68.6939163208
        1.3349242210,        0.1099668145,0.2670818567,0.0544447899,5.6427917480,-16.6833686829,66.8933792114
        1.3376381397,        0.1099668145,0.2670818567,0.0544447899,7.5653991699,-16.6833686829,66.8933792114
        1.3403050900,        0.1099668145,0.2670818567,0.0544447899,11.4716491699,-15.9967231750,64.5893020630
        1.3431260586,        0.1285215020,0.2031170130,0.0554213524,8.2520446777,-15.9967231750,64.5893020630
        1.3458321095,        0.1285215020,0.2031170130,0.0554213524,6.5430603027,-16.3934516907,62.3004875183
        1.3484501839,        0.1285215020,0.2031170130,0.0554213524,6.5430603027,-16.3934516907,62.3004875183
        1.3510241508,        0.1285215020,0.2031170130,0.0554213524,6.5430603027,-16.4850044250,60.9577140808
        1.3535950184,        0.1299863458,0.1889568567,0.0437026024,3.7507021427,-16.4850044250,60.9577140808
        1.3561670780,        0.1299863458,0.1889568567,0.0437026024,3.7507021427,-16.4850044250,61.1408195496
        1.3589110374,        0.1299863458,0.1889568567,0.0437026024,1.5381776094,-15.8593940735,61.1408195496
        1.3616142273,        0.1299863458,0.1889568567,0.0437026024,1.5381776094,-15.8593940735,61.6138420105
        1.3643221855,        0.1431699395,0.2324138880,0.0480971336,-0.5065001249,-15.2185249329,61.6138420105
        1.3670721054,        0.1431699395,0.2324138880,0.0480971336,-0.5065001249,-15.2185249329,59.9964103699
        1.3697800636,        0.1431699395,0.2324138880,0.0480971336,-0.0487364382,-14.9896430969,59.9964103699
        1.3724901676,        0.1431699395,0.2324138880,0.0378432274,-0.0487364382,-14.9896430969,58.1043205261
        1.3751962185,        0.0738340020,0.2221599817,0.0378432274,-0.0487364382,-14.6081733704,58.1043205261
        1.3778471947,        0.0738340020,0.2221599817,0.0378432274,-0.0487364382,-14.6081733704,57.4939689636
        1.3804190159,        0.0738340020,0.2221599817,0.0378432274,-0.0639952272,-15.0049018860,57.4939689636
        1.3829960823,        0.0738340020,0.1752849817,0.0549330711,-0.0639952272,-15.0049018860,53.5877189636
        1.3855659962,        0.0254941583,0.1752849817,0.0549330711,0.3327332735,-14.4250679016,56.7920646667
        1.3883111477,        0.0254941583,0.1752849817,0.0549330711,0.3327332735,-14.4250679016,56.7920646667
        1.3908841610,        0.0254941583,0.1752849817,0.0549330711,2.0112001896,-11.8921089172,55.0525627136
        1.3934581280,        0.0254941583,0.2436443567,0.0759291649,2.0112001896,-11.8921089172,55.0525627136
        1.3960301876,       -0.0169863105,0.2436443567,0.0759291649,0.7447205782,-10.4120063782,51.8482170105
        1.3988320827,       -0.0169863105,0.2436443567,0.0759291649,0.7447205782,-10.4120063782,51.8482170105
        1.4015641212,       -0.0169863105,0.2436443567,0.0759291649,2.1180117130,-10.6256294250,49.6814689636
        1.4041352272,        0.0762754083,0.3037029505,0.0358901024,2.1180117130,-10.6256294250,49.6814689636
        1.4068610668,        0.0762754083,0.3037029505,0.0358901024,5.1697692871,-11.0223579407,47.6215324402
        1.4095180035,        0.0762754083,0.3037029505,0.0358901024,5.1697692871,-11.0223579407,47.6215324402
        1.4122431278,        0.0762754083,0.3037029505,0.0358901024,8.0079040527,-9.0539741516,45.2259025574
        1.4149191380,        0.1211972833,0.3676677942,0.0505385399,8.0079040527,-9.0539741516,45.2259025574
        1.4179952145,        0.1211972833,0.3676677942,0.0505385399,7.2907409668,-6.4752392769,41.6858634949
        1.4207031727,        0.1211972833,0.3676677942,0.0505385399,7.2907409668,-6.4752392769,41.6858634949
        1.4233980179,        0.1211972833,0.2997967005,0.0388197899,6.7566833496,-6.0632519722,37.5354728699
        1.4260990620,        0.1143613458,0.2997967005,0.0388197899,6.7566833496,-6.0632519722,37.5354728699
        1.4288110733,        0.1143613458,0.2997967005,0.0388197899,9.1980895996,-6.9177441597,35.1703605652
        1.4315140247,        0.1143613458,0.2997967005,0.0388197899,9.1980895996,-6.9177441597,35.1703605652
        1.4342210293,        0.1182675958,0.2758709192,0.0393080711,10.5256042480,-7.6196484566,33.5529289246
        1.4369330406,        0.1182675958,0.2758709192,0.0393080711,10.5256042480,-7.6196484566,33.5529289246
        1.4396471977,        0.1182675958,0.2758709192,0.0393080711,11.1054382324,-7.1618847847,32.2254142761
        1.4423580170,        0.1182675958,0.2758709192,0.0393080711,11.1054382324,-7.1618847847,32.2254142761
        1.4450581074,        0.1426816583,0.3237224817,0.0090346336,11.0901794434,-6.6430859566,29.9365940094
        1.4477150440,        0.1426816583,0.3237224817,0.0090346336,11.0901794434,-6.6430859566,29.9365940094
        1.4502952099,        0.1426816583,0.3237224817,0.0090346336,9.0149841309,-6.7498974800,26.0761203766
        1.4528620243,        0.1426816583,0.3237224817,0.0090346336,9.0149841309,-6.7498974800,26.0761203766
        1.4554359913,        0.1314511895,0.3632732630,0.0212416649,7.5043640137,-6.8872265816,22.3224582672
        1.4580550194,        0.1314511895,0.3632732630,0.0212416649,7.5043640137,-6.8872265816,22.3224582672
        1.4606280327,        0.1314511895,0.3632732630,0.0212416649,7.5653991699,-8.1231880188,18.9350070953
        1.4633190632,        0.1314511895,0.3632732630,0.0422377586,7.5653991699,-8.1231880188,18.9350070953
        1.4658920765,        0.1500058770,0.3774334192,0.0422377586,7.0923767090,-9.6032905579,14.7388401031
        1.4686071873,        0.1500058770,0.3774334192,0.0422377586,7.0923767090,-9.6032905579,14.7388401031
        1.4711902142,        0.1500058770,0.3774334192,0.0422377586,5.7801208496,-11.1291694641,10.0238742828
        1.4737620354,        0.1500058770,0.3774334192,0.0563979149,5.7801208496,-11.1291694641,10.0238742828
        1.4763422012,        0.1768613458,0.4218670130,0.0563979149,5.5054626465,-12.1972846985,4.6222634315
        1.4790701866,        0.1768613458,0.4218670130,0.0563979149,5.5054626465,-12.1972846985,4.6222634315
        1.4816350937,        0.1768613458,0.4218670130,0.0563979149,5.5054626465,-13.3111763000,-0.8709006310
        1.4842040539,        0.3018613458,0.4579998255,0.0646986961,5.3681335449,-13.3111763000,-0.8709006310
        1.4868631363,        0.1910215020,0.4579998255,0.0646986961,5.3681335449,-13.3111763000,-7.4169211388
        1.4894340038,        0.1910215020,0.4579998255,0.0646986961,3.9795839787,-13.0517768860,-7.4169211388
        1.4920032024,        0.1910215020,0.4579998255,0.0646986961,3.9795839787,-13.0517768860,-15.2294216156
        1.4945700169,        0.1968808770,0.4702068567,0.0764174461,3.7964785099,-11.7090034485,-13.8103542328
        1.4971501827,        0.1968808770,0.4702068567,0.0764174461,3.7964785099,-11.7090034485,-13.8103542328
        1.4997160435,        0.1968808770,0.4702068567,0.0764174461,3.7659609318,-11.2359809875,-19.8375759125
        1.5022850037,        0.1968808770,0.4702068567,0.0764174461,3.7659609318,-11.2359809875,-19.8375759125
        1.5050101280,        0.1680722833,0.4858318567,0.0988783836,3.2776796818,-10.1526069641,-27.1617946625
        1.5077781677,        0.1680722833,0.4858318567,0.0988783836,3.2776796818,-10.1526069641,-27.1617946625
        1.5103471279,        0.1680722833,0.4858318567,0.0988783836,5.0782165527,-8.9929389954,-34.9285163879
        1.5131890774,        0.1680722833,0.4858318567,0.0988783836,5.0782165527,-8.9929389954,-34.9285163879
        1.5157761574,        0.1324277520,0.4892498255,0.1169447899,9.4269714355,-8.5504341125,-42.6799812317
        1.5184051991,        0.1324277520,0.4892498255,0.1169447899,9.4269714355,-8.5504341125,-42.6799812317
        1.5209710598,        0.1324277520,0.4892498255,0.1169447899,14.0809020996,-7.1466259956,-50.1873054504
        1.5235371590,        0.1324277520,0.4892498255,0.1169447899,14.0809020996,-7.1466259956,-50.1873054504
        1.5262172222,        0.0650449395,0.4897381067,0.1408705711,18.6737976074,-5.6054883003,-57.8472175598
        1.5288081169,        0.0650449395,0.4897381067,0.1408705711,18.6737976074,-5.6054883003,-57.8472175598
        1.5313839912,        0.0650449395,0.4897381067,0.1408705711,22.2596130371,-3.4997754097,-65.4613571167
        1.5339570045,        0.0650449395,0.4897381067,0.1335463524,22.2596130371,-3.4997754097,-65.4613571167
        1.5365300179,       -0.0130800605,0.4877849817,0.1335463524,26.1506042480,-1.4245800972,-73.5942916870
        1.5391020775,       -0.0130800605,0.4877849817,0.1335463524,26.1506042480,-1.4245800972,-73.5942916870
        1.5416700840,       -0.0130800605,0.4877849817,0.1335463524,33.9631042480,1.3525195122,-80.6133346558
        1.5442430973,       -0.0130800605,0.4877849817,0.1467299461,31.4148864746,1.3525195122,-80.6133346558
        1.5468971729,       -0.0560488105,0.4238201380,0.1467299461,31.4148864746,5.2587695122,-87.5255661011
        1.5494630337,       -0.0560488105,0.4238201380,0.1467299461,36.2824401855,2.9699511528,-87.5255661011
        1.5520319939,       -0.0560488105,0.4238201380,0.1467299461,36.2824401855,2.9699511528,-95.5211715698
        1.5546000004,       -0.0560488105,0.4848552942,0.1501479149,37.8846130371,4.5568652153,-95.5211715698
        1.5572230816,       -0.0863222480,0.4848552942,0.1501479149,37.8846130371,4.5568652153,-103.3336715698
        1.5597951412,       -0.0863222480,0.4848552942,0.1501479149,37.2590026855,6.2048144341,-103.2421188354
        1.5623631477,       -0.0863222480,0.4848552942,0.1501479149,37.2590026855,6.2048144341,-103.2421188354
        1.5649352074,       -0.0863222480,0.4687420130,0.1105971336,38.1592712402,7.6696581841,-110.5663375854
        1.5675911903,       -0.1756777167,0.4687420130,0.1105971336,38.1592712402,7.6696581841,-110.5663375854
        1.5701620579,       -0.1756777167,0.4687420130,0.1105971336,38.4034118652,9.4244194031,-118.3483200073
        1.5727310181,       -0.1756777167,0.4687420130,0.1105971336,38.4034118652,9.4244194031,-118.3483200073
        1.5753030777,       -0.2264589667,0.4218670130,0.0676283836,37.5336608887,11.6064262390,-125.6725387573
        1.5779771805,       -0.2264589667,0.4218670130,0.0676283836,37.5336608887,11.6064262390,-125.6725387573
        1.5805511475,       -0.2264589667,0.4218670130,0.0676283836,34.2835388184,15.1617240906,-132.0964813232
        1.5831220150,       -0.2264589667,0.4218670130,0.0676283836,34.2835388184,15.1617240906,-132.0964813232
        1.5856981277,       -0.3739199042,0.4975506067,0.0012221336,31.6132507324,17.9235649109,-139.1307830811
        1.5884041786,       -0.3739199042,0.4975506067,0.0012221336,31.6132507324,17.9235649109,-139.1307830811
        1.5909810066,       -0.3739199042,0.4975506067,0.0012221336,32.6355895996,19.8766899109,-145.4631805420
        1.5935602188,       -0.3739199042,0.4975506067,0.0012221336,32.6355895996,19.8766899109,-145.4631805420
        1.5961391926,       -0.7474550605,0.5849529505,-0.0974106789,27.6001892090,22.5469779968,-150.6206512451
        1.5988922119,       -0.7474550605,0.5849529505,-0.0974106789,27.6001892090,22.5469779968,-150.6206512451
        1.6015980244,       -0.7474550605,0.5849529505,-0.0974106789,31.5064392090,25.3851127625,-155.6865692139
        1.6043021679,       -0.7474550605,0.5849529505,-0.0974106789,31.9184265137,25.3851127625,-155.6865692139
        1.6072452068,       -1.0316348076,0.2172771692,-0.0754380226,37.5489196777,29.1845512390,-162.1257781982
        1.6099121571,       -1.0316348076,0.2172771692,-0.0754380226,37.5489196777,29.1845512390,-162.1257781982
        1.6127440929,       -1.0316348076,0.2172771692,-0.0754380226,37.6709899902,31.5191459656,-168.7633514404
        1.6153271198,       -1.0316348076,0.1494060755,-0.0808091164,37.6709899902,31.5191459656,-168.7633514404
        1.6180322170,       -0.9608339667,0.1494060755,-0.0808091164,32.3304138184,29.7186088562,-173.8903045654
        1.6206021309,       -0.9608339667,0.1494060755,-0.0808091164,32.3304138184,29.7186088562,-173.8903045654
        1.6231741905,       -0.9608339667,0.1494060755,-0.0808091164,32.3304138184,26.1327934265,-177.8728485107
        1.6257410049,       -0.9535097480,0.0976482630,0.0222182274,29.4770202637,26.1327934265,-177.8728485107
        1.6283161640,       -0.9535097480,0.0976482630,0.0222182274,29.4770202637,26.1327934265,-181.9622039795
        1.6308851242,       -0.9535097480,0.0976482630,0.0222182274,30.6061706543,23.2793998718,-181.9622039795
        1.6334621906,       -0.9535097480,0.0976482630,0.0222182274,30.6061706543,23.2793998718,-185.8684539795
        1.6360361576,       -0.8748964667,-0.1196368933,0.0842299461,37.1216735840,18.5796928406,-187.6995086670
        1.6386201382,       -0.8748964667,-0.1196368933,0.0842299461,37.1216735840,18.5796928406,-187.6995086670
        1.6411931515,       -0.8748964667,-0.1196368933,0.0842299461,44.3238220215,13.3459281921,-198.7163543701
        1.6437702179,       -0.8748964667,-0.1196368933,0.0842299461,44.3238220215,13.3459281921,-198.7163543701
        1.6463441849,       -0.6312441230,-0.3051837683,0.1818861961,52.3804626465,8.2494926453,-211.6558074951
        1.6489770412,       -0.6312441230,-0.3051837683,0.1818861961,52.3804626465,8.2494926453,-211.6558074951
        1.6516551971,       -0.6312441230,-0.3051837683,0.1818861961,60.4065856934,3.9922900200,-221.1009979248
        1.6542241573,       -0.6312441230,-0.3051837683,0.1818861961,60.4065856934,3.9922900200,-221.1009979248
        1.6568300724,       -0.2386659980,-0.3637775183,0.1965346336,60.3302917480,3.1988329887,-226.4873504639
        1.6593990326,       -0.2386659980,-0.3637775183,0.1965346336,60.3302917480,3.1988329887,-226.4873504639
        1.6619691849,       -0.2386659980,-0.3637775183,0.1965346336,53.1434020996,4.7857470512,-230.6835174561
        1.6645410061,       -0.2386659980,-0.3637775183,0.1965346336,53.1434020996,4.7857470512,-230.6835174561
        1.6672260761,        0.1192441583,-0.1342853308,0.0856947899,41.9892272949,9.9127006531,-226.6704559326
        1.6698009968,        0.1192441583,-0.1342853308,0.0856947899,41.9892272949,9.9127006531,-226.6704559326
        1.6723680496,        0.1192441583,-0.1342853308,0.0856947899,34.1767272949,17.2216606140,-207.0476531982
        1.6749410629,        0.1192441583,-0.1342853308,0.0856947899,32.6050720215,17.2216606140,-207.0476531982
        1.6775240898,        0.2779355645,0.1611248255,0.0134291649,32.6050720215,25.0341606140,-183.1371307373
        1.6800951958,        0.2779355645,0.1611248255,0.0134291649,30.1941833496,24.8968315125,-183.1371307373
        1.6826682091,        0.2779355645,0.1611248255,0.0134291649,30.1941833496,24.8968315125,-164.0941619873
        1.6852400303,        0.2779355645,0.1611248255,-0.1115708351,23.3124694824,29.5812797546,-164.0941619873
        1.6879441738,        0.2335019708,0.2626873255,-0.0515122414,23.3124694824,29.5812797546,-145.7683563232
        1.6906530857,        0.2335019708,0.2626873255,-0.0515122414,9.9762878418,31.3512992859,-145.7683563232
        1.6933581829,        0.2335019708,0.2626873255,-0.0515122414,9.9762878418,31.3512992859,-122.7733688354
        1.6960661411,       -0.1414980292,0.4970623255,-0.0231919289,-3.7413632870,35.2270317078,-122.7733688354
        1.6987872124,       -0.0726503730,0.4970623255,-0.0231919289,-3.7413632870,35.2270317078,-96.7266159058
        1.7014861107,       -0.0726503730,0.4970623255,-0.0231919289,-12.9424133301,41.4831352234,-96.7266159058
        1.7041912079,       -0.0726503730,0.4970623255,-0.0231919289,-12.9424133301,41.4831352234,-73.3501510620
        1.7069091797,        0.0508847833,0.5742107630,-0.0061020851,-14.0257873535,41.6967582703,-73.3501510620
        1.7096171379,        0.0508847833,0.5742107630,-0.0061020851,-14.0257873535,41.6967582703,-53.8188972473
        1.7123281956,        0.0508847833,0.5742107630,-0.0061020851,-10.2110900879,35.6237602234,-52.4456062317
        1.7151410580,        0.0508847833,0.5742107630,-0.0061020851,-10.2110900879,35.6237602234,-32.8685798645
        1.7178971767,        0.4166074395,0.6459881067,0.2419447899,-12.6067199707,23.9507865906,-32.8685798645
        1.7206060886,        0.4166074395,0.6459881067,0.2419447899,-12.6067199707,23.9507865906,-17.5945339203
        1.7234640121,        0.4166074395,0.6459881067,0.2419447899,-23.2268371582,14.2156791687,-17.5945339203
        1.7266240120,        0.4898496270,0.1743084192,-0.0539536476,-23.2268371582,8.9513969421,-7.6610617638
        1.7291960716,        0.4898496270,0.1743084192,-0.0539536476,-30.1390686035,8.9513969421,-7.6610617638
        1.7317631245,        0.4898496270,0.1743084192,-0.0539536476,-30.1390686035,8.9513969421,1.3568825722
        1.7343311310,        0.4898496270,0.1743084192,-0.0539536476,-35.4033508301,4.3890185356,1.3568825722
        1.7369291782,        0.4415097833,0.0009685755,-0.1496567726,-35.4033508301,4.3890185356,11.8396701813
        1.7396390438,        0.4415097833,0.0009685755,-0.1496567726,-43.6278381348,0.3606982231,11.8396701813
        1.7423441410,        0.4415097833,0.0009685755,-0.1496567726,-43.6278381348,0.3606982231,20.0031223297
        1.7450430393,        0.4415097833,0.0009685755,-0.1496567726,-51.9286193848,-2.0349316597,20.0031223297
        1.7477650642,        0.3819394708,-0.1552814245,-0.1467270851,-51.9286193848,-2.0349316597,25.3742160797
        1.7504761219,        0.3819394708,-0.1552814245,-0.1467270851,-57.9253234863,-3.1030468941,25.3742160797
        1.7531812191,        0.3819394708,-0.1552814245,-0.1467270851,-57.9253234863,-3.1030468941,27.6782932281
        1.7558870316,        0.3819394708,-0.1552814245,-0.1096177101,-64.1966857910,-3.5608105659,27.6782932281
        1.7584960461,        0.4727597833,-0.2255939245,-0.1096177101,-64.1966857910,-3.5608105659,27.6782932281
        1.7610762119,        0.4727597833,-0.2255939245,-0.1096177101,-68.9574279785,-4.6594433784,28.5480442047
        1.7636511326,        0.4727597833,-0.2255939245,-0.1096177101,-68.9574279785,-4.6594433784,28.5480442047
        1.7662220001,        0.4727597833,-0.2255939245,-0.0920395851,-70.7884826660,-5.6665234566,28.6395969391
        1.7688140869,        0.5840879083,-0.2358478308,-0.0920395851,-70.7884826660,-5.6665234566,28.6395969391
        1.7713861465,        0.5840879083,-0.2358478308,-0.0920395851,-69.1557922363,-5.5749707222,28.5175266266
        1.7739551067,        0.5840879083,-0.2358478308,-0.0920395851,-69.1557922363,-5.5749707222,28.5175266266
        1.7765960693,        0.5840879083,-0.2470782995,-0.0695786476,-64.2577209473,-4.7967724800,28.5785617828
        1.7791900635,        0.6602597833,-0.2470782995,-0.0695786476,-64.2577209473,-4.7967724800,28.5785617828
        1.7818682194,        0.6602597833,-0.2470782995,-0.0695786476,-56.7961730957,-3.6676220894,28.2886447906
        1.7844471931,        0.6602597833,-0.2470782995,-0.0695786476,-56.7961730957,-3.6676220894,28.2886447906
        1.7872180939,        0.6890683770,-0.3061603308,-0.0632309914,-48.3580627441,-2.2485547066,26.2897434235
        1.7899291515,        0.6890683770,-0.3061603308,-0.0632309914,-48.3580627441,-2.2485547066,26.2897434235
        1.7926301956,        0.6890683770,-0.3061603308,-0.0632309914,-39.0044250488,-1.6534619331,22.9785861969
        1.7953372002,        0.6890683770,-0.3061603308,-0.0632309914,-39.0044250488,-1.6534619331,22.9785861969
        1.7980880737,        0.6739316583,-0.3877032995,-0.1359848976,-30.6883850098,-1.3177685738,18.0194797516
        1.8007941246,        0.6739316583,-0.3877032995,-0.1359848976,-30.6883850098,-1.3177685738,18.0194797516
        1.8034930229,        0.6739316583,-0.3877032995,-0.1359848976,-25.3630676270,-0.1428418159,11.8091526031
        1.8062040806,        0.6739316583,-0.3877032995,-0.2609848976,-25.3630676270,-0.1428418159,11.8091526031
        1.8089241982,        0.6324277520,-0.4736407995,-0.2023911476,-22.4181213379,1.8255419731,5.3546853065
        1.8116312027,        0.6324277520,-0.4736407995,-0.2023911476,-22.4181213379,1.8255419731,5.3546853065
        1.8143341541,        0.6324277520,-0.4736407995,-0.2023911476,-21.2737121582,3.5955615044,-1.2981467247
        1.8170530796,        0.6324277520,-0.5034259558,-0.2097153664,-21.2737121582,3.5955615044,-1.2981467247
        1.8196210861,        0.6758847833,-0.5034259558,-0.2097153664,-21.1363830566,5.1366991997,-7.4932150841
        1.8221910000,        0.6758847833,-0.5034259558,-0.2097153664,-21.1363830566,5.1366991997,-7.4932150841
        1.8247590065,        0.6758847833,-0.5034259558,-0.2097153664,-17.2301330566,6.6625781059,-13.9782009125
        1.8274350166,        0.8008847833,-0.4350665808,-0.1760239601,-18.8170471191,6.6625781059,-13.9782009125
        1.8300061226,        0.7212949395,-0.4350665808,-0.1760239601,-18.8170471191,7.8985400200,-20.8446559906
        1.8325810432,        0.7212949395,-0.4350665808,-0.1760239601,-13.4917297363,7.8985400200,-20.8446559906
        1.8351511955,        0.7212949395,-0.4350665808,-0.1760239601,-13.4917297363,7.8985400200,-27.2533473969
        1.8378782272,        0.7461972833,-0.3261798620,-0.1428208351,-6.5947570801,8.2647514343,-27.2533473969
        1.8405430317,        0.7461972833,-0.3261798620,-0.1428208351,-6.5947570801,8.2647514343,-32.5786628723
        1.8433611393,        0.7461972833,-0.3261798620,-0.1428208351,2.2400820255,8.8598442078,-32.5786628723
        1.8466031551,        0.7461972833,-0.3261798620,-0.1428208351,13.2721862793,8.6614799500,-37.3088874817
        1.8493170738,        0.7188535333,-0.2133868933,-0.0959458351,13.2721862793,8.6614799500,-37.3088874817
        1.8520262241,        0.7188535333,-0.2133868933,-0.0959458351,25.0824890137,7.6543993950,-41.8560066223
        1.8547282219,        0.7188535333,-0.2133868933,-0.0959458351,25.0824890137,7.6543993950,-41.8560066223
        1.8574800491,        0.7188535333,-0.1142657995,-0.0915513039,36.5723571777,7.3339648247,-46.3878669739
        1.8601810932,        0.6734433770,-0.1142657995,-0.0915513039,36.5723571777,7.3339648247,-46.3878669739
        1.8628890514,        0.6734433770,-0.1142657995,-0.0915513039,46.9788513184,6.4184374809,-50.7366218567
        1.8655891418,        0.6734433770,-0.1142657995,-0.0915513039,46.9788513184,6.4184374809,-50.7366218567
        1.8682200909,        0.6446347833,-0.0644611120,-0.0671372414,54.7913513184,4.9535937309,-54.0782966614
        1.8707950115,        0.6446347833,-0.0644611120,-0.0671372414,57.7210388184,4.9535937309,-54.0782966614
        1.8733630180,        0.6446347833,-0.0644611120,-0.0671372414,57.7210388184,4.9535937309,-56.4586677551
        1.8759341240,        0.6446347833,-0.0644611120,-0.0671372414,68.4784851074,3.5345263481,-56.4586677551
        1.8785130978,        0.6294980645,-0.0669025183,-0.0422348976,68.4784851074,3.5345263481,-58.1981697083
        1.8810842037,        0.6294980645,-0.0669025183,-0.0422348976,76.9318542480,3.4887499809,-58.1981697083
        1.8836522102,        0.6294980645,-0.0669025183,-0.0422348976,76.9318542480,3.4887499809,-58.1981697083
        1.8862221241,        0.6294980645,-0.0669025183,-0.0422348976,81.5857849121,3.7939257622,-58.6864509583
        1.8888430595,        0.6270566583,-0.0556720495,-0.0363755226,81.5857849121,3.7939257622,-58.6864509583
        1.8914101124,        0.6270566583,-0.0556720495,-0.0363755226,85.6141052246,3.0004687309,-57.3589363098
        1.8939800262,        0.6270566583,-0.0556720495,-0.0363755226,85.6141052246,3.0004687309,-57.3589363098
        1.8967311382,        0.6270566583,-0.0556720495,-0.0363755226,90.4969177246,1.7034716606,-54.0325202942
        1.8993101120,        0.5977597833,-0.0180743933,-0.0969223976,90.4969177246,1.7034716606,-54.0325202942
        1.9018812180,        0.5977597833,-0.0180743933,-0.0969223976,96.6919860840,1.3525195122,-48.2036628723
        1.9044470787,        0.5977597833,-0.0180743933,-0.0969223976,96.6919860840,1.3525195122,-48.2036628723
        1.9071841240,        0.5977597833,-0.0180743933,-0.2219223976,103.1006774902,2.8173632622,-41.0320320129
        1.9098670483,        0.5298886895,-0.0239337683,-0.2209458351,103.1006774902,2.8173632622,-41.0320320129
        1.9124391079,        0.5298886895,-0.0239337683,-0.2209458351,105.5115661621,6.0980029106,-33.6925544739
        1.9150080681,        0.5298886895,-0.0239337683,-0.2209458351,105.5115661621,6.0980029106,-33.6925544739
        1.9176239967,        0.5298886895,-0.0239337683,-0.2966294289,101.2085876465,8.9513969421,-26.9786891937
        1.9201970100,        0.5328183770,-0.0546954870,-0.2966294289,101.2085876465,8.9513969421,-26.9786891937
        1.9227700233,        0.5328183770,-0.0546954870,-0.2966294289,93.3960876465,10.1568412781,-20.8599147797
        1.9253420830,        0.5328183770,-0.0546954870,-0.2966294289,91.1683044434,10.1568412781,-20.8599147797
        1.9279241562,        0.5328183770,-0.0546954870,-0.2277817726,91.1683044434,6.2505908012,-13.6730251312
        1.9304981232,        0.5904355645,-0.0654376745,-0.2277817726,81.7383728027,9.1955375671,-13.6730251312
        1.9330720901,        0.5904355645,-0.0654376745,-0.2277817726,81.7383728027,9.1955375671,-6.4098410606
        1.9356441498,        0.5904355645,-0.0654376745,-0.2277817726,72.4762878418,9.7906303406,-6.4098410606
        1.9383401871,        0.5904355645,0.0449138880,-0.2629380226,72.4762878418,9.7906303406,0.9754128456
        1.9410440922,        0.5821347833,0.0449138880,-0.2629380226,63.1073913574,11.4233207703,0.9754128456
        1.9437460899,        0.5821347833,0.0449138880,-0.2629380226,63.1073913574,11.4233207703,11.6718235016
        1.9464662075,        0.5821347833,0.0449138880,-0.2629380226,64.0076599121,23.7524223328,11.6718235016
        1.9491841793,        0.3150449395,1.6606365442,-0.4147934914,64.0076599121,23.7524223328,45.3327140808
        1.9518990517,        0.3150449395,1.6606365442,-0.4147934914,51.1750183105,33.0297660828,45.3327140808
        1.9546070099,        0.3150449395,1.6606365442,-0.4147934914,51.1750183105,33.0297660828,93.9166946411
        1.9573211670,        0.3150449395,1.6606365442,-0.4147934914,0.5463563204,12.7660942078,93.9166946411
        1.9600272179,        0.1670957208,2.5815348625,0.3327651024,0.5463563204,12.7660942078,134.5050811768
        1.9627780914,        0.1670957208,2.5815348625,0.3327651024,-19.0917053223,10.0958061218,134.5050811768
        1.9654991627,        0.1670957208,2.5815348625,0.3327651024,-19.0917053223,6.1895556450,183.8214874268
        1.9685201645,        0.1670957208,2.3745036125,0.5290541649,-25.7597961426,6.6473193169,183.8214874268
        1.9712250233,       -0.6781191230,2.3745036125,0.5290541649,-25.7597961426,-5.0714306831,228.2550811768
        1.9740350246,       -0.6781191230,2.3745036125,0.5290541649,-57.9405822754,-3.9270215034,228.2550811768
        1.9767401218,       -0.6781191230,2.3745036125,0.5290541649,-57.9405822754,-3.9270215034,209.1663360596
        1.9793140888,       -1.3543887138,-2.1709065437,-0.1467270851,-67.2179260254,-2.8894238472,209.1663360596
        1.9818861485,       -1.3543887138,-2.1709065437,-0.1467270851,-67.2179260254,-2.8894238472,151.1219024658
        1.9844591618,       -1.3543887138,-2.1709065437,-0.1467270851,-19.8393859863,-22.8631782532,151.1219024658
        1.9871251583,       -1.3543887138,-2.1709065437,-0.1467270851,-19.8393859863,-22.8631782532,104.2468948364
        1.9898321629,       -1.3182559013,-2.6494221687,0.1521010399,0.9430848360,-24.1754341125,101.9123001099
        1.9925341606,       -1.3182559013,-2.6494221687,0.1521010399,0.9430848360,-24.1754341125,86.2873001099
        1.9952402115,       -1.3182559013,-2.6494221687,0.1521010399,20.7032165527,-13.9673042297,84.8071975708
        1.9978871346,       -1.3182559013,-2.6494221687,0.1521010399,20.7032165527,-13.9673042297,84.8071975708
        2.0004642010,       -0.6659120917,-0.5297931433,0.9025893211,38.8001403809,-16.5765571594,90.6207962036
        2.0030372143,       -0.6659120917,-0.5297931433,0.9025893211,38.8001403809,-16.5765571594,90.6207962036
        2.0056090355,       -0.6659120917,-0.5297931433,0.9025893211,18.2618103027,-21.2915229797,99.2572708130
        2.0082311630,       -0.6659120917,-0.5297931433,0.4025893211,18.2618103027,-21.2915229797,99.2572708130
        2.0108010769,       -0.9500917792,-0.1435626745,0.3361830711,-35.4033508301,-25.7318305969,94.6491165161
        2.0133771896,       -0.9500917792,-0.1435626745,0.3361830711,-35.4033508301,-25.7318305969,94.6491165161
        2.0159540176,       -0.9500917792,-0.1435626745,0.3361830711,-68.4538879395,-24.6026802063,81.7401809692
        2.0187032223,       -0.9500917792,-0.5185626745,0.0319838524,-68.4538879395,-24.6026802063,81.7401809692
        2.0212831497,       -0.7562441230,-0.4863361120,0.0319838524,-77.1666564941,-11.9378852844,72.1424026489
        2.0238571167,       -0.7562441230,-0.4863361120,0.0319838524,-77.1666564941,-11.9378852844,72.1424026489
        2.0265090466,       -0.7562441230,-0.4863361120,0.0319838524,-86.5508117676,-0.0360302925,65.1843948364
        2.0290830135,       -0.7562441230,0.4257732630,0.2238783836,-86.5508117676,-0.0360302925,65.1843948364
        2.0316481590,        0.0635800958,0.4257732630,0.2238783836,-90.4570617676,4.9383349419,54.3811759949
        2.0342211723,        0.0635800958,0.4257732630,0.2238783836,-93.3104553223,4.9383349419,54.3811759949
        2.0369310379,        0.0635800958,0.4257732630,0.2238783836,-97.2167053223,2.8783984184,42.0062980652
        2.0396060944,        0.1622129083,0.4462810755,0.2712416649,-94.7142639160,2.8783984184,42.0062980652
        2.0422739983,        0.1622129083,0.4462810755,0.2712416649,-94.7142639160,-15.1422309875,35.0330314636
        2.0449512005,        0.1622129083,0.4462810755,0.2712416649,-92.6848449707,-15.1422309875,35.0330314636
        2.0476930141,        0.1622129083,0.4462810755,0.2712416649,-92.6848449707,-29.3329048157,31.2183322906
        2.0503990650,       -0.6893495917,-0.1826251745,0.3366713524,-78.6925354004,-29.3329048157,31.2183322906
        2.0531051159,       -0.6893495917,-0.1826251745,0.3366713524,-78.6925354004,-29.8059272766,28.6090793610
        2.0558140278,       -0.6893495917,-0.1826251745,0.3366713524,-56.2315979004,-29.8059272766,28.6090793610
        2.0585310459,       -0.6893495917,-0.1826251745,-0.2883286476,-56.2315979004,-22.5427436829,29.6619358063
        2.0612430573,       -2.7508730888,-0.3286212683,-0.1755356789,-55.7280578613,-22.5427436829,29.6619358063
        2.0639472008,       -2.7508730888,-0.3286212683,-0.1755356789,-55.7280578613,-2.1264843941,21.6358127594
        2.0666620731,       -2.7508730888,-0.3286212683,-0.1755356789,-55.6212463379,-2.1264843941,21.6358127594
        2.0692481995,       -2.7508730888,0.0463787317,-0.6916489601,-55.6212463379,-2.1264843941,17.3938694000
        2.0718200207,       -1.9339785576,0.0405193567,-0.6916489601,-51.7607727051,14.6734428406,17.3938694000
        2.0743911266,       -1.9339785576,0.0405193567,-0.6916489601,-51.7607727051,14.6734428406,13.4876194000
        2.0771160126,       -1.9339785576,0.0405193567,-0.6916489601,-68.1029357910,17.1758842468,13.0145969391
        2.0796961784,       -0.1839784980,0.5361248255,-0.5075669289,-68.1029357910,17.1758842468,1.2958474159
        2.0823531151,       -0.1073183417,0.5361248255,-0.5075669289,-88.3055725098,16.0925102234,0.5023903847
        2.0850720406,       -0.1073183417,0.5361248255,-0.5075669289,-88.3055725098,16.0925102234,-13.4594020844
        2.0879681110,       -0.1073183417,0.5361248255,-0.5075669289,-90.4875793457,11.3622856140,-13.4594020844
        2.0906710625,        0.4693418145,0.7412029505,-0.2927231789,-90.4875793457,11.3622856140,-27.1923122406
        2.0933790207,        0.4693418145,0.7412029505,-0.2927231789,-82.2478332520,5.6860156059,-27.1923122406
        2.0960872173,        0.4693418145,0.7412029505,-0.2927231789,-82.2478332520,5.6860156059,-37.3241462708
        2.0988001823,        0.4693418145,0.7412029505,-0.2927231789,-58.4288635254,1.9933886528,-37.3241462708
        2.1016101837,        0.4434629083,0.7431560755,-0.0197739601,-58.4288635254,1.9933886528,-44.8467292786
        2.1043131351,        0.4434629083,0.7431560755,-0.0197739601,-20.4955139160,-0.2801709175,-44.8467292786
        2.1070241928,        0.4434629083,0.7431560755,-0.0197739601,-20.4955139160,-0.2801709175,-54.2614021301
        2.1097249985,        0.4434629083,0.5546795130,0.2053236961,20.9931335449,-2.9199414253,-54.2614021301
        2.1124281883,        0.2281308770,0.5546795130,0.2053236961,20.9931335449,-2.9199414253,-61.9976081848
        2.1151320934,        0.2281308770,0.5546795130,0.2053236961,60.6354675293,-7.1008496284,-61.9976081848
        2.1178181171,        0.2281308770,0.5546795130,0.2053236961,60.6354675293,-7.1008496284,-65.9038619995
        2.1203970909,       -0.0565370917,0.2700115442,0.2697768211,86.3770446777,-9.2981147766,-66.8804244995
        2.1229751110,       -0.0565370917,0.2700115442,0.2697768211,86.3770446777,-9.2981147766,-66.8804244995
        2.1255512238,       -0.0565370917,0.2700115442,0.2697768211,95.8222351074,-10.2289009094,-69.4896774292
        2.1281340122,       -0.0565370917,0.2700115442,0.2697768211,95.8222351074,-10.2289009094,-69.4896774292
        2.1307101250,       -0.1317324042,-0.0307697058,0.2067885399,96.7072448730,-10.4577827454,-70.2220993042
        2.1332859993,       -0.1317324042,-0.0307697058,0.2067885399,96.7072448730,-10.4577827454,-70.2220993042
        2.1358621120,       -0.1317324042,-0.0307697058,0.2067885399,92.5873718262,-8.4588813782,-69.9932174683
        2.1385781765,       -0.1317324042,-0.0307697058,0.2067885399,92.5873718262,-8.4588813782,-69.9932174683
        2.1411511898,       -0.0086855292,-0.1757892370,0.1604018211,85.7514343262,-5.2697949409,-68.6351852417
        2.1437270641,       -0.0086855292,-0.1757892370,0.1604018211,85.7514343262,-5.2697949409,-68.6351852417
        2.1462972164,       -0.0086855292,-0.1757892370,0.1604018211,77.5116882324,-2.5842480659,-66.3005905151
        2.1490631104,       -0.0086855292,-0.1757892370,0.1604018211,77.5116882324,-2.5842480659,-66.3005905151
        2.1517701149,        0.1041074395,-0.2431720495,0.0959486961,69.4245300293,-0.1733593941,-62.4858894348
        2.1544680595,        0.1041074395,-0.2431720495,0.0959486961,69.4245300293,-0.1733593941,-62.4858894348
        2.1571841240,        0.1041074395,-0.2431720495,0.0959486961,59.4452819824,0.9557909966,-57.7404060364
        2.1598901749,        0.1041074395,-0.2431720495,0.0891127586,59.4452819824,0.9557909966,-57.7404060364
        2.1626000404,        0.1670957208,-0.2563556433,0.0891127586,48.1537780762,0.0555224419,-54.4139900208
        2.1654071808,        0.1670957208,-0.2563556433,0.0891127586,48.1537780762,0.0555224419,-54.4139900208
        2.1681241989,        0.1670957208,-0.2563556433,0.0891127586,37.0758972168,-1.3940625191,-50.5382575989
        2.1708271503,        0.1617246270,-0.1660236120,-0.0129380226,37.0758972168,-1.3940625191,-50.5382575989
        2.1735260487,        0.1617246270,-0.1660236120,-0.0129380226,29.5075378418,-1.3482861519,-45.6707038879
        2.1762320995,        0.1617246270,-0.1660236120,-0.0129380226,29.5075378418,-1.3482861519,-45.6707038879
        2.1788229942,        0.1617246270,-0.1660236120,-0.0129380226,27.2797546387,-0.9057812691,-41.7491950989
        2.1813931465,        0.1661191583,-0.0581134558,-0.0554184914,27.2797546387,-0.9057812691,-41.7491950989
        2.1839640141,        0.1661191583,-0.0581134558,-0.0554184914,27.2797546387,-2.0654492378,-38.2701911926
        2.1865460873,        0.1661191583,-0.0581134558,-0.0554184914,27.3560485840,-2.0654492378,-38.2701911926
        2.1892471313,        0.1661191583,-0.0581134558,-0.0554184914,27.3560485840,-3.1945996284,-35.0811042786
        2.1919531822,        0.1734433770,-0.1005939245,-0.0808091164,29.5533142090,-3.1945996284,-35.0811042786
        2.1946589947,        0.1734433770,-0.1005939245,-0.0808091164,29.5533142090,-3.9575390816,-31.5410671234
        2.1973800659,        0.1734433770,-0.1005939245,-0.0808091164,30.9113464355,-3.9575390816,-31.5410671234
        2.2000870705,        0.1734433770,-0.1005939245,-0.1188950539,30.9113464355,-3.1335644722,-27.4517116547
        2.2028641701,        0.1436582208,-0.1425861120,-0.1188950539,27.2950134277,-3.1335644722,-27.4517116547
        2.2055881023,        0.1436582208,-0.1425861120,-0.1188950539,19.4825134277,-3.0572705269,-23.1182155609
        2.2086272240,        0.1436582208,-0.1425861120,-0.1188950539,20.6726989746,-3.0572705269,-23.1182155609
        2.2113330364,        0.1197324395,-0.1743243933,-0.0935044289,12.6465759277,-3.2556347847,-19.1051540375
        2.2140350342,        0.1197324395,-0.1743243933,-0.0935044289,12.6465759277,-3.2556347847,-19.1051540375
        2.2167510986,        0.1197324395,-0.1743243933,-0.0935044289,2.9114687443,-3.6065869331,-15.1073513031
        2.2194540501,        0.1197324395,-0.1743243933,-0.0935044289,2.9114687443,-3.6065869331,-15.1073513031
        2.2221560478,        0.0801816583,-0.1767657995,-0.0783677101,-7.0067443848,-3.4387402534,-10.8501491547
        2.2248539925,        0.0801816583,-0.1767657995,-0.0783677101,-7.0067443848,-3.4387402534,-10.8501491547
        2.2275671959,        0.0801816583,-0.1767657995,-0.0783677101,-14.3462219238,-2.8894238472,-7.4932150841
        2.2303721905,        0.0801816583,-0.1767657995,-0.0207505226,-14.3462219238,-2.8894238472,-7.4932150841
        2.2330760956,        0.0533261895,-0.1738361120,-0.0207505226,-19.0001525879,-1.8976025581,-4.4719748497
        2.2357811928,        0.0533261895,-0.1738361120,-0.0207505226,-19.0001525879,-1.8976025581,-4.4719748497
        2.2383940220,        0.0533261895,-0.1738361120,-0.0207505226,-22.9064025879,-1.0736279488,-1.9847922325
        2.2409651279,        0.0533261895,-0.1035236120,-0.0212388039,-20.9075012207,-1.0736279488,-1.9847922325
        2.2435321808,       -0.0047792792,-0.1035236120,-0.0212388039,-20.9075012207,-1.0736279488,0.2735085487
        2.2461040020,       -0.0047792792,-0.1035236120,-0.0212388039,-22.5554504395,-0.7074170113,0.2735085487
        2.2486791611,       -0.0047792792,-0.1035236120,-0.0212388039,-22.5554504395,-0.7074170113,2.6081032753
        2.2512481213,       -0.0047792792,-0.0537189245,0.0036635399,-24.2644348145,-1.0583691597,2.6081032753
        2.2538170815,       -0.0462831855,-0.0537189245,0.0036635399,-24.2644348145,-1.0583691597,2.6081032753
        2.2565212250,       -0.0462831855,-0.0537189245,0.0036635399,-26.1260070801,-1.4703564644,4.4238991737
        2.2590920925,       -0.0462831855,-0.0537189245,0.0036635399,-26.1260070801,-1.4703564644,4.4238991737
        2.2616620064,       -0.0892519355,-0.0795978308,0.0051283836,-27.9723205566,-2.2790722847,4.8206276894
        2.2642381191,       -0.0892519355,-0.0795978308,0.0051283836,-27.9723205566,-2.2790722847,4.8206276894
        2.2669742107,       -0.0892519355,-0.0795978308,0.0051283836,-29.7575988770,-3.0420117378,5.4462380409
        2.2695481777,       -0.0892519355,-0.0795978308,0.0051283836,-29.7575988770,-3.0420117378,5.4462380409
        2.2721250057,       -0.1429628730,-0.0595782995,0.0036635399,-30.6578674316,-2.7673535347,6.5143532753
        2.2747001648,       -0.1429628730,-0.0595782995,0.0036635399,-30.6578674316,-2.7673535347,6.5143532753
        2.2773342133,       -0.1429628730,-0.0595782995,0.0036635399,-30.8714904785,-1.3482861519,7.9029030800
        2.2800412178,       -0.1429628730,-0.0595782995,0.0036635399,-30.8714904785,-1.3482861519,7.9029030800
        2.2827501297,       -0.1712831855,-0.0361407995,-0.0104966164,-30.4137268066,-0.4785351753,8.0249729156
        2.2854511738,       -0.1712831855,-0.0361407995,-0.0104966164,-30.4137268066,-0.4785351753,8.0249729156
        2.2881660461,       -0.1712831855,-0.0361407995,-0.0104966164,-28.9183654785,-0.4937939644,7.3993630409
        2.2908701897,       -0.1712831855,-0.0361407995,-0.0051255226,-28.9183654785,-0.4937939644,7.3993630409
        2.2936871052,       -0.1639589667,0.0156170130,-0.0051255226,-26.8279113770,-0.6616406441,6.9721169472
        2.2964022160,       -0.1639589667,0.0156170130,-0.0051255226,-26.8279113770,-0.6616406441,6.9721169472
        2.2991092205,       -0.1639589667,0.0156170130,-0.0051255226,-23.4404602051,-0.1733593941,6.7127175331
        2.3018090725,       -0.1639589667,0.0585857630,-0.0153794289,-23.4404602051,-0.1733593941,6.7127175331
        2.3045151234,       -0.1463808417,0.0585857630,-0.0153794289,-20.1445617676,-0.1123242378,5.3089089394
        2.3072052002,       -0.1463808417,0.0585857630,-0.0153794289,-20.1445617676,-0.1123242378,5.3089089394
        2.3097770214,       -0.1463808417,0.0585857630,-0.0153794289,-16.2688293457,0.5132861137,3.8593239784
        2.3123490810,       -0.1029238105,0.0761638880,-0.0183091164,-16.2688293457,0.5132861137,3.8593239784
        2.3149170876,       -0.1029238105,0.0761638880,-0.0183091164,-12.7135314941,0.8794970512,2.5928444862
        2.3176980019,       -0.1029238105,0.0761638880,-0.0183091164,-12.7135314941,0.8794970512,2.5928444862
        2.3202650547,       -0.1029238105,0.0761638880,-0.0183091164,-10.8519592285,0.4827685356,1.3111062050
        2.3230252266,       -0.0550722480,0.0800701380,-0.0056138039,-10.8519592285,0.4827685356,1.3111062050
        2.3256101608,       -0.0550722480,0.0800701380,-0.0056138039,-8.7004699707,0.2538866997,-0.3368430138
        2.3289752007,       -0.0550722480,0.0800701380,-0.0056138039,-8.7004699707,0.2538866997,-0.3368430138
        2.3315382004,       -0.0550722480,0.0800701380,0.0280776024,-7.1288146973,0.1775927544,-3.0223898888
        2.3340981007,       -0.0428652167,0.0722576380,0.0280776024,-7.1288146973,0.1775927544,-3.0223898888
        2.3367271423,       -0.0428652167,0.0722576380,0.0280776024,-6.0759582520,-0.3259472847,-4.8839621544
        2.3392901421,       -0.0428652167,0.0722576380,0.0280776024,-6.0759582520,-0.3259472847,-4.8839621544
        2.3418540955,       -0.0428652167,0.0527263880,0.0417494774,-2.1697080135,-0.5243115425,-6.6387228966
        2.3444161415,       -0.0545839667,0.0527263880,0.0417494774,-3.7261044979,-0.5243115425,-6.6387228966
        2.3469800949,       -0.0545839667,0.0527263880,0.0417494774,-3.7261044979,-0.5243115425,-8.2866725922
        2.3495380878,       -0.0545839667,0.0527263880,0.0417494774,-0.9490050077,0.3301806450,-8.2866725922
        2.3520960808,       -0.0545839667,0.0307537317,0.0432143211,-0.9490050077,0.3301806450,-10.0719509125
        2.3546531200,       -0.0565370917,0.0307537317,0.0432143211,0.2106629759,0.3759570122,-10.0719509125
        2.3573679924,       -0.0565370917,0.0307537317,0.0432143211,0.2106629759,0.3759570122,-10.0719509125
        2.3599359989,       -0.0565370917,0.0307537317,0.0432143211,1.1719666719,0.2081103325,-11.5062770844
        2.3624951839,       -0.0462831855,0.0063396692,0.0168471336,1.1719666719,0.2081103325,-11.5062770844
        2.3650541306,       -0.0462831855,0.0063396692,0.0168471336,1.1261903048,-0.2801709175,-12.4675807953
        2.3676590919,       -0.0462831855,0.0063396692,0.0168471336,1.1261903048,-0.2801709175,-12.4675807953
        2.3702211380,       -0.0462831855,0.0063396692,0.0168471336,0.9278260469,0.1775927544,-13.0474147797
        2.3727781773,       -0.0199159980,0.0141521692,0.0144057274,0.9278260469,0.1775927544,-13.0474147797
        2.3753390312,       -0.0199159980,0.0141521692,0.0144057274,0.0885926634,0.4675097466,-14.1307888031
        2.3780040741,       -0.0199159980,0.0141521692,0.0144057274,0.0885926634,0.4675097466,-14.1307888031
        2.3805770874,       -0.0199159980,0.0141521692,0.0144057274,0.4700623751,0.3912158012,-14.7869167328
        2.3831441402,       -0.0072206855,0.0175701380,0.0124526024,0.4700623751,0.3912158012,-14.7869167328
        2.3857140541,       -0.0072206855,0.0175701380,0.0124526024,0.9583436251,0.6658740044,-14.9700222015
        2.3884570599,       -0.0072206855,0.0175701380,0.0124526024,0.9583436251,0.6658740044,-14.9700222015
        2.3911590576,       -0.0072206855,0.0175701380,0.0124526024,1.8891297579,0.0402636528,-15.2599391937
        2.3938601017,       -0.0018495917,0.0019451380,-0.0065903664,1.8891297579,0.0402636528,-15.2599391937
        2.3966271877,       -0.0018495917,0.0019451380,-0.0065903664,3.5370790958,0.1928515434,-15.4125270844
        2.3993279934,       -0.0018495917,0.0019451380,-0.0065903664,3.5370790958,0.1928515434,-15.4125270844
        2.4020330906,       -0.0018495917,0.0019451380,-0.0095200539,4.5136413574,0.0402636528,-15.1073513031
        2.4047341347,       -0.0091738105,-0.0214923620,-0.0095200539,4.5136413574,0.0402636528,-15.1073513031
        2.4074862003,       -0.0091738105,-0.0214923620,-0.0095200539,6.1005554199,0.1318163872,-14.6038112640
        2.4101881981,       -0.0091738105,-0.0214923620,-0.0095200539,6.1005554199,0.1318163872,-14.6038112640
        2.4128901958,       -0.0091738105,-0.0297931433,-0.0114731789,7.1381530762,-0.1123242378,-13.6119899750
        2.4155881405,       -0.0091738105,-0.0297931433,-0.0114731789,7.1381530762,-0.1123242378,-13.6119899750
        2.4182062149,       -0.0091738105,-0.0297931433,-0.0114731789,6.8634948730,-0.4937939644,-13.1847438812
        2.4208700657,       -0.0091738105,-0.0297931433,-0.0114731789,6.8634948730,-0.4937939644,-13.1847438812
        2.4234402180,       -0.0155214667,-0.0224689245,-0.0270981789,6.8634948730,-0.8600049019,-12.8337917328
        2.4260091782,       -0.0155214667,-0.0224689245,-0.0270981789,7.1534118652,-0.8600049019,-12.8337917328
        2.4287431240,       -0.0155214667,-0.0224689245,-0.0270981789,7.1534118652,-0.5395703316,-12.0555934906
        2.4314382076,       -0.0155214667,-0.0224689245,-0.0270981789,6.2989196777,-0.5395703316,-12.0555934906
        2.4341380596,       -0.0121034980,-0.0302814245,-0.0329575539,6.2989196777,-0.6006054878,-10.7280788422
        2.4368820190,       -0.0121034980,-0.0302814245,-0.0329575539,6.0090026855,-0.6006054878,-10.7280788422
        2.4395771027,       -0.0121034980,-0.0302814245,-0.0329575539,6.0090026855,-1.2719922066,-9.9193630219
        2.4422740936,       -0.0121034980,-0.0302814245,-0.0197739601,5.8106384277,-1.2719922066,-9.9193630219
        2.4450840950,       -0.0081972480,-0.0390704870,-0.0197739601,5.8106384277,-0.7837109566,-9.4921169281
        2.4481830597,       -0.0081972480,-0.0390704870,-0.0197739601,4.4526062012,-0.7837109566,-9.4921169281
        2.4508810043,       -0.0081972480,-0.0390704870,-0.0197739601,4.1169128418,-0.7226758003,-8.8359889984
        2.4535820484,       -0.0194277167,-0.0356525183,-0.0095200539,4.1169128418,-0.7226758003,-8.8359889984
        2.4562811852,       -0.0194277167,-0.0356525183,-0.0095200539,2.5757753849,-0.5243115425,-7.9814963341
        2.4589900970,       -0.0194277167,-0.0356525183,-0.0095200539,2.5757753849,-0.5243115425,-7.9814963341
        2.4616842270,       -0.0194277167,-0.0356525183,-0.0095200539,1.6144715548,-0.5090527534,-7.0354514122
        2.4643762112,       -0.0345644355,-0.0400470495,-0.0070786476,1.6144715548,-0.5090527534,-7.0354514122
        2.4670631886,       -0.0345644355,-0.0400470495,-0.0070786476,1.6144715548,-0.3717236519,-6.2725119591
        2.4696230888,       -0.0345644355,-0.0400470495,-0.0070786476,0.9888612032,-0.3717236519,-6.2725119591
        2.4721879959,       -0.0345644355,-0.0400470495,-0.0070786476,0.9888612032,-0.3717236519,-5.1738791466
        2.4747540951,       -0.0448183417,-0.0712970495,-0.0051255226,-0.3539122343,0.2081103325,-5.1738791466
        2.4773271084,       -0.0448183417,-0.0712970495,-0.0051255226,-0.3539122343,0.2081103325,-4.3346457481
        2.4798960686,       -0.0448183417,-0.0712970495,-0.0051255226,-1.1015928984,1.3372607231,-4.3346457481
        2.4824581146,       -0.0448183417,-0.0712970495,-0.0051255226,-1.1015928984,1.3372607231,-4.3346457481
        2.4850270748,       -0.0409120917,-0.0644611120,0.0090346336,-2.0628964901,1.8560595512,-3.3123068810
        2.4877450466,       -0.0409120917,-0.0644611120,0.0090346336,-2.0628964901,1.8560595512,-3.3123068810
        2.4903171062,       -0.0409120917,-0.0644611120,0.0090346336,-3.1767880917,1.5356249809,-1.9695334435
        2.4928841591,       -0.0409120917,-0.0644611120,0.0090346336,-3.1767880917,1.5356249809,-1.9695334435
        2.4954490662,       -0.0374941230,-0.0615314245,0.0090346336,-5.4045715332,1.1694140434,-1.0234885216
        2.4981582165,       -0.0374941230,-0.0615314245,0.0090346336,-5.4045715332,1.1694140434,-1.0234885216
        2.5007240772,       -0.0374941230,-0.0615314245,0.0090346336,-7.1135559082,0.6353564262,-1.2523703575
        2.5032911301,       -0.0374941230,-0.0380939245,0.0148940086,-7.1135559082,0.6353564262,-1.2523703575
        2.5058581829,       -0.0330995917,-0.0380939245,0.0148940086,-7.8459777832,0.9405322075,-1.6948752403
        2.5085442066,       -0.0330995917,-0.0380939245,0.0148940086,-7.8459777832,0.9405322075,-1.6948752403
        2.5111072063,       -0.0330995917,-0.0380939245,0.0148940086,-8.3037414551,1.1694140434,-1.4507346153
        2.5136740208,       -0.0330995917,0.0165935755,-0.0056138039,-8.3037414551,1.1694140434,-1.4507346153
        2.5162441730,       -0.0316347480,0.0165935755,-0.0056138039,-8.0596008301,1.5203661919,-1.4354758263
        2.5188140869,       -0.0316347480,0.0165935755,-0.0056138039,-8.0596008301,1.5203661919,-1.4354758263
        2.5213840008,       -0.0316347480,0.0165935755,-0.0056138039,-4.1533508301,1.3067431450,-1.8627219200
        2.5239491463,       -0.0355409980,0.0331951380,0.0012221336,-7.1898498535,1.3067431450,-1.8627219200
        2.5265231133,       -0.0355409980,0.0331951380,0.0012221336,-7.1898498535,1.3067431450,-2.7477316856
        2.5291681290,       -0.0355409980,0.0331951380,0.0012221336,-5.9844055176,0.6658740044,-2.7477316856
        2.5317330360,       -0.0355409980,0.0331951380,0.0012221336,-5.9844055176,0.6658740044,-3.9684348106
        2.5343031883,       -0.0389589667,0.0419842005,0.0153822899,-4.5805969238,0.5743212700,-3.9684348106
        2.5370512009,       -0.0389589667,0.0419842005,0.0153822899,-4.5805969238,0.5743212700,-5.1738791466
        2.5397109985,       -0.0389589667,0.0419842005,0.0153822899,-2.8563535213,1.2457079887,-5.1738791466
        2.5424790382,       -0.0389589667,0.0419842005,0.0153822899,-2.8563535213,1.2457079887,-5.1738791466
        2.5450601578,       -0.0409120917,0.0200115442,-0.0007309914,-0.5827940702,1.7492480278,-6.2267355919
        2.5476920605,       -0.0409120917,0.0200115442,-0.0007309914,-0.5827940702,1.7492480278,-6.2267355919
        2.5503621101,       -0.0409120917,0.0200115442,-0.0007309914,0.7904969454,1.0473437309,-6.7150168419
        2.5529260635,       -0.0409120917,0.0200115442,-0.0007309914,0.7904969454,1.0473437309,-6.7150168419
        2.5554971695,       -0.0438417792,0.0239177942,-0.0129380226,1.2482606173,0.9863085747,-7.7220969200
        2.5580642223,       -0.0438417792,0.0239177942,-0.0129380226,1.2482606173,0.9863085747,-7.7220969200
        2.5606310368,       -0.0438417792,0.0239177942,-0.0129380226,1.6602479219,0.5895800591,-8.7139186859
        2.5631921291,       -0.0438417792,0.0239177942,-0.0129380226,1.6602479219,0.5895800591,-8.7139186859
        2.5657560825,       -0.0418886542,0.0092693567,-0.0192856789,1.7212830782,0.8794970512,-8.9122829437
        2.5683841705,       -0.0418886542,0.0092693567,-0.0192856789,1.7212830782,0.8794970512,-8.9122829437
        2.5709450245,       -0.0418886542,0.0092693567,-0.0192856789,2.5605165958,1.1236376762,-8.8054714203
        2.5735051632,       -0.0418886542,0.0092693567,-0.0134263039,2.5605165958,1.1236376762,-8.8054714203
        2.5760722160,       -0.0218691230,0.0121990442,-0.0134263039,3.0793154240,0.9557909966,-9.9193630219
        2.5786430836,       -0.0218691230,0.0121990442,-0.0134263039,3.0793154240,0.9557909966,-9.9193630219
        2.5812079906,       -0.0218691230,0.0121990442,-0.0134263039,3.0793154240,0.5590624809,-10.8043727875
        2.5837681293,       -0.0218691230,0.0121990442,-0.0144028664,3.4913027287,0.5590624809,-10.8043727875
        2.5863320827,       -0.0042909980,0.0224529505,-0.0144028664,3.4913027287,0.5590624809,-11.4452419281
        2.5890920162,       -0.0042909980,0.0224529505,-0.0144028664,4.3305358887,0.4522509575,-11.4452419281
        2.5916550159,       -0.0042909980,0.0224529505,-0.0144028664,4.3305358887,0.4522509575,-11.7961940765
        2.5942211151,       -0.0042909980,0.0029217005,-0.0061020851,5.4749450684,0.3149218559,-11.7961940765
        2.5968329906,       -0.0145449042,0.0029217005,-0.0061020851,5.4749450684,0.3149218559,-11.7961940765
        2.5993881226,       -0.0145449042,0.0029217005,-0.0061020851,5.9937438965,-0.1581006050,-11.9792995453
        2.6019589901,       -0.0145449042,0.0029217005,-0.0061020851,5.9937438965,-0.1581006050,-11.9792995453
        2.6045219898,       -0.0145449042,-0.0185626745,-0.0002427101,6.3446960449,0.1012988091,-11.9945583344
        2.6071181297,       -0.0233339667,-0.0185626745,-0.0002427101,6.3446960449,0.1012988091,-11.9945583344
        2.6096870899,       -0.0233339667,-0.0185626745,-0.0002427101,6.6193542480,0.1623339653,-11.7504177094
        2.6123511791,       -0.0233339667,-0.0185626745,-0.0002427101,6.6193542480,0.1623339653,-11.7504177094
        2.6149170399,       -0.0184511542,-0.0268634558,-0.0056138039,5.9327087402,-0.3564648628,-11.2926540375
        2.6174960136,       -0.0184511542,-0.0268634558,-0.0056138039,5.9327087402,-0.3564648628,-11.2926540375
        2.6200590134,       -0.0184511542,-0.0268634558,-0.0056138039,6.0395202637,0.0097460747,-10.4534206390
        2.6226291656,       -0.0184511542,-0.0268634558,-0.0056138039,6.0395202637,0.0097460747,-10.4534206390
        2.6251900196,       -0.0218691230,-0.0571368933,0.0017104149,5.4291687012,0.6506152153,-9.8278102875
        2.6277990341,       -0.0218691230,-0.0571368933,0.0017104149,5.4291687012,0.6506152153,-9.8278102875
        2.6303691864,       -0.0218691230,-0.0571368933,0.0017104149,5.4291687012,1.0168261528,-8.6376247406
        2.6329331398,       -0.0218691230,-0.0571368933,0.0017104149,3.9338076115,1.0168261528,-8.6376247406
        2.6354980469,       -0.0125917792,-0.0561603308,0.0031752586,3.9338076115,1.2304491997,-7.1270041466
        2.6381850243,       -0.0125917792,-0.0561603308,0.0031752586,3.5981142521,1.2304491997,-7.1270041466
        2.6407401562,       -0.0125917792,-0.0561603308,0.0031752586,3.5981142521,1.2304491997,-5.9825949669
        2.6433091164,       -0.0125917792,-0.0561603308,0.0031752586,3.0793154240,0.8947558403,-5.9825949669
        2.6458690166,       -0.0091738105,-0.0556720495,0.0046401024,3.0793154240,0.8947558403,-4.8839621544
        2.6485970020,       -0.0091738105,-0.0556720495,0.0046401024,2.3774111271,0.8337206841,-4.8839621544
        2.6512651443,       -0.0091738105,-0.0556720495,0.0046401024,2.3774111271,0.8337206841,-3.6937766075
        2.6541121006,       -0.0091738105,-0.0556720495,0.0046401024,2.3468935490,0.4980273247,-3.6937766075
        2.6571061611,       -0.0247988105,-0.0849689245,0.0041518211,2.3468935490,0.4980273247,-2.0153098106
        2.6596741676,       -0.0247988105,-0.0849689245,0.0041518211,1.3855897188,0.3759570122,-2.0153098106
        2.6622390747,       -0.0247988105,-0.0849689245,0.0041518211,1.3855897188,0.3759570122,1.8909401894
        2.6648070812,       -0.0247988105,-0.1025470495,-0.0109848976,0.5158387423,0.3912158012,0.1209206581
        2.6674690247,       -0.0418886542,-0.1025470495,-0.0109848976,0.5158387423,0.3912158012,4.0271706581
        2.6701622009,       -0.0418886542,-0.1025470495,-0.0109848976,-0.8727110624,0.5132861137,2.8522439003
        2.6728630066,       -0.0418886542,-0.1025470495,-0.0109848976,-0.8727110624,0.5132861137,2.8522439003
        2.6756691933,       -0.0506777167,-0.1064532995,-0.0012192726,-1.1931456327,0.9710497856,5.9192605019
        2.6783912182,       -0.0506777167,-0.1064532995,-0.0012192726,-1.1931456327,0.9710497856,9.8255100250
        2.6810910702,       -0.0506777167,-0.1064532995,-0.0012192726,-2.2307431698,1.8102831841,8.6963596344
        2.6837971210,       -0.0506777167,-0.1064532995,-0.0012192726,-2.2307431698,1.8102831841,12.6026096344
        2.6865081787,       -0.0487245917,-0.1045001745,-0.0134263039,-2.9631650448,2.6952929497,11.3971652985
        2.6890799999,       -0.0487245917,-0.1045001745,-0.0134263039,-2.9631650448,2.6952929497,11.3971652985
        2.6916451454,       -0.0487245917,-0.1045001745,-0.0134263039,-2.5664365292,2.4206347466,14.8456516266
        2.6942210197,       -0.0487245917,-0.1045001745,-0.0134263039,-2.5664365292,2.4206347466,14.8456516266
        2.6967911720,       -0.0399355292,-0.1040118933,-0.0100083351,-1.8034971952,2.5274462700,18.4467258453
        2.6993670464,       -0.0399355292,-0.1040118933,-0.0100083351,-1.8034971952,2.5274462700,18.4467258453
        2.7019360065,       -0.0399355292,-0.1040118933,-0.0100083351,-1.5440977812,2.3290820122,22.7497043610
        2.7045080662,       -0.0399355292,-0.1040118933,-0.0100083351,-1.5440977812,2.3290820122,22.7497043610
        2.7072072029,       -0.0345644355,-0.1059650183,-0.0285630226,-1.0100401640,1.5508837700,27.1289768219
        2.7098391056,       -0.0345644355,-0.1059650183,-0.0285630226,-1.0100401640,1.5508837700,27.1289768219
        2.7124102116,       -0.0345644355,-0.1059650183,-0.0285630226,-0.2013243288,0.9100146294,31.4777317047
        2.7149841785,       -0.0345644355,-0.1059650183,-0.0427231789,-0.2013243288,0.9100146294,31.4777317047
        2.7176210880,       -0.0238222480,-0.1289142370,-0.0427231789,0.5616151094,-0.3412060738,36.6809806824
        2.7204020023,       -0.0238222480,-0.1289142370,-0.0427231789,0.5616151094,-0.3412060738,36.6809806824
        2.7230880260,       -0.0238222480,-0.1289142370,-0.0427231789,1.0346375704,-1.8823437691,41.9147453308
        2.7257730961,       -0.0238222480,-0.1777423620,-0.0412583351,1.0346375704,-1.8823437691,41.9147453308
        2.7284591198,       -0.0443300605,-0.1777423620,-0.0412583351,1.3855897188,-3.3319287300,47.2553215027
        2.7312290668,       -0.0443300605,-0.1777423620,-0.0412583351,1.3855897188,-3.3319287300,47.2553215027
        2.7339072227,       -0.0443300605,-0.1777423620,-0.0412583351,0.7142030001,-4.7662549019,52.8858146667
        2.7366490364,       -0.0843691230,-0.1831134558,-0.0583481789,0.7142030001,-4.7662549019,52.8858146667
        2.7395482063,       -0.0843691230,-0.1831134558,-0.0583481789,-1.1168516874,-4.9493603706,58.4705314636
        2.7422521114,       -0.0843691230,-0.1831134558,-0.0583481789,-1.1168516874,-4.9493603706,58.4705314636
        2.7449362278,       -0.0843691230,-0.1831134558,-0.0583481789,-3.1004941463,-4.5526318550,63.3380851746
        2.7476541996,       -0.1107363105,-0.1635822058,-0.0773911476,-3.1004941463,-4.5526318550,63.3380851746
        2.7504110336,       -0.1107363105,-0.1635822058,-0.0773911476,-4.7179260254,-5.8038525581,67.2748489380
        2.7530901432,       -0.1107363105,-0.1635822058,-0.0773911476,-4.7179260254,-5.8038525581,67.2748489380
        2.7557740211,       -0.1107363105,-0.1113361120,-0.0935044289,-8.0901184082,-7.5738720894,70.6470413208
        2.7583911419,       -0.1097597480,-0.1113361120,-0.0935044289,-8.0901184082,-7.5738720894,70.6470413208
        2.7609930038,       -0.1097597480,-0.1113361120,-0.0935044289,-8.0901184082,-7.7112011909,73.8819046021
        2.7635660172,       -0.1097597480,-0.1113361120,-0.0935044289,-11.2792053223,-7.7112011909,73.8819046021
        2.7661421299,       -0.1097597480,-0.0522540808,-0.0935044289,-11.2792053223,-7.3602490425,76.9336624146
        2.7687540054,       -0.1180605292,-0.0522540808,-0.0935044289,-13.7206115723,-7.3602490425,76.9336624146
        2.7713310719,       -0.1180605292,-0.0522540808,-0.0935044289,-13.7206115723,-7.3602490425,79.3598098755
        2.7741210461,       -0.1180605292,-0.0522540808,-0.0935044289,-16.7571105957,-7.4975781441,79.3598098755
        2.7771511078,       -0.0970644355,-0.0317462683,-0.1110825539,-16.7571105957,-6.9940381050,81.0077590942
        2.7798562050,       -0.0970644355,-0.0317462683,-0.1110825539,-19.4731750488,-6.9940381050,81.0077590942
        2.7825601101,       -0.0970644355,-0.0317462683,-0.1110825539,-23.3794250488,-5.0409131050,82.5794143677
        2.7852702141,       -0.0970644355,-0.0317462683,-0.1110825539,-19.8699035645,-5.0409131050,82.5794143677
        2.7879920006,       -0.0619081855,0.0288006067,-0.0729966164,-19.8699035645,-2.6147656441,82.9456253052
        2.7906980515,       -0.0619081855,0.0288006067,-0.0729966164,-20.8312072754,-2.6147656441,82.9456253052
        2.7934041023,       -0.0619081855,0.0288006067,-0.0729966164,-20.8312072754,-2.9962353706,83.1592483521
        2.7961041927,       -0.0619081855,0.0820232630,-0.0412583351,-24.5085754395,-2.9962353706,83.1592483521
        2.7988200188,        0.0069394708,0.0820232630,-0.0412583351,-24.5085754395,-4.4000439644,82.6709671021
        2.8015270233,        0.0069394708,0.0820232630,-0.0412583351,-27.8349914551,-4.4000439644,82.6709671021
        2.8043520451,        0.0069394708,0.0820232630,-0.0412583351,-27.8349914551,-4.2016797066,81.6944046021
        2.8070771694,        0.0914121270,0.0981365442,0.0407729149,-29.9559631348,-4.2016797066,81.6944046021
        2.8096489906,        0.0914121270,0.0981365442,0.0407729149,-29.9559631348,-4.2016797066,80.7331008911
        2.8122241497,        0.0914121270,0.0981365442,0.0407729149,-31.3750305176,-3.0114941597,80.7331008911
        2.8148040771,        0.0914121270,0.0981365442,0.0407729149,-31.3750305176,-3.0114941597,80.3974075317
        2.8174381256,        0.1597715020,0.1347576380,0.0832533836,-30.9935607910,-1.8670849800,80.3974075317
        2.8200170994,        0.1597715020,0.1347576380,0.0832533836,-30.9935607910,-1.8670849800,80.3974075317
        2.8225891590,        0.1597715020,0.1347576380,0.0832533836,-29.3303527832,-1.0888867378,79.9854202271
        2.8251631260,        0.1597715020,0.1347576380,0.0832533836,-29.3303527832,-1.0888867378,79.9854202271
        2.8277971745,        0.2789121270,0.1352459192,0.1086440086,-25.5309143066,-0.6006054878,79.5123977661
        2.8303680420,        0.2789121270,0.1352459192,0.1086440086,-25.5309143066,-0.6006054878,79.5123977661
        2.8329441547,        0.2789121270,0.1352459192,0.1086440086,-20.5565490723,-1.1194043159,78.8867874146
        2.8355200291,        0.2789121270,0.1352459192,0.1086440086,-20.5565490723,-1.1194043159,78.8867874146
        2.8382601738,        0.4434629083,0.1913982630,0.1345229149,-16.2077941895,-2.6147656441,77.0709915161
        2.8409690857,        0.4434629083,0.1913982630,0.1345229149,-16.2077941895,-2.6147656441,77.0709915161
        2.8436751366,        0.4434629083,0.1913982630,0.1345229149,-13.2018127441,-5.1935009956,74.6448440552
        2.8463871479,        0.4434629083,0.1913982630,0.1496596336,-13.2018127441,-5.1935009956,74.6448440552
        2.8490910530,        0.6143613458,0.2324138880,0.1496596336,-11.3402404785,-8.2299995422,72.7374954224
        2.8517889977,        0.6143613458,0.2324138880,0.1496596336,-11.3402404785,-8.2299995422,72.7374954224
        2.8544940948,        0.6143613458,0.2324138880,0.1496596336,-8.1206359863,-11.1291694641,71.6693801880
        2.8572092056,        0.7730527520,0.0996013880,0.1027846336,-8.1206359863,-11.1291694641,71.6693801880
        2.8599100113,        0.7730527520,0.0996013880,0.1027846336,-4.9010314941,-13.0060005188,70.3418655396
        2.8626170158,        0.7730527520,0.0996013880,0.1027846336,-4.9010314941,-13.0060005188,70.3418655396
