time, acceleration x, acceleration y, acceleration z, gyro x gyro y, gyro z
        0.0000000000,       -0.1499041319,-0.1278020442,-0.0092233252,-0.1648484170,1.3227781057,-0.0040977299
        0.0025558472,       -0.1499041319,-0.1278020442,-0.0092233252,0.1403273642,1.1701902151,-0.0040977299
        0.0051159859,       -0.1513689756,-0.1243840754,-0.0170358252,0.1403273642,1.1701902151,-0.0498740971
        0.0076599121,       -0.1513689756,-0.1243840754,-0.0170358252,0.0792922080,0.9718259573,-0.0498740971
        0.0102229118,       -0.1513689756,-0.1243840754,-0.0170358252,0.0792922080,0.9718259573,-0.0498740971
        0.0127758980,       -0.1513689756,-0.1243840754,-0.0170358252,-0.6226121187,1.3532956839,0.0264198482
        0.0153269768,       -0.1542986631,-0.1278020442,-0.0106881689,-0.6226121187,1.3532956839,0.0264198482
        0.0180449486,       -0.1542986631,-0.1278020442,-0.0106881689,-0.7904587984,1.2617429495,0.1179725826
        0.0206079483,       -0.1542986631,-0.1278020442,-0.0106881689,-0.7904587984,1.2617429495,0.1179725826
        0.0231728554,       -0.1542986631,-0.1278020442,-0.0106881689,-0.3937302530,1.3075193167,0.3773719966
        0.0257408619,       -0.1503924131,-0.1238957942,0.0034719873,-0.3937302530,1.3075193167,0.3773719966
        0.0283939838,       -0.1503924131,-0.1238957942,0.0034719873,-0.3021775186,1.4448484182,0.5909950733
        0.0309660435,       -0.1503924131,-0.1238957942,0.0034719873,-0.3021775186,1.4448484182,0.5909950733
        0.0335240364,       -0.1503924131,-0.1238957942,0.0034719873,-0.6683884859,1.4601072073,0.2553016841
        0.0360908508,       -0.1494158506,-0.1248723567,-0.0116647314,-0.6683884859,1.4601072073,0.2553016841
        0.0388288498,       -0.1494158506,-0.1248723567,-0.0116647314,-0.1495896280,1.3685544729,0.0721962154
        0.0414910316,       -0.1494158506,-0.1248723567,-0.0116647314,-0.1495896280,1.3685544729,0.0721962154
        0.0441548824,       -0.1494158506,-0.1248723567,-0.0131295752,-0.3784714639,1.5669187307,0.2247841060
        0.0468149185,       -0.1503924131,-0.1278020442,-0.0131295752,-0.3784714639,1.5669187307,0.2247841060
        0.0495250225,       -0.1503924131,-0.1278020442,-0.0131295752,-0.6073533297,1.4753659964,0.3621132076
        0.0523939133,       -0.1503924131,-0.1278020442,-0.0131295752,-0.6073533297,1.4753659964,0.3621132076
        0.0550909042,       -0.1528338194,-0.1268254817,-0.0028756689,-0.3174363077,1.6126950979,0.3468544185
        0.0578389168,       -0.1528338194,-0.1268254817,-0.0028756689,-0.3174363077,1.6126950979,0.3468544185
        0.0605430603,       -0.1528338194,-0.1268254817,-0.0028756689,-0.3326950967,1.6279538870,0.4689247310
        0.0632350445,       -0.1528338194,-0.1268254817,-0.0028756689,-0.3326950967,1.6279538870,0.4689247310
        0.0659358501,       -0.1562517881,-0.1292668879,-0.0053170752,-0.6531296968,1.6432126760,0.2553016841
        0.0687508583,       -0.1562517881,-0.1292668879,-0.0053170752,-0.6531296968,1.6432126760,0.2553016841
        0.0714490414,       -0.1562517881,-0.1292668879,-0.0053170752,-0.5158005953,1.8415769339,0.2858192623
        0.0741529465,       -0.1562517881,-0.1292668879,-0.0043405127,-0.5158005953,1.8415769339,0.2858192623
        0.0768470764,       -0.1538103819,-0.1253606379,-0.0043405127,-0.2106247842,1.7195066214,0.3315956295
        0.0795588493,       -0.1538103819,-0.1253606379,-0.0043405127,-0.2106247842,1.7195066214,0.3315956295
        0.0822658539,       -0.1538103819,-0.1253606379,-0.0043405127,-0.3326950967,1.7500241995,0.3315956295
        0.0853390694,       -0.1503924131,-0.1268254817,-0.0053170752,-0.3326950967,1.7500241995,0.3315956295
        0.0884840488,       -0.1503924131,-0.1268254817,-0.0053170752,-0.3632126749,1.5058835745,0.3163368404
        0.0911848545,       -0.1503924131,-0.1268254817,-0.0053170752,-0.3632126749,1.5058835745,0.3163368404
        0.0938830376,       -0.1503924131,-0.1268254817,-0.0053170752,-0.2258835733,1.3838132620,0.2553016841
        0.0965869427,       -0.1552752256,-0.1273137629,-0.0018991064,-0.2258835733,1.3838132620,0.2553016841
        0.0992958546,       -0.1552752256,-0.1273137629,-0.0018991064,-0.1801072061,1.2770017385,0.3468544185
        0.1019868851,       -0.1552752256,-0.1273137629,-0.0018991064,-0.1801072061,1.2770017385,0.3468544185
        0.1046910286,       -0.1552752256,-0.1273137629,0.0010305811,-0.4395066202,1.2922605276,0.3621132076
        0.1073870659,       -0.1464861631,-0.1278020442,0.0010305811,-0.4395066202,1.2922605276,0.3621132076
        0.1101059914,       -0.1464861631,-0.1278020442,0.0010305811,-0.4242478311,1.2617429495,0.0874550045
        0.1127998829,       -0.1464861631,-0.1278020442,0.0010305811,-0.4242478311,1.2617429495,0.0874550045
        0.1155018806,       -0.1538103819,-0.1268254817,-0.0111764502,-0.8209763765,1.2312253714,0.0416786373
        0.1182980537,       -0.1538103819,-0.1268254817,-0.0111764502,-0.8209763765,1.2312253714,0.0416786373
        0.1208648682,       -0.1538103819,-0.1268254817,-0.0111764502,-0.1953659952,1.8568357229,0.0569374263
        0.1234309673,       -0.1538103819,-0.1268254817,-0.0111764502,-0.1953659952,1.8568357229,0.0569374263
        0.1260030270,       -0.1494158506,-0.1238957942,-0.0053170752,0.0335158408,1.6584714651,0.1027137935
        0.1286258698,       -0.1494158506,-0.1238957942,-0.0053170752,0.0335158408,1.6584714651,0.1027137935
        0.1311969757,       -0.1494158506,-0.1238957942,-0.0053170752,-0.1190720499,1.6432126760,0.2095253170
        0.1337630749,       -0.1494158506,-0.1238957942,-0.0053170752,-0.1190720499,1.6432126760,0.2095253170
        0.1363298893,       -0.1503924131,-0.1234075129,0.0029837061,-0.1190720499,1.7500241995,0.1790077388
        0.1390199661,       -0.1503924131,-0.1234075129,0.0029837061,-0.1953659952,1.7500241995,0.1790077388
        0.1415898800,       -0.1503924131,-0.1234075129,0.0029837061,-0.1953659952,1.6737302542,-0.1261680424
        0.1441528797,       -0.1503924131,-0.1234075129,0.0029837061,-0.4089890420,1.6737302542,-0.1261680424
        0.1467268467,       -0.1484392881,-0.1243840754,-0.0038522314,-0.4089890420,1.6737302542,0.1179725826
        0.1494770050,       -0.1484392881,-0.1243840754,-0.0038522314,-0.0885544717,1.4448484182,0.1179725826
        0.1521780491,       -0.1484392881,-0.1243840754,-0.0038522314,-0.0885544717,1.4448484182,0.2400428951
        0.1548728943,       -0.1484392881,-0.1243840754,0.0000540186,-0.0732956827,1.4295896292,0.2400428951
        0.1575748920,       -0.1503924131,-0.1282903254,0.0000540186,-0.0732956827,1.4295896292,-0.0040977299
        0.1602730751,       -0.1503924131,-0.1282903254,0.0000540186,-0.3326950967,1.5821775198,-0.0040977299
        0.1629669666,       -0.1503924131,-0.1282903254,0.0000540186,-0.3326950967,1.5821775198,-0.0498740971
        0.1656630039,       -0.1503924131,-0.1238957942,0.0044485498,-0.4242478311,1.7805417776,-0.0498740971
        0.1683778763,       -0.1508806944,-0.1238957942,0.0044485498,-0.4242478311,1.7805417776,-0.3245323002
        0.1710729599,       -0.1508806944,-0.1238957942,0.0044485498,-0.2106247842,1.6279538870,-0.3245323002
        0.1737689972,       -0.1508806944,-0.1238957942,0.0044485498,-0.2106247842,1.6279538870,-0.2787559330
        0.1764628887,       -0.1479510069,-0.1287786067,-0.0087350439,0.0182570517,1.8720945120,-0.2787559330
        0.1791038513,       -0.1479510069,-0.1287786067,-0.0087350439,0.0182570517,1.8720945120,-0.2787559330
        0.1817798615,       -0.1479510069,-0.1287786067,-0.0087350439,-0.2106247842,1.8263181448,-0.0040977299
        0.1843440533,       -0.1479510069,-0.1287786067,-0.0087350439,-0.2106247842,1.8263181448,-0.0040977299
        0.1869029999,       -0.1513689756,-0.1219426692,-0.0116647314,-0.3937302530,1.6432126760,0.1484901607
        0.1896889210,       -0.1513689756,-0.1219426692,-0.0116647314,-0.3937302530,1.6432126760,0.1484901607
        0.1922528744,       -0.1513689756,-0.1219426692,-0.0116647314,-0.0427781045,1.6889890432,0.2247841060
        0.1948239803,       -0.1513689756,-0.1219426692,-0.0116647314,-0.0427781045,1.6889890432,0.2247841060
        0.1973900795,       -0.1542986631,-0.1238957942,-0.0092233252,-0.2411423624,1.5058835745,-0.0651328862
        0.2001428604,       -0.1542986631,-0.1238957942,-0.0092233252,-0.2411423624,1.5058835745,-0.0651328862
        0.2028379440,       -0.1542986631,-0.1238957942,-0.0092233252,-0.1495896280,1.6737302542,-0.0651328862
        0.2057230473,       -0.1542986631,-0.1238957942,-0.0004342627,-0.1495896280,1.6737302542,-0.0651328862
        0.2086970806,       -0.1533221006,-0.1209661067,-0.0004342627,0.2776564658,1.4906247854,-0.1109092534
        0.2112679482,       -0.1533221006,-0.1209661067,-0.0004342627,0.2776564658,1.4906247854,-0.1109092534
        0.2138400078,       -0.1533221006,-0.1209661067,-0.0004342627,-0.1801072061,1.5669187307,-0.1109092534
        0.2164099216,       -0.1464861631,-0.1317082942,-0.0033639502,-0.1801072061,1.5669187307,-0.1109092534
        0.2193150520,       -0.1464861631,-0.1317082942,-0.0033639502,0.2471388876,1.7805417776,-0.1719444096
        0.2220158577,       -0.1464861631,-0.1317082942,-0.0033639502,0.2471388876,1.7805417776,-0.1719444096
        0.2247128487,       -0.1464861631,-0.1317082942,-0.0033639502,0.2166213095,1.9789060354,-0.1261680424
        0.2274079323,       -0.1552752256,-0.1307317317,0.0010305811,0.2166213095,1.9789060354,-0.1261680424
        0.2301208973,       -0.1552752256,-0.1307317317,0.0010305811,0.4760207236,2.0094237328,0.0721962154
        0.2328128815,       -0.1552752256,-0.1307317317,0.0010305811,0.4760207236,2.0094237328,0.0721962154
        0.2355110645,       -0.1552752256,-0.1307317317,0.0010305811,0.2776564658,1.5516599417,-0.0956504643
        0.2382328510,       -0.1508806944,-0.1273137629,0.0005422998,0.2776564658,1.5516599417,-0.0956504643
        0.2407958508,       -0.1508806944,-0.1273137629,0.0005422998,0.5675734282,1.0481199026,-0.1872031987
        0.2433619499,       -0.1508806944,-0.1273137629,0.0005422998,0.5675734282,1.0481199026,-0.1872031987
        0.2460329533,       -0.1508806944,-0.1273137629,-0.0077584814,0.4912795126,1.3838132620,-0.1261680424
        0.2486999035,       -0.1484392881,-0.1263372004,-0.0077584814,0.4912795126,1.3838132620,-0.1261680424
        0.2514050007,       -0.1484392881,-0.1263372004,-0.0077584814,0.5980910063,1.1396726370,-0.2177207768
        0.2541038990,       -0.1484392881,-0.1263372004,-0.0077584814,0.5980910063,1.1396726370,-0.2177207768
        0.2568008900,       -0.1542986631,-0.1336614192,-0.0077584814,-0.0427781045,1.6432126760,0.0264198482
        0.2594249249,       -0.1542986631,-0.1336614192,-0.0077584814,-0.0427781045,1.6432126760,0.0264198482
        0.2619910240,       -0.1542986631,-0.1336614192,-0.0077584814,-0.3937302530,1.4753659964,0.0721962154
        0.2645659447,       -0.1542986631,-0.1336614192,-0.0077584814,-0.3937302530,1.4753659964,0.0721962154
        0.2671308517,       -0.1494158506,-0.1248723567,-0.0058053564,-0.1343308389,2.0857176781,0.0874550045
        0.2697460651,       -0.1494158506,-0.1248723567,-0.0058053564,-0.1343308389,2.0857176781,0.0874550045
        0.2723209858,       -0.1494158506,-0.1248723567,-0.0058053564,-0.1343308389,1.9483884573,-0.1414268315
        0.2748868465,       -0.1494158506,-0.1248723567,-0.0058053564,0.0640334189,1.9483884573,-0.1414268315
        0.2774548531,       -0.1464861631,-0.1268254817,0.0000540186,0.0640334189,1.3380368948,0.1179725826
        0.2802898884,       -0.1464861631,-0.1268254817,0.0000540186,0.1861037314,1.3380368948,0.1179725826
        0.2829830647,       -0.1464861631,-0.1268254817,0.0000540186,0.1861037314,1.3380368948,0.0721962154
        0.2856850624,       -0.1464861631,-0.1268254817,0.0000540186,0.2471388876,1.4906247854,0.0721962154
        0.2883870602,       -0.1557635069,-0.1273137629,-0.0033639502,0.2471388876,5.3968749046,-0.1261680424
        0.2910859585,       -0.1557635069,-0.1273137629,-0.0033639502,-0.0427781045,1.8415769339,-0.1261680424
        0.2937870026,       -0.1557635069,-0.1273137629,-0.0033639502,-0.0427781045,-2.0646729469,-0.0803916752
        0.2964789867,       -0.1557635069,-0.1273137629,-0.0009225439,0.1708449423,1.5669187307,-0.0803916752
        0.2991859913,       -0.1547869444,-0.1282903254,-0.0009225439,0.1708449423,1.5669187307,-0.2177207768
        0.3018848896,       -0.1547869444,-0.1282903254,-0.0009225439,0.1555861533,1.3685544729,-0.2177207768
        0.3045799732,       -0.1547869444,-0.1282903254,-0.0009225439,0.1555861533,1.3685544729,-0.2329795659
        0.3072750568,       -0.1567400694,-0.1253606379,-0.0058053564,0.0182570517,1.7805417776,-0.2329795659
        0.3099789619,       -0.1567400694,-0.1253606379,-0.0058053564,0.0182570517,1.7805417776,-0.4008262455
        0.3125488758,       -0.1567400694,-0.1253606379,-0.0058053564,0.0945509970,1.4601072073,-0.4008262455
        0.3151199818,       -0.1567400694,-0.1253606379,-0.0058053564,0.0945509970,1.4601072073,-0.4008262455
        0.3176898956,       -0.1523455381,-0.1263372004,-0.0033639502,-0.4547654092,1.4906247854,-0.2329795659
        0.3203880787,       -0.1523455381,-0.1263372004,-0.0033639502,-0.4547654092,1.4906247854,-0.2329795659
        0.3230929375,       -0.1523455381,-0.1263372004,-0.0033639502,-0.3174363077,1.4601072073,-0.2787559330
        0.3258528709,       -0.1523455381,-0.1263372004,-0.0033639502,-0.3174363077,1.4601072073,-0.2787559330
        0.3285610676,       -0.1538103819,-0.1302434504,-0.0141061377,0.1555861533,1.6279538870,-0.1261680424
        0.3312549591,       -0.1538103819,-0.1302434504,-0.0141061377,0.1555861533,1.6279538870,-0.1261680424
        0.3342108727,       -0.1538103819,-0.1302434504,-0.0141061377,-0.2106247842,1.5669187307,0.2705604732
        0.3368930817,       -0.1538103819,-0.1302434504,-0.0038522314,-0.2106247842,1.5669187307,0.1484901607
        0.3398659229,       -0.1494158506,-0.1307317317,-0.0038522314,-0.0885544717,1.4753659964,0.1484901607
        0.3431320190,       -0.1494158506,-0.1307317317,-0.0038522314,-0.0427781045,1.7652829885,-0.0651328862
        0.3459949493,       -0.1494158506,-0.1307317317,-0.0038522314,-0.0427781045,1.7652829885,-0.0651328862
        0.3486459255,       -0.1513689756,-0.1224309504,-0.0004342627,3.8634719849,1.5364011526,-0.1414268315
        0.3512148857,       -0.1513689756,-0.1224309504,-0.0004342627,0.2623976767,1.5364011526,-0.1414268315
        0.3537800312,       -0.1513689756,-0.1224309504,-0.0004342627,0.2623976767,1.5516599417,-0.0193565190
        0.3564598560,       -0.1513689756,-0.1224309504,-0.0004342627,0.0792922080,1.5516599417,-0.0193565190
        0.3591020107,       -0.1469744444,-0.1229192317,-0.0058053564,0.0792922080,5.4579100609,0.1179725826
        0.3617670536,       -0.1469744444,-0.1229192317,-0.0058053564,-0.1190720499,2.0552000999,0.1179725826
        0.3644349575,       -0.1469744444,-0.1229192317,-0.0058053564,-0.1190720499,2.0552000999,-0.0956504643
        0.3671319485,       -0.1469744444,-0.1229192317,-0.0087350439,0.0487746298,1.8263181448,-0.0956504643
        0.3697679043,       -0.1464861631,-0.1204778254,-0.0087350439,0.0487746298,1.8263181448,0.0569374263
        0.3723330498,       -0.1464861631,-0.1204778254,-0.0087350439,0.2166213095,1.7958005667,0.0569374263
        0.3749978542,       -0.1464861631,-0.1204778254,-0.0087350439,0.2166213095,1.7958005667,0.0569374263
        0.3776040077,       -0.1464861631,-0.1302434504,-0.0072702002,0.4302443564,1.3227781057,-0.1872031987
        0.3801698685,       -0.1479510069,-0.1302434504,-0.0072702002,0.4302443564,1.3227781057,-0.1872031987
        0.3827400208,       -0.1479510069,-0.1302434504,-0.0072702002,0.6438673735,1.4143308401,-0.5076377392
        0.3853089809,       -0.1479510069,-0.1302434504,-0.0072702002,0.6438673735,1.4143308401,-0.5076377392
        0.3880269527,       -0.1450213194,-0.1268254817,-0.0053170752,0.3844679892,1.3227781057,-0.2482383549
        0.3905980587,       -0.1450213194,-0.1268254817,-0.0053170752,0.3844679892,1.3227781057,-0.2482383549
        0.3931760788,       -0.1450213194,-0.1268254817,-0.0053170752,0.0792922080,1.3838132620,-0.1872031987
        0.3957419395,       -0.1450213194,-0.1268254817,-0.0053170752,0.0792922080,1.3838132620,-0.1872031987
        0.3984279633,       -0.1528338194,-0.1282903254,-0.0077584814,-0.3479538858,1.8263181448,-0.0040977299
        0.4009950161,       -0.1528338194,-0.1282903254,-0.0077584814,-0.3479538858,1.8263181448,-0.0040977299
        0.4035570621,       -0.1528338194,-0.1282903254,-0.0077584814,-0.3174363077,1.5669187307,-0.4466026127
        0.4061269760,       -0.1528338194,-0.1282903254,-0.0077584814,-0.3174363077,1.5669187307,-0.4466026127
        0.4087560177,       -0.1503924131,-0.1282903254,0.0000540186,0.1403273642,1.2312253714,-0.5686728954
        0.4114480019,       -0.1503924131,-0.1282903254,0.0000540186,0.1403273642,1.2312253714,-0.5686728954
        0.4141528606,       -0.1503924131,-0.1282903254,0.0000540186,-0.0732956827,1.6432126760,-0.4160850346
        0.4168488979,       -0.1503924131,-0.1282903254,0.0000540186,-0.0732956827,1.6432126760,-0.4160850346
        0.4195609093,       -0.1542986631,-0.1253606379,0.0000540186,-0.1343308389,2.0704588890,-0.4313438237
        0.4222588539,       -0.1542986631,-0.1253606379,0.0000540186,-0.1343308389,2.0704588890,-0.4313438237
        0.4249539375,       -0.1542986631,-0.1253606379,0.0000540186,0.1098097861,1.8720945120,-0.3245323002
        0.4276559353,       -0.1542986631,-0.1253606379,-0.0014108252,0.1098097861,1.8720945120,-0.3245323002
        0.4303529263,       -0.1513689756,-0.1243840754,-0.0014108252,0.0335158408,1.9483884573,-0.1414268315
        0.4330458641,       -0.1513689756,-0.1243840754,-0.0014108252,0.0335158408,1.9483884573,-0.1414268315
        0.4357500076,       -0.1513689756,-0.1243840754,-0.0014108252,-0.0732956827,1.6737302542,-0.0346153080
        0.4384980202,       -0.1562517881,-0.1312200129,-0.0053170752,-0.0732956827,1.6737302542,-0.0346153080
        0.4413049221,       -0.1562517881,-0.1312200129,-0.0053170752,0.0182570517,1.5211423635,-0.1261680424
        0.4440009594,       -0.1562517881,-0.1312200129,-0.0053170752,0.0182570517,1.5211423635,-0.1261680424
        0.4466938972,       -0.1562517881,-0.1312200129,-0.0053170752,0.3234328330,1.8720945120,-0.0651328862
        0.4493319988,       -0.1508806944,-0.1268254817,-0.0097116064,0.3234328330,1.8720945120,-0.0651328862
        0.4518928528,       -0.1508806944,-0.1268254817,-0.0097116064,0.3234328330,1.5821775198,-0.2177207768
        0.4545149803,       -0.1508806944,-0.1268254817,-0.0097116064,0.5980910063,1.5821775198,-0.2177207768
        0.4570829868,       -0.1508806944,-0.1268254817,-0.0097116064,0.5980910063,1.5821775198,-0.4008262455
        0.4597759247,       -0.1489275694,-0.1297551692,-0.0077584814,0.2013625205,1.4601072073,-0.4008262455
        0.4624719620,       -0.1489275694,-0.1297551692,-0.0077584814,0.2013625205,5.3663573265,-0.1261680424
        0.4651689529,       -0.1489275694,-0.1297551692,-0.0077584814,-0.2564011514,1.9483884573,-0.1261680424
        0.4678719044,       -0.1489275694,-0.1297551692,-0.0121530127,-0.2564011514,1.9483884573,-0.0346153080
        0.4705729485,       -0.1489275694,-0.1234075129,-0.0121530127,-0.1190720499,1.8568357229,-0.0346153080
        0.4732739925,       -0.1489275694,-0.1234075129,-0.0121530127,-0.1190720499,1.8568357229,0.0569374263
        0.4759728909,       -0.1489275694,-0.1234075129,-0.0121530127,-0.2869187295,1.9178708792,0.0569374263
        0.4786829948,       -0.1489275694,-0.1287786067,-0.0053170752,-0.2869187295,1.9178708792,-0.1872031987
        0.4813740253,       -0.1445330381,-0.1287786067,-0.0053170752,-0.1648484170,1.5669187307,-0.1872031987
        0.4841749668,       -0.1445330381,-0.1287786067,-0.0053170752,-0.1648484170,1.5669187307,-0.0803916752
        0.4869179726,       -0.1445330381,-0.1287786067,-0.0053170752,-0.2258835733,1.8415769339,-0.0803916752
        0.4898009300,       -0.1533221006,-0.1263372004,-0.0082467627,-0.2258835733,-2.0646729469,-0.2329795659
        0.4923620224,       -0.1533221006,-0.1263372004,-0.0082467627,0.1250685751,1.5058835745,-0.2329795659
        0.4949250221,       -0.1533221006,-0.1263372004,-0.0082467627,0.1250685751,1.5058835745,-0.0956504643
        0.4974930286,       -0.1533221006,-0.1263372004,-0.0082467627,0.0792922080,1.3685544729,-0.0956504643
        0.5000629425,       -0.1542986631,-0.1253606379,-0.0018991064,0.0792922080,1.3685544729,-0.0956504643
        0.5026240349,       -0.1542986631,-0.1253606379,-0.0018991064,-0.1953659952,1.4448484182,0.1179725826
        0.5053009987,       -0.1542986631,-0.1253606379,-0.0018991064,-0.1953659952,1.4448484182,0.1179725826
        0.5079219341,       -0.1542986631,-0.1253606379,-0.0018991064,-0.1038132608,1.6432126760,0.0874550045
        0.5104899406,       -0.1533221006,-0.1199895442,-0.0082467627,-0.1038132608,1.6432126760,0.0874550045
        0.5130519867,       -0.1533221006,-0.1199895442,-0.0082467627,-0.2716599405,2.0399413109,0.0569374263
        0.5156118870,       -0.1533221006,-0.1199895442,-0.0082467627,-0.2716599405,2.0399413109,0.0569374263
        0.5181858540,       -0.1533221006,-0.1199895442,-0.0082467627,-0.1343308389,2.0094237328,0.2400428951
        0.5207560062,       -0.1464861631,-0.1224309504,-0.0077584814,-0.1343308389,2.0094237328,0.2400428951
        0.5233180523,       -0.1464861631,-0.1224309504,-0.0077584814,-0.3784714639,2.0857176781,0.1637489498
        0.5258839130,       -0.1464861631,-0.1224309504,-0.0077584814,-0.3784714639,2.0857176781,0.1637489498
        0.5285859108,       -0.1464861631,-0.1224309504,-0.0092233252,-0.2716599405,1.9331296682,0.1179725826
        0.5311539173,       -0.1484392881,-0.1282903254,-0.0092233252,-0.2716599405,1.9331296682,0.1179725826
        0.5337190628,       -0.1484392881,-0.1282903254,-0.0092233252,-0.2716599405,1.6737302542,-0.0346153080
        0.5362770557,       -0.1484392881,-0.1282903254,-0.0092233252,0.1098097861,1.6737302542,-0.0346153080
        0.5389568806,       -0.1484392881,-0.1273137629,-0.0101998877,0.1098097861,1.5364011526,0.1637489498
        0.5415210724,       -0.1518572569,-0.1273137629,-0.0101998877,0.6133497953,1.5364011526,0.1637489498
        0.5440900326,       -0.1518572569,-0.1273137629,-0.0101998877,0.6133497953,1.5364011526,0.1637489498
        0.5466589928,       -0.1518572569,-0.1273137629,-0.0101998877,0.3997267783,1.6432126760,0.1637489498
        0.5492310524,       -0.1518572569,-0.1214543879,-0.0038522314,0.3997267783,1.6432126760,0.1637489498
        0.5517959595,       -0.1499041319,-0.1214543879,-0.0038522314,0.3692092001,1.9178708792,-0.0346153080
        0.5543589592,       -0.1499041319,-0.1214543879,-0.0038522314,0.3692092001,1.9178708792,-0.0346153080
        0.5569188595,       -0.1499041319,-0.1214543879,-0.0038522314,0.5217970610,1.7195066214,0.0874550045
        0.5595960617,       -0.1469744444,-0.1258489192,-0.0082467627,0.5217970610,1.7195066214,0.0874550045
        0.5622959137,       -0.1469744444,-0.1258489192,-0.0082467627,-0.0885544717,2.1009764671,-0.3092735112
        0.5649938583,       -0.1469744444,-0.1258489192,-0.0082467627,-0.0885544717,2.1009764671,-0.3092735112
        0.5678439140,       -0.1469744444,-0.1258489192,-0.0082467627,0.0029982626,1.8263181448,-0.2329795659
        0.5705349445,       -0.1577166319,-0.1214543879,0.0005422998,0.0029982626,1.8263181448,-0.2329795659
        0.5732350349,       -0.1577166319,-0.1214543879,0.0005422998,0.0792922080,1.7500241995,-0.0346153080
        0.5759310722,       -0.1577166319,-0.1214543879,0.0005422998,0.0792922080,1.7500241995,-0.0346153080
        0.5786759853,       -0.1577166319,-0.1214543879,0.0005422998,0.2471388876,1.5364011526,-0.2177207768
        0.5813829899,       -0.1445330381,-0.1248723567,-0.0116647314,0.2471388876,1.5364011526,-0.2177207768
        0.5840768814,       -0.1445330381,-0.1248723567,-0.0116647314,-0.1953659952,1.9331296682,-0.4008262455
        0.5867750645,       -0.1445330381,-0.1248723567,-0.0116647314,-0.1953659952,1.9331296682,-0.4008262455
        0.5894930363,       -0.1445330381,-0.1278020442,-0.0131295752,0.0335158408,2.0399413109,-0.3550498784
        0.5921959877,       -0.1459978819,-0.1278020442,-0.0131295752,0.0335158408,2.0399413109,-0.3550498784
        0.5950000286,       -0.1459978819,-0.1278020442,-0.0131295752,0.5370558500,1.3227781057,-0.1109092534
        0.5977149010,       -0.1459978819,-0.1278020442,-0.0131295752,0.5370558500,1.3227781057,-0.1109092534
        0.6002850533,       -0.1542986631,-0.1273137629,-0.0058053564,-0.0275193155,1.5058835745,-0.0193565190
        0.6028540134,       -0.1542986631,-0.1273137629,-0.0058053564,-0.0275193155,1.5058835745,-0.0193565190
        0.6054210663,       -0.1542986631,-0.1273137629,-0.0058053564,-0.2716599405,1.7195066214,-0.1109092534
        0.6080069542,       -0.1542986631,-0.1273137629,-0.0058053564,-0.2716599405,1.7195066214,-0.1109092534
        0.6107089520,       -0.1464861631,-0.1238957942,-0.0082467627,-0.3937302530,1.9789060354,-0.1109092534
        0.6134090424,       -0.1464861631,-0.1238957942,-0.0082467627,-0.3937302530,1.9789060354,-0.1109092534
        0.6161098480,       -0.1464861631,-0.1238957942,-0.0082467627,-0.2869187295,2.1162352562,-0.3245323002
        0.6188578606,       -0.1464861631,-0.1238957942,-0.0082467627,-0.2869187295,2.1162352562,-0.3245323002
        0.6215598583,       -0.1567400694,-0.1209661067,-0.0082467627,-0.4395066202,2.1620116234,-0.1872031987
        0.6242558956,       -0.1567400694,-0.1209661067,-0.0082467627,-0.4395066202,2.1620116234,-0.1872031987
        0.6269569397,       -0.1567400694,-0.1209661067,-0.0082467627,-0.3784714639,1.7652829885,-0.5076377392
        0.6295950413,       -0.1567400694,-0.1209661067,-0.0087350439,-0.3784714639,1.7652829885,-0.5076377392
        0.6322698593,       -0.1508806944,-0.1224309504,-0.0087350439,0.1555861533,1.8568357229,-0.5381553173
        0.6348400116,       -0.1508806944,-0.1224309504,-0.0087350439,0.1555861533,1.8568357229,-0.5381553173
        0.6374030113,       -0.1508806944,-0.1224309504,-0.0087350439,0.8117140532,1.7347654104,-1.0874717236
        0.6400949955,       -0.1508806944,-0.1243840754,-0.0087350439,0.8117140532,1.7347654104,-1.0874717236
        0.6426630020,       -0.1479510069,-0.1243840754,-0.0087350439,0.7201613188,1.6126950979,-0.6449668407
        0.6452329159,       -0.1479510069,-0.1243840754,-0.0087350439,0.7201613188,1.6126950979,-0.6449668407
        0.6479649544,       -0.1479510069,-0.1243840754,-0.0087350439,0.7201613188,1.2007077932,-0.4923789799
        0.6505320072,       -0.1586931944,-0.1258489192,-0.0106881689,0.7049025297,1.2007077932,-0.4923789799
        0.6530990601,       -0.1586931944,-0.1258489192,-0.0106881689,0.7049025297,1.2007077932,-0.5839316845
        0.6556599140,       -0.1586931944,-0.1258489192,-0.0106881689,0.4455031455,1.2007077932,-0.5839316845
        0.6583030224,       -0.1586931944,-0.1258489192,-0.0106881689,0.4455031455,1.2007077932,-0.9806602001
        0.6610000134,       -0.1562517881,-0.1292668879,-0.0111764502,0.4455031455,1.3227781057,-0.9806602001
        0.6636948586,       -0.1562517881,-0.1292668879,-0.0111764502,0.4455031455,1.3227781057,-0.9043662548
        0.6663968563,       -0.1562517881,-0.1292668879,-0.0111764502,0.5523146391,1.1854490042,-0.9043662548
        0.6691038609,       -0.1562517881,-0.1292668879,-0.0111764502,0.5523146391,1.1854490042,-0.6144492626
        0.6718020439,       -0.1499041319,-0.1282903254,-0.0126412939,0.4302443564,1.5364011526,-0.6144492626
        0.6744990349,       -0.1499041319,-0.1282903254,-0.0126412939,0.4302443564,1.5364011526,-0.3092735112
        0.6771950722,       -0.1499041319,-0.1282903254,-0.0126412939,-0.2716599405,1.9636472464,-0.3092735112
        0.6799068451,       -0.1499041319,-0.1282903254,-0.0048287939,-0.2716599405,1.9636472464,-0.3550498784
        0.6825990677,       -0.1542986631,-0.1307317317,-0.0048287939,-0.2411423624,1.6432126760,-0.3550498784
        0.6852960587,       -0.1542986631,-0.1307317317,-0.0048287939,-0.2411423624,1.6432126760,-0.1261680424
        0.6879949570,       -0.1542986631,-0.1307317317,-0.0048287939,-0.5920945406,1.3685544729,-0.1261680424
        0.6907870770,       -0.1542986631,-0.1326848567,0.0015188623,-0.5920945406,1.3685544729,-0.1261680424
        0.6933720112,       -0.1533221006,-0.1326848567,0.0015188623,-0.1190720499,1.2464841604,-0.3092735112
        0.6960449219,       -0.1533221006,-0.1326848567,0.0015188623,-0.1190720499,1.2464841604,-0.3092735112
        0.6987919807,       -0.1533221006,-0.1326848567,0.0015188623,-0.2564011514,1.8263181448,-0.2482383549
        0.7013590336,       -0.1464861631,-0.1243840754,-0.0023873877,-0.2564011514,1.8263181448,-0.2482383549
        0.7040510178,       -0.1464861631,-0.1243840754,-0.0023873877,-0.3174363077,1.9483884573,-0.5076377392
        0.7069950104,       -0.1464861631,-0.1243840754,-0.0023873877,-0.3174363077,1.9483884573,-0.5076377392
        0.7097258568,       -0.1464861631,-0.1243840754,-0.0023873877,-0.2564011514,1.8263181448,-0.3855674565
        0.7124290466,       -0.1464861631,-0.1263372004,-0.0106881689,-0.2564011514,1.8263181448,-0.3855674565
        0.7151310444,       -0.1464861631,-0.1263372004,-0.0106881689,-0.6073533297,1.6737302542,-0.2787559330
        0.7178659439,       -0.1464861631,-0.1263372004,-0.0106881689,-0.6073533297,1.6737302542,-0.2787559330
        0.7205669880,       -0.1464861631,-0.1263372004,-0.0038522314,-0.3326950967,1.7805417776,-0.2634971440
        0.7232589722,       -0.1547869444,-0.1292668879,-0.0038522314,-0.3326950967,1.7805417776,-0.2634971440
        0.7259640694,       -0.1547869444,-0.1292668879,-0.0038522314,-0.3937302530,1.4753659964,-0.4008262455
        0.7286739349,       -0.1547869444,-0.1292668879,-0.0038522314,-0.3937302530,1.4753659964,-0.4008262455
        0.7313740253,       -0.1513689756,-0.1243840754,-0.0101998877,-0.0580368936,1.3075193167,-0.0498740971
        0.7340719700,       -0.1513689756,-0.1243840754,-0.0101998877,-0.0580368936,1.3075193167,3.8563759327
        0.7367739677,       -0.1513689756,-0.1243840754,-0.0101998877,-0.4700241983,1.5669187307,0.2705604732
        0.7393929958,       -0.1513689756,-0.1243840754,-0.0101998877,-0.4700241983,1.5669187307,0.2705604732
        0.7419629097,       -0.1464861631,-0.1361028254,-0.0106881689,-0.6531296968,1.6889890432,0.1790077388
        0.7445349693,       -0.1464861631,-0.1361028254,-0.0106881689,-0.6531296968,1.6889890432,0.1790077388
        0.7471020222,       -0.1464861631,-0.1361028254,-0.0106881689,-0.7294236422,1.3075193167,0.0264198482
        0.7497479916,       -0.1464861631,-0.1361028254,-0.0106881689,-0.7294236422,1.3075193167,0.0264198482
        0.7523109913,       -0.1528338194,-0.1282903254,-0.0033639502,-1.0498582125,1.2770017385,-0.1566856205
        0.7548768520,       -0.1528338194,-0.1282903254,-0.0033639502,-1.0498582125,1.2770017385,-0.1566856205
        0.7574489117,       -0.1528338194,-0.1282903254,-0.0033639502,-0.3021775186,1.7500241995,-0.0956504643
        0.7603518963,       -0.1528338194,-0.1282903254,-0.0033639502,-0.3021775186,1.7500241995,-0.0956504643
        0.7630338669,       -0.1386736631,-0.1199895442,-0.0160592627,-0.4242478311,1.6279538870,-0.0040977299
        0.7657179832,       -0.1386736631,-0.1199895442,-0.0160592627,-0.4242478311,1.6279538870,-0.0040977299
        0.7684030533,       -0.1386736631,-0.1199895442,-0.0160592627,-0.4242478311,1.2312253714,-0.3703086674
        0.7710859776,       -0.1386736631,-0.1199895442,-0.0082467627,-0.4242478311,1.2312253714,-0.3703086674
        0.7737610340,       -0.1499041319,-0.1248723567,-0.0082467627,-0.1343308389,1.0023435354,-0.4771201909
        0.7764370441,       -0.1499041319,-0.1248723567,-0.0082467627,-0.1343308389,1.0023435354,-0.4771201909
        0.7791390419,       -0.1499041319,-0.1248723567,-0.0082467627,0.2013625205,1.1396726370,-0.6297080517
        0.7818179131,       -0.1528338194,-0.1248723567,-0.0038522314,0.2013625205,1.1396726370,-0.6297080517
        0.7845010757,       -0.1528338194,-0.1248723567,-0.0038522314,-0.1343308389,1.9026120901,-0.4466026127
        0.7871840000,       -0.1528338194,-0.1248723567,-0.0038522314,-0.1343308389,1.9026120901,-0.4466026127
        0.7898769379,       -0.1528338194,-0.1248723567,-0.0038522314,0.0792922080,1.8263181448,-0.3703086674
        0.7925610542,       -0.1494158506,-0.1209661067,-0.0072702002,0.0792922080,1.8263181448,-0.3703086674
        0.7952320576,       -0.1494158506,-0.1209661067,-0.0072702002,0.3844679892,1.3685544729,-0.3092735112
        0.7979218960,       -0.1494158506,-0.1209661067,-0.0072702002,0.3844679892,1.3685544729,-0.3092735112
        0.8006060123,       -0.1494158506,-0.1209661067,-0.0072702002,0.3692092001,1.1701902151,-0.6297080517
        0.8032848835,       -0.1484392881,-0.1326848567,-0.0043405127,0.3692092001,1.1701902151,-0.6297080517
        0.8059618473,       -0.1484392881,-0.1326848567,-0.0043405127,0.1708449423,1.2312253714,-0.8128135204
        0.8086659908,       -0.1484392881,-0.1326848567,-0.0043405127,0.1708449423,1.2312253714,-0.8128135204
        0.8113639355,       -0.1484392881,-0.1326848567,0.0005422998,0.3692092001,1.5058835745,-0.4771201909
        0.8142080307,       -0.1484392881,-0.1321965754,0.0005422998,0.3692092001,1.5058835745,-0.4771201909
        0.8169159889,       -0.1484392881,-0.1321965754,0.0005422998,0.6591261625,1.4906247854,-0.4923789799
        0.8199200630,       -0.1484392881,-0.1321965754,0.0005422998,0.6591261625,1.4906247854,-0.4923789799
        0.8226258755,       -0.1567400694,-0.1370793879,-0.0082467627,0.5828322172,1.2464841604,-0.6144492626
        0.8254270554,       -0.1567400694,-0.1370793879,-0.0082467627,0.5828322172,1.2464841604,-0.6144492626
        0.8281419277,       -0.1567400694,-0.1370793879,-0.0082467627,0.7811964750,1.4753659964,-0.4160850346
        0.8308360577,       -0.1567400694,-0.1370793879,-0.0082467627,0.7811964750,1.4753659964,-0.4160850346
        0.8335359097,       -0.1503924131,-0.1317082942,-0.0116647314,0.0792922080,1.5821775198,-0.0193565190
        0.8362360001,       -0.1503924131,-0.1317082942,-0.0116647314,0.0792922080,1.5821775198,-0.0193565190
        0.8389379978,       -0.1503924131,-0.1317082942,-0.0116647314,-0.1343308389,1.5211423635,0.0874550045
        0.8416280746,       -0.1503924131,-0.1317082942,-0.0082467627,-0.1343308389,1.5211423635,0.0874550045
        0.8443319798,       -0.1523455381,-0.1278020442,-0.0082467627,-0.3326950967,1.3990720510,0.2095253170
        0.8470289707,       -0.1523455381,-0.1278020442,-0.0082467627,-0.3326950967,1.3990720510,0.2095253170
        0.8496420383,       -0.1523455381,-0.1278020442,-0.0082467627,-0.3021775186,1.2770017385,-0.0651328862
        0.8522069454,       -0.1523455381,-0.1155950129,-0.0116647314,-0.3021775186,1.2770017385,-0.0651328862
        0.8547718525,       -0.1523455381,-0.1155950129,-0.0116647314,-0.3021775186,1.0938962698,-0.4923789799
        0.8573460579,       -0.1523455381,-0.1155950129,-0.0116647314,-0.3174363077,1.0938962698,-0.4923789799
        0.8599679470,       -0.1523455381,-0.1155950129,-0.0116647314,-0.3174363077,1.0938962698,-0.7212607861
        0.8625340462,       -0.1440447569,-0.1155950129,-0.0058053564,-0.0122605264,1.2159665823,-0.7212607861
        0.8651020527,       -0.1440447569,-0.1155950129,-0.0058053564,-0.0122605264,1.2159665823,-0.6602256298
        0.8677308559,       -0.1440447569,-0.1155950129,-0.0058053564,-0.5005418062,1.7042478323,-0.6602256298
        0.8703219891,       -0.1440447569,-0.1155950129,-0.0058053564,-0.5005418062,1.7042478323,-0.6602256298
        0.8728899956,       -0.1381853819,-0.1234075129,-0.0116647314,-0.2564011514,1.0938962698,-0.6144492626
        0.8754608631,       -0.1381853819,-0.1234075129,-0.0116647314,-0.2564011514,1.0938962698,-0.6144492626
        0.8781790733,       -0.1381853819,-0.1234075129,-0.0116647314,-0.1190720499,1.0938962698,-0.4923789799
        0.8808789253,       -0.1381853819,-0.1234075129,-0.0116647314,-0.1190720499,1.0938962698,-0.4923789799
        0.8835790157,       -0.1479510069,-0.1361028254,-0.0023873877,-0.1190720499,1.1244138479,-0.6297080517
        0.8862779140,       -0.1479510069,-0.1361028254,-0.0023873877,-0.1190720499,1.1244138479,-0.6297080517
        0.8890318871,       -0.1479510069,-0.1361028254,-0.0023873877,-0.0885544717,1.3227781057,-0.6907432079
        0.8916029930,       -0.1479510069,-0.1361028254,-0.0023873877,-0.0885544717,1.3227781057,-0.6907432079
        0.8941669464,       -0.1367205381,-0.1419622004,-0.0048287939,-0.0732956827,1.5821775198,-0.1719444096
        0.8967308998,       -0.1367205381,-0.1419622004,-0.0048287939,-0.0732956827,1.5821775198,-0.1719444096
        0.8993930817,       -0.1367205381,-0.1419622004,-0.0048287939,0.0487746298,2.0094237328,0.2858192623
        0.9020938873,       -0.1367205381,-0.1419622004,0.0020071436,0.0487746298,2.0094237328,0.2858192623
        0.9047889709,       -0.1455096006,-0.1326848567,0.0020071436,0.3081740439,2.4061522484,0.7741005421
        0.9074900150,       -0.1455096006,-0.1326848567,0.0020071436,0.3081740439,2.4061522484,0.7741005421
        0.9100608826,       -0.1455096006,-0.1326848567,0.0020071436,0.7659376860,2.0399413109,0.7283241749
        0.9126319885,       -0.1455096006,-0.1185247004,0.0034719873,0.7659376860,2.0399413109,0.7283241749
        0.9151959419,       -0.1435564756,-0.1185247004,0.0034719873,1.2084425688,2.0552000999,0.5604774952
        0.9178500175,       -0.1435564756,-0.1185247004,0.0034719873,1.2084425688,2.0552000999,0.5604774952
        0.9205489159,       -0.1435564756,-0.1185247004,0.0034719873,1.8645704985,1.6126950979,0.6215126514
        0.9232430458,       -0.1435564756,-0.1238957942,0.0015188623,1.8645704985,1.6126950979,0.6215126514
        0.9259388447,       -0.1435564756,-0.1238957942,0.0015188623,2.6732864380,1.5058835745,0.8809120655
        0.9286808968,       -0.1435564756,-0.1238957942,0.0015188623,2.6732864380,1.5058835745,0.8809120655
        0.9313769341,       -0.1435564756,-0.1238957942,0.0015188623,3.0089797974,1.9483884573,1.0640175343
        0.9343059063,       -0.1416033506,-0.1278020442,-0.0004342627,3.0089797974,1.9483884573,1.0640175343
        0.9369969368,       -0.1416033506,-0.1278020442,-0.0004342627,3.7261428833,2.1772704124,1.4760048389
        0.9397709370,       -0.1416033506,-0.1278020442,-0.0004342627,3.7261428833,2.1772704124,1.4760048389
        0.9423449039,       -0.1416033506,-0.1278020442,-0.0004342627,4.2602005005,1.9178708792,1.6743690968
        0.9449069500,       -0.1596697569,-0.1312200129,-0.0087350439,4.2602005005,1.9178708792,1.6743690968
        0.9474780560,       -0.1596697569,-0.1312200129,-0.0087350439,4.3517532349,1.7652829885,1.6285927296
        0.9501788616,       -0.1596697569,-0.1312200129,-0.0087350439,4.3517532349,1.7652829885,1.6285927296
        0.9529938698,       -0.1596697569,-0.1273137629,-0.0082467627,4.2907180786,1.7195066214,2.0710976124
        0.9556999207,       -0.1645525694,-0.1273137629,-0.0082467627,4.2907180786,1.7195066214,2.0710976124
        0.9583950043,       -0.1645525694,-0.1273137629,-0.0082467627,4.3670120239,1.4601072073,1.7506630421
        0.9610910416,       -0.1645525694,-0.1273137629,-0.0082467627,4.3670120239,1.4601072073,1.7506630421
        0.9637899399,       -0.1479510069,-0.1370793879,-0.0145944189,4.4280471802,1.7195066214,1.6896278858
        0.9664819241,       -0.1479510069,-0.1370793879,-0.0145944189,4.4280471802,1.7195066214,1.6896278858
        0.9691178799,       -0.1479510069,-0.1370793879,-0.0145944189,0.5217970610,1.6584714651,1.6438515186
        0.9716858864,       -0.1479510069,-0.1370793879,-0.0145944189,3.6193313599,1.6584714651,1.6438515186
        0.9742488861,       -0.1484392881,-0.1292668879,-0.0141061377,3.6193313599,1.6584714651,1.8574745655
        0.9768159389,       -0.1484392881,-0.1292668879,-0.0141061377,2.1544876099,1.7347654104,1.8574745655
        0.9794259071,       -0.1484392881,-0.1292668879,-0.0141061377,2.1544876099,1.7347654104,1.9642860889
        0.9819920063,       -0.1484392881,-0.1292668879,-0.0141061377,2.1697463989,1.6584714651,1.9642860889
        0.9845619202,       -0.1542986631,-0.1253606379,-0.0077584814,2.1697463989,1.6584714651,1.9642860889
        0.9871289730,       -0.1542986631,-0.1253606379,-0.0077584814,1.6509474516,2.0399413109,2.6967079639
        0.9897429943,       -0.1542986631,-0.1253606379,-0.0077584814,1.6509474516,2.0399413109,2.6967079639
        0.9923038483,       -0.1542986631,-0.1253606379,-0.0077584814,2.1697463989,2.0552000999,2.9713661671
        0.9948699474,       -0.1455096006,-0.1199895442,-0.0116647314,2.1697463989,2.0552000999,2.9713661671
        0.9974448681,       -0.1455096006,-0.1199895442,-0.0116647314,2.4444046021,1.9789060354,3.2155067921
        1.0002999306,       -0.1455096006,-0.1199895442,-0.0116647314,2.4444046021,1.9789060354,3.2155067921
        1.0029790401,       -0.1455096006,-0.1199895442,-0.0087350439,2.3986282349,1.9941648245,3.2460243702
        1.0056579113,       -0.1503924131,-0.1356145442,-0.0087350439,2.3986282349,1.9941648245,3.2460243702
        1.0083448887,       -0.1503924131,-0.1356145442,-0.0087350439,2.1697463989,2.2535643578,3.8716347218
        1.0110330582,       -0.1503924131,-0.1356145442,-0.0087350439,2.1697463989,2.2535643578,3.8716347218
        1.0137150288,       -0.1503924131,-0.1429387629,0.0024954248,2.3833694458,2.5282225609,4.3904333115
        1.0165019035,       -0.1362322569,-0.1429387629,0.0024954248,2.3833694458,2.5282225609,4.3904333115
        1.0191888809,       -0.1362322569,-0.1429387629,0.0024954248,2.8869094849,2.3145995140,5.1075963974
        1.0218629837,       -0.1362322569,-0.1429387629,0.0024954248,2.8869094849,2.3145995140,5.1075963974
        1.0245430470,       -0.1518572569,-0.1395207942,0.0005422998,3.1768264771,2.3298583031,5.6416540146
        1.0272278786,       -0.1518572569,-0.1395207942,0.0005422998,3.1768264771,2.3298583031,5.6416540146
        1.0299139023,       -0.1518572569,-0.1395207942,0.0005422998,3.3294143677,2.5434813499,6.5876989365
        1.0325949192,       -0.1518572569,-0.1395207942,0.0005422998,3.3294143677,2.5434813499,6.5876989365
        1.0352749825,       -0.1655291319,-0.1448918879,-0.0038522314,3.6345901489,2.7113280296,7.6863317490
        1.0379660130,       -0.1655291319,-0.1448918879,-0.0038522314,3.6345901489,2.7113280296,7.6863317490
        1.0406239033,       -0.1655291319,-0.1448918879,-0.0038522314,3.5888137817,2.0399413109,8.7086706161
        1.0432779789,       -0.1655291319,-0.1448918879,-0.1288522333,3.5888137817,2.0399413109,8.7086706161
        1.0459358692,       -0.1542986631,-0.1653997004,-0.0214303564,2.5054397583,1.1091550589,9.6241979599
        1.0487248898,       -0.1542986631,-0.1653997004,-0.0214303564,2.5054397583,1.1091550589,9.6241979599
        1.0514230728,       -0.1542986631,-0.1653997004,-0.0214303564,1.4678419828,1.0328611135,10.0819616318
        1.0543658733,       -0.1713885069,-0.2069036067,-0.0038522314,1.4678419828,1.0328611135,10.0819616318
        1.0570540428,       -0.1713885069,-0.2069036067,-0.0038522314,0.7354201078,1.4601072073,10.4329137802
        1.0601739883,       -0.1713885069,-0.2069036067,-0.0038522314,0.7354201078,1.4601072073,10.4329137802
        1.0628819466,       -0.1713885069,-0.2069036067,-0.0038522314,-1.0498582125,1.7195066214,11.6841344833
        1.0655829906,       -0.1684588194,-0.1409856379,-0.0263131689,-1.0498582125,1.7195066214,11.6841344833
        1.0683000088,       -0.1684588194,-0.1409856379,-0.0263131689,-2.6520309448,1.7500241995,13.4236364365
        1.0709998608,       -0.1684588194,-0.1409856379,-0.0263131689,-2.6520309448,1.7500241995,13.4236364365
        1.0737040043,       -0.1684588194,-0.1409856379,-0.0131295752,-3.3539352417,1.5364011526,13.9576940536
        1.0764150620,       -0.1552752256,-0.1185247004,-0.0131295752,-3.3539352417,1.5364011526,13.9576940536
        1.0790600777,       -0.1552752256,-0.1185247004,-0.0131295752,-3.5065231323,1.2464841604,14.2018346786
        1.0817279816,       -0.1552752256,-0.1185247004,-0.0131295752,-3.5065231323,1.2464841604,14.2018346786
        1.0843029022,       -0.1552752256,-0.1365911067,-0.0185006689,-3.6438522339,0.7124265432,13.8966588974
        1.0868740082,       -0.1528338194,-0.1365911067,-0.0185006689,-3.6438522339,0.7124265432,13.8966588974
        1.0894510746,       -0.1528338194,-0.1365911067,-0.0185006689,-3.2013473511,0.5903562307,14.3544225693
        1.0920190811,       -0.1528338194,-0.1365911067,-0.0185006689,-3.2013473511,0.5903562307,14.3544225693
        1.0945839882,       -0.1528338194,-0.1165715754,-0.0126412939,-2.8503952026,0.8039792776,15.3462438583
        1.0971539021,       -0.1547869444,-0.1165715754,-0.0126412939,-2.8503952026,0.8039792776,15.3462438583
        1.0997960567,       -0.1547869444,-0.1165715754,-0.0126412939,-2.8503952026,0.7582029104,15.7734899521
        1.1023609638,       -0.1547869444,-0.1165715754,-0.0126412939,-3.0792770386,0.7582029104,15.7734899521
        1.1049270630,       -0.1445330381,-0.1180364192,-0.0033639502,-3.0792770386,0.7582029104,16.1091842651
        1.1074900627,       -0.1445330381,-0.1180364192,-0.0033639502,-2.2553024292,0.7734616995,16.1091842651
        1.1101489067,       -0.1445330381,-0.1180364192,-0.0033639502,-2.2553024292,0.7734616995,16.9331588745
        1.1127119064,       -0.1445330381,-0.1180364192,-0.0033639502,-0.9888230562,0.8039792776,16.9331588745
        1.1152770519,       -0.1459978819,-0.1204778254,0.0044485498,-0.9888230562,0.8039792776,16.9331588745
        1.1179950237,       -0.1459978819,-0.1204778254,0.0044485498,0.4912795126,0.4225095510,17.8944625854
        1.1205580235,       -0.1459978819,-0.1204778254,0.0044485498,0.4912795126,0.4225095510,17.8944625854
        1.1231238842,       -0.1459978819,-0.1204778254,0.0044485498,1.1626662016,0.0562986135,18.7642135620
        1.1256918907,       -0.1552752256,-0.1199895442,-0.0185006689,1.1626662016,0.0562986135,18.7642135620
        1.1282889843,       -0.1552752256,-0.1199895442,-0.0185006689,1.7119826078,-0.0962892771,19.5881881714
        1.1308648586,       -0.1552752256,-0.1199895442,-0.0185006689,1.7119826078,-0.0962892771,19.5881881714
        1.1334269047,       -0.1552752256,-0.1199895442,-0.0185006689,2.3528518677,-0.5387941599,21.1445846558
        1.1359939575,       -0.1459978819,-0.1356145442,-0.0224069189,2.3528518677,-0.5387941599,21.1445846558
        1.1386539936,       -0.1459978819,-0.1356145442,-0.0224069189,2.7648391724,-0.7829347849,22.8993453979
        1.1413509846,       -0.1459978819,-0.1356145442,-0.0224069189,2.7648391724,-0.7829347849,22.8993453979
        1.1440548897,       -0.1459978819,-0.1356145442,0.1025930792,2.1239700317,-1.6526857615,24.8219528198
        1.1468689442,       -0.1464861631,-0.1800481379,-0.0199655127,2.1239700317,-1.6526857615,24.8219528198
        1.1494929790,       -0.1464861631,-0.1800481379,-0.0199655127,1.5899122953,-2.6750245094,26.5767135620
        1.1520638466,       -0.1464861631,-0.1800481379,-0.0199655127,1.5899122953,-2.6750245094,26.5767135620
        1.1546339989,       -0.1464861631,-0.1800481379,-0.0409616083,0.8117140532,-2.9191651344,28.5298385620
        1.1572060585,       -0.1718767881,-0.1824895442,-0.0409616083,0.8117140532,-2.9191651344,28.5298385620
        1.1599409580,       -0.1718767881,-0.1824895442,-0.0409616083,-0.6683884859,-2.5987305641,30.7728805542
        1.1626410484,       -0.1718767881,-0.1824895442,-0.0409616083,-0.6683884859,-2.5987305641,30.7728805542
        1.1653418541,       -0.1718767881,-0.1546575129,-0.0482858270,-2.8503952026,-2.6445069313,33.1532516479
        1.1681900024,       -0.1709002256,-0.1546575129,-0.0482858270,-2.8503952026,-2.6445069313,33.1532516479
        1.1708600521,       -0.1709002256,-0.1546575129,-0.0482858270,-4.2084274292,-3.6363282204,35.1674118042
        1.1735918522,       -0.1709002256,-0.1546575129,-0.0482858270,-4.2084274292,-3.6363282204,35.1674118042
        1.1764419079,       -0.1660174131,-0.1629582942,-0.0209420752,-4.3915328979,-3.9567627907,37.7614059448
        1.1794219017,       -0.1660174131,-0.1629582942,-0.0209420752,-4.3915328979,-3.9567627907,37.7614059448
        1.1819930077,       -0.1660174131,-0.1629582942,-0.0209420752,-6.5582809448,-3.7278809547,40.1570358276
        1.1845629215,       -0.1660174131,-0.1629582942,-0.0209420752,-6.5582809448,-3.7278809547,40.1570358276
        1.1871368885,       -0.1372088194,-0.1409856379,-0.0204537939,-8.9386520386,-3.9415040016,42.4000778198
        1.1898210049,       -0.1372088194,-0.1409856379,-0.0204537939,-8.9386520386,-3.9415040016,42.4000778198
        1.1925220490,       -0.1372088194,-0.1409856379,-0.0204537939,-10.4645309448,-3.9415040016,44.3989791870
        1.1952328682,       -0.1372088194,-0.1131536067,-0.0150827002,-10.4645309448,-3.9415040016,44.3989791870
        1.1979498863,       -0.1084002256,-0.1131536067,-0.0150827002,-11.9751510620,-4.7197022438,46.5352096558
        1.2006609440,       -0.1084002256,-0.1131536067,-0.0150827002,-11.9751510620,-4.7197022438,46.5352096558
        1.2033638954,       -0.1084002256,-0.1131536067,-0.0150827002,-11.4716110229,-5.6962647438,48.7782516479
        1.2060709000,       -0.1103533506,-0.0931340754,-0.0009225439,-11.4716110229,-5.6962647438,48.7782516479
        1.2087419033,       -0.1103533506,-0.0931340754,-0.0009225439,-9.1675338745,-7.1153321266,51.4027633667
        1.2114279270,       -0.1103533506,-0.0931340754,-0.0009225439,-9.1675338745,-7.1153321266,51.4027633667
        1.2139959335,       -0.1103533506,-0.0931340754,-0.0009225439,-5.2612838745,-8.3055181503,54.2561569214
        1.2165720463,       -0.1508806944,-0.1121770442,-0.0160592627,-5.9479293823,-8.3055181503,54.2561569214
        1.2191970348,       -0.1508806944,-0.1121770442,-0.0160592627,-5.9479293823,-8.3055181503,56.5907516479
        1.2217700481,       -0.1508806944,-0.1121770442,-0.0160592627,-3.2623825073,-8.7632818222,56.5907516479
        1.2243449688,       -0.1508806944,-0.1121770442,-0.0160592627,-3.2623825073,-8.7632818222,58.7269821167
        1.2269189358,       -0.1777361631,-0.1492864192,-0.0541452020,-0.9583054781,-8.8853521347,58.7269821167
        1.2295949459,       -0.1777361631,-0.1492864192,-0.0541452020,-0.9583054781,-8.8853521347,62.6332321167
        1.2321648598,       -0.1777361631,-0.1492864192,-0.0541452020,-0.1190720499,-9.7856206894,61.0768356323
        1.2347340584,       -0.1777361631,-0.1492864192,-0.0541452020,-0.1190720499,-9.7856206894,61.0768356323
        1.2373139858,       -0.1850603819,-0.1458684504,-0.0560983270,-0.4700241983,-10.4264898300,63.7471237183
        1.2400350571,       -0.1850603819,-0.1458684504,-0.0560983270,-0.4700241983,-10.4264898300,63.7471237183
        1.2427408695,       -0.1850603819,-0.1458684504,-0.0560983270,-1.4160691500,-10.8842535019,66.2495651245
        1.2454540730,       -0.1850603819,-0.1458684504,-0.0766061395,-1.4160691500,-10.8842535019,66.2495651245
        1.2481729984,       -0.1684588194,-0.1507512629,-0.0766061395,-4.2236862183,-10.7316656113,68.5078659058
        1.2508800030,       -0.1684588194,-0.1507512629,-0.0766061395,-4.2236862183,-10.7316656113,68.5078659058
        1.2535879612,       -0.1684588194,-0.1507512629,-0.0766061395,-9.3201217651,-10.9300298691,70.2626266479
        1.2562930584,       -0.1069353819,-0.0892278254,-0.0385202020,-9.3201217651,-10.9300298691,70.2626266479
        1.2590060234,       -0.1069353819,-0.0892278254,-0.0385202020,-14.7827682495,-11.3725347519,72.1852340698
        1.2617130280,       -0.1069353819,-0.0892278254,-0.0385202020,-14.7827682495,-11.3725347519,72.1852340698
        1.2644288540,       -0.1069353819,-0.0892278254,-0.0385202020,-19.6503219604,-13.4019536972,73.3754196167
        1.2671399117,       -0.0830096006,0.0504206121,0.0293508936,-19.6503219604,-13.4019536972,73.3754196167
        1.2697839737,       -0.0830096006,0.0504206121,0.0293508936,-22.3511276245,-16.0264644623,73.2533493042
        1.2723689079,       -0.0830096006,0.0504206121,0.0293508936,-22.3511276245,-16.0264644623,73.2533493042
        1.2750530243,       -0.0830096006,0.0504206121,0.0293508936,-21.8628463745,-17.3387203217,72.1852340698
        1.2776219845,       -0.0913103819,0.1339167058,0.0498587042,-21.8628463745,-17.3387203217,72.1852340698
        1.2802100182,       -0.0913103819,0.1339167058,0.0498587042,-17.8803024292,-16.9877681732,70.8119430542
        1.2827930450,       -0.0913103819,0.1339167058,0.0498587042,-17.8803024292,-16.9877681732,70.8119430542
        1.2853720188,       -0.0913103819,0.1339167058,0.0498587042,-12.7686080933,-16.7894039154,69.3928756714
        1.2879738808,       -0.0639666319,0.0811823308,0.0464407355,-12.7686080933,-16.7894039154,69.3928756714
        1.2906839848,       -0.0639666319,0.0811823308,0.0464407355,-8.2367477417,-16.6673336029,67.8059616089
        1.2933950424,       -0.0639666319,0.0811823308,0.0464407355,-8.2367477417,-16.6673336029,67.8059616089
        1.2962288857,       -0.0639666319,-0.0325872004,0.0015188623,-5.9479293823,-16.0722408295,66.4937057495
        1.2992639542,       -0.0185564756,-0.0325872004,0.0015188623,-5.9479293823,-16.0722408295,66.4937057495
        1.3019719124,       -0.0185564756,-0.0325872004,0.0015188623,-7.5501022339,-13.0052251816,66.5089645386
        1.3046810627,       -0.0185564756,-0.0325872004,0.0015188623,-7.5501022339,-13.0052251816,66.5089645386
        1.3073909283,        0.0165997744,-0.0877629817,0.0166555811,-12.6770553589,-10.1060552597,67.5923385620
        1.3101148605,        0.0165997744,-0.0877629817,0.0166555811,-12.6770553589,-10.1060552597,67.5923385620
        1.3128268719,        0.0165997744,-0.0877629817,0.0166555811,-21.4508590698,-9.6177740097,70.1710739136
        1.3155410290,        0.0165997744,-0.0877629817,0.0166555811,-21.4508590698,-9.6177740097,70.1710739136
        1.3183090687,       -0.0742205381,0.0587213933,0.1094290167,-30.0110397339,-11.3877935410,71.9868698120
        1.3210189342,       -0.0742205381,0.0587213933,0.1094290167,-30.0110397339,-11.3877935410,71.9868698120
        1.3237290382,       -0.0742205381,0.0587213933,0.1094290167,-33.7952194214,-13.3714361191,72.7345504761
        1.3264329433,       -0.0742205381,0.3087213933,0.1616751105,-33.7952194214,-13.3714361191,72.7345504761
        1.3290870190,       -0.2275408506,0.2091120183,0.1616751105,-30.6976852417,-15.1719732285,71.7732467651
        1.3316590786,       -0.2275408506,0.2091120183,0.1616751105,-30.6976852417,-15.1719732285,71.7732467651
        1.3342349529,       -0.2275408506,0.2091120183,0.1616751105,-21.4813766479,-14.7294683456,70.4915084839
        1.3368198872,       -0.2275408506,0.1261042058,0.0313040167,-21.4813766479,-14.7294683456,70.4915084839
        1.3395528793,       -0.2177752256,0.1261042058,0.0313040167,-9.2285690308,-12.3948736191,70.6135787964
        1.3421330452,       -0.2177752256,0.1261042058,0.0313040167,-9.2285690308,-12.3948736191,70.6135787964
        1.3447039127,       -0.2177752256,0.1261042058,0.0313040167,2.4901809692,-10.1670904160,72.0631637573
        1.3472719193,       -0.0405291319,-0.1336614192,-0.0741647333,0.9032667875,-10.1670904160,72.0631637573
        1.3499598503,       -0.0405291319,-0.1336614192,-0.0741647333,0.9032667875,-8.6869878769,74.2146530151
        1.3525290489,       -0.0405291319,-0.1336614192,-0.0741647333,4.8247756958,-8.6869878769,74.2146530151
        1.3551030159,       -0.0405291319,-0.1336614192,-0.0741647333,4.8247756958,-8.6869878769,77.8920211792
        1.3577868938,       -0.0019549131,-0.2391301692,-0.0106881689,1.1626662016,-7.7562012672,77.8920211792
        1.3605098724,       -0.0019549131,-0.2391301692,-0.0106881689,1.1626662016,-7.7562012672,82.6680221558
        1.3632230759,       -0.0019549131,-0.2391301692,-0.0106881689,-6.6498336792,-7.7409424782,82.6680221558
        1.3659219742,       -0.0019549131,-0.2391301692,-0.0106881689,-6.6498336792,-7.7409424782,87.2914352417
        1.3686649799,       -0.1503924131,-0.1253606379,0.0820852667,-15.8966598511,-8.8853521347,87.2914352417
        1.3713819981,       -0.1503924131,-0.1253606379,0.0820852667,-15.8966598511,-8.8853521347,90.4194869995
        1.3740990162,       -0.1503924131,-0.1253606379,0.0820852667,-23.2361373901,-9.8161382675,90.4194869995
        1.3768138885,       -0.1503924131,-0.0003606379,0.0918508917,-23.2361373901,-9.8161382675,91.8538131714
        1.3794529438,       -0.2177752256,-0.0345403254,0.0918508917,-27.2491989136,-9.6788091660,91.8538131714
        1.3820309639,       -0.2177752256,-0.0345403254,0.0918508917,-27.2491989136,-9.6788091660,91.8538131714
        1.3846099377,       -0.2177752256,-0.0345403254,0.0918508917,-27.5696334839,-9.2210454941,93.4102096558
        1.3871810436,       -0.2177752256,-0.0555364192,-0.0087350439,-27.5696334839,-9.2210454941,93.4102096558
        1.3898010254,       -0.0751971006,-0.0555364192,-0.0087350439,-24.0448532104,-8.7632818222,95.2412643433
        1.3923850060,       -0.0751971006,-0.0555364192,-0.0087350439,-24.0448532104,-8.7632818222,95.2412643433
        1.3949620724,       -0.0751971006,-0.0555364192,-0.0087350439,-21.5576705933,-9.2515630722,96.9502487183
        1.3975949287,        0.0498028994,-0.0770207942,-0.0590280145,-21.5576705933,-9.2515630722,96.9502487183
        1.4003040791,        0.0336896181,-0.0770207942,-0.0590280145,-23.4955368042,-10.9452886581,98.7355270386
        1.4031229019,        0.0336896181,-0.0770207942,-0.0590280145,-23.4955368042,-10.9452886581,98.7355270386
        1.4059269428,        0.0336896181,-0.0770207942,-0.0590280145,-28.4088668823,-12.3338384628,100.4750289917
        1.4086790085,        0.0239239931,0.0167292058,0.0166555811,-28.4088668823,-12.3338384628,100.4750289917
        1.4113819599,        0.0239239931,0.0167292058,0.0166555811,-34.0698776245,-13.1425542831,102.0466842651
        1.4141619205,        0.0239239931,0.0167292058,0.0166555811,-34.0698776245,-13.1425542831,102.0466842651
        1.4168639183,        0.0239239931,0.0167292058,0.0166555811,-38.1744918823,-14.7142095566,102.3823776245
        1.4206779003,        0.0224591494,0.1290338933,0.0840383917,-38.1744918823,-15.9501714706,101.1158981323
        1.4232530594,        0.0224591494,0.1290338933,0.0840383917,-38.4949264526,-15.9501714706,101.1158981323
        1.4258270264,        0.0224591494,0.1290338933,0.0840383917,-38.4949264526,-15.9501714706,99.6663131714
        1.4284789562,       -0.0742205381,0.2222956121,0.1284719855,-36.9843063354,-16.9877681732,99.6663131714
        1.4310550690,       -0.0742205381,0.2222956121,0.1284719855,-36.9843063354,-16.9877681732,95.7600631714
        1.4336309433,       -0.0742205381,0.2222956121,0.1284719855,-30.8044967651,-16.0569820404,97.2859420776
        1.4362039566,       -0.0742205381,0.2222956121,0.1284719855,-30.8044967651,-16.0569820404,97.2859420776
        1.4388308525,       -0.0922869444,0.2335260808,0.0835501105,-20.0165328979,-14.8973150253,95.7753219604
        1.4414029121,       -0.0922869444,0.2335260808,0.0835501105,-20.0165328979,-14.8973150253,95.7753219604
        1.4439740181,       -0.0922869444,0.2335260808,0.0835501105,-10.7544479370,-14.1496343613,94.2647018433
        1.4465448856,       -0.0922869444,0.2335260808,0.0835501105,-10.7544479370,-14.1496343613,94.2647018433
        1.4491279125,       -0.0996111631,0.3077448308,0.1011282355,-6.4209518433,-13.2646245956,90.9840621948
        1.4516980648,       -0.0996111631,0.3077448308,0.1011282355,-6.4209518433,-13.2646245956,90.9840621948
        1.4542710781,       -0.0996111631,0.3077448308,0.1011282355,-5.4138717651,-12.4711675644,88.0543746948
        1.4568409920,       -0.0996111631,0.3077448308,0.1011282355,-5.4138717651,-12.4711675644,88.0543746948
        1.4594368935,       -0.0649431944,0.3907526433,0.0483938605,-4.1016159058,-12.2422857285,85.5366744995
        1.4620108604,       -0.0649431944,0.3907526433,0.0483938605,-4.1016159058,-12.2422857285,85.5366744995
        1.4645829201,       -0.0649431944,0.3907526433,0.0483938605,-1.8585740328,-11.6166753769,82.3475875854
        1.4672648907,       -0.0649431944,0.3907526433,0.0483938605,-1.8585740328,-11.6166753769,82.3475875854
        1.4699459076,        0.0131818056,0.3736627996,0.0483938605,2.0476760864,-11.0978765488,79.3263473511
        1.4725229740,        0.0131818056,0.3736627996,0.0483938605,0.8880079985,-11.0978765488,79.3263473511
        1.4750959873,        0.0131818056,0.3736627996,0.0483938605,0.8880079985,-11.0978765488,76.9764938354
        1.4777450562,        0.0131818056,0.3736627996,0.0786672980,3.4667434692,-10.4417486191,76.9764938354
        1.4804620743,       -0.0380877256,0.3223932683,0.0786672980,3.4667434692,-10.2281255722,74.4130172729
        1.4831640720,       -0.0380877256,0.3223932683,0.0786672980,5.5724563599,-10.2281255722,74.4130172729
        1.4858629704,       -0.0380877256,0.3223932683,0.0786672980,5.5724563599,-10.2281255722,71.4375534058
        1.4885828495,       -0.0200213194,0.2042292058,0.0366751105,7.1593704224,-11.0673589706,71.4375534058
        1.4912879467,       -0.0200213194,0.2042292058,0.0366751105,7.1593704224,-11.0673589706,69.9116744995
        1.4939939976,       -0.0200213194,0.2042292058,0.0366751105,9.2650833130,-12.0591802597,69.9116744995
        1.4967000484,       -0.0200213194,0.2042292058,0.0366751105,9.2650833130,-12.0591802597,69.0571823120
        1.4994108677,       -0.0058611631,0.2291315496,0.0728079230,10.4552688599,-11.0521001816,69.0571823120
        1.5021219254,       -0.0058611631,0.2291315496,0.0728079230,10.4552688599,-7.1458497047,67.2261276245
        1.5048239231,       -0.0058611631,0.2291315496,0.0728079230,8.4716262817,-9.1294927597,67.2261276245
        1.5075318813,       -0.0058611631,0.2291315496,0.0728079230,8.4716262817,-9.1294927597,63.9454879761
        1.5101490021,       -0.0639666319,0.3585260808,0.0620657355,4.6569290161,-8.5191411972,63.9454879761
        1.5127198696,       -0.0639666319,0.3585260808,0.0620657355,4.6569290161,-8.5191411972,60.5885543823
        1.5152950287,       -0.0639666319,0.3585260808,0.0620657355,5.7403030396,-7.8324952126,60.5885543823
        1.5179450512,       -0.0639666319,0.3585260808,0.0415579230,5.7403030396,-7.8324952126,56.6823043823
        1.5206429958,       -0.0400408506,0.4107721746,0.0415579230,10.8367385864,-5.6962647438,56.6670455933
        1.5233428478,       -0.0400408506,0.4107721746,0.0415579230,10.8367385864,-5.6962647438,52.7607955933
        1.5260438919,       -0.0400408506,0.4107721746,0.0415579230,15.1091995239,-1.9120851755,52.0894088745
        1.5287590027,        0.0849591494,0.3443659246,0.0684133917,15.1091995239,-1.9120851755,48.1831588745
        1.5315699577,       -0.0058611631,0.3443659246,0.0684133917,15.2770462036,-0.2031008005,47.0997848511
        1.5343608856,       -0.0058611631,0.3443659246,0.0684133917,15.2770462036,-0.2031008005,39.2872848511
        1.5370600224,       -0.0058611631,0.3443659246,0.0684133917,13.2781448364,0.9413083792,43.1477584839
        1.5401680470,        0.0605450869,0.3721979558,0.0918508917,13.2781448364,0.9413083792,39.3635787964
        1.5428669453,        0.0605450869,0.3721979558,0.0918508917,11.2029495239,0.8650144339,39.3635787964
        1.5455708504,        0.0605450869,0.3721979558,0.0918508917,11.2029495239,0.8650144339,34.6943893433
        1.5482878685,        0.0605450869,0.3721979558,0.1025930792,11.5233840942,0.9413083792,34.6943893433
        1.5509910583,        0.0571271181,0.4654596746,0.1025930792,11.5233840942,0.9413083792,29.3232955933
        1.5536930561,        0.0571271181,0.4654596746,0.1025930792,12.2252883911,1.4448484182,29.3232955933
        1.5563950539,        0.0571271181,0.4654596746,0.1025930792,12.2252883911,1.4448484182,23.8148727417
        1.5590400696,        0.0571271181,0.4757135808,0.0737844855,13.4765090942,1.7500241995,23.8148727417
        1.5616128445,        0.0317364931,0.4757135808,0.0737844855,13.4765090942,1.7500241995,16.0023727417
        1.5641839504,        0.0317364931,0.4757135808,0.0737844855,16.7266311646,0.9107908010,18.1996383667
        1.5667538643,        0.0317364931,0.4757135808,0.0737844855,16.7266311646,0.9107908010,18.1996383667
        1.5693399906,        0.1088849306,0.4454401433,0.0479055792,18.1762161255,-2.2935547829,11.0890417099
        1.5719130039,        0.1088849306,0.4454401433,0.0479055792,18.1762161255,-2.2935547829,11.0890417099
        1.5744850636,        0.1088849306,0.4454401433,0.0479055792,15.4448928833,-5.9404053688,3.0629189014
        1.5770530701,        0.1088849306,0.4454401433,0.0479055792,15.4448928833,-5.9404053688,3.0629189014
        1.5796329975,        0.1074200869,0.4908502996,0.0147024561,11.4623489380,-8.5343999863,-4.4138879776
        1.5822069645,        0.1074200869,0.4908502996,0.0147024561,11.4623489380,-8.5343999863,-4.4138879776
        1.5847809315,        0.1074200869,0.4908502996,0.0147024561,7.2204055786,-11.7845220566,-12.2569055557
        1.5873520374,        0.1074200869,0.4908502996,0.0147024561,7.2204055786,-11.7845220566,-12.2569055557
        1.5900909901,        0.1621075869,0.5274714231,0.0142141748,5.6792678833,-13.7071294785,-20.6797561646
        1.5926618576,        0.1621075869,0.5274714231,0.0142141748,5.6792678833,-13.7071294785,-20.6797561646
        1.5953490734,        0.1621075869,0.5274714231,0.0142141748,7.4798049927,-14.4548101425,-27.8666458130
        1.5980339050,        0.1621075869,0.5274714231,0.0142141748,7.4798049927,-14.4548101425,-27.8666458130
        1.6007559299,        0.1206036806,0.5011042356,0.0396047980,9.8143997192,-15.2024908066,-35.4960403442
        1.6034619808,        0.1206036806,0.5011042356,0.0396047980,9.8143997192,-15.2024908066,-35.4960403442
        1.6061730385,        0.1206036806,0.5011042356,0.0396047980,11.9658889771,-15.4008550644,-43.3085403442
        1.6088340282,        0.1206036806,0.5011042356,0.0562063605,11.9658889771,-15.4008550644,-43.3085403442
        1.6114089489,       -0.0029314756,0.4815729558,0.0562063605,11.9658889771,-15.1414556503,-49.8545608521
        1.6139829159,       -0.0029314756,0.4815729558,0.0562063605,14.5751419067,-15.1414556503,-49.8545608521
        1.6165580750,       -0.0029314756,0.4815729558,0.0562063605,14.5751419067,-15.1414556503,-55.5155715942
        1.6192200184,       -0.0029314756,0.4815729558,0.0781790167,18.8018264771,-14.5768804550,-55.5155715942
        1.6219289303,       -0.0917986631,0.4859674871,0.0781790167,18.8018264771,-10.6706304550,-61.7564163208
        1.6246409416,       -0.0917986631,0.4859674871,0.0781790167,26.5075149536,-12.9899663925,-61.7564163208
        1.6273469925,       -0.0917986631,0.4859674871,0.0781790167,26.5075149536,-9.0837163925,-69.4621047974
        1.6300940514,       -0.1738299131,0.5001276731,0.1655813605,35.9527053833,-9.2820806503,-69.4621047974
        1.6328029633,       -0.1738299131,0.5001276731,0.1655813605,35.9527053833,-5.3758301735,-76.9846878052
        1.6355068684,       -0.1738299131,0.5001276731,0.1655813605,46.8627395630,-5.7725586891,-76.9846878052
        1.6382188797,       -0.1738299131,0.5001276731,0.1655813605,46.8627395630,-5.7725586891,-83.5307083130
        1.6409230232,       -0.1840838194,0.4161432683,0.2456594855,58.5814895630,-2.4156250954,-83.5307083130
        1.6436269283,       -0.1840838194,0.4161432683,0.2456594855,58.5814895630,1.4906247854,-89.1154251099
        1.6463320255,       -0.1840838194,0.4161432683,0.2456594855,67.7367630005,0.5293210745,-89.1154251099
        1.6490838528,       -0.1840838194,0.4161432683,0.2456594855,67.7367630005,4.4355711937,-94.9595413208
        1.6517839432,       -0.2094744444,0.4278620183,0.2349172980,73.5503616333,2.6808104515,-94.9595413208
        1.6545848846,       -0.2094744444,0.4278620183,0.2349172980,73.5503616333,2.6808104515,-104.6336135864
        1.6577298641,       -0.2094744444,0.4278620183,0.2349172980,76.1443557739,3.9930663109,-104.6336135864
        1.6604230404,       -0.2519549131,0.5001276731,0.2739798129,76.1443557739,6.1445555687,-115.3910598755
        1.6630020142,       -0.2519549131,0.5001276731,0.2739798129,75.3356399536,6.1445555687,-115.3910598755
        1.6655759811,       -0.2519549131,0.5001276731,0.2739798129,75.3356399536,10.0508050919,-124.8667678833
        1.6681809425,       -0.2519549131,0.5001276731,0.2739798129,70.7732620239,9.8371820450,-124.8667678833
        1.6708860397,       -0.3388689756,0.5382136106,0.2192922980,70.7732620239,13.7434320450,-135.1206817627
        1.6735939980,       -0.3388689756,0.5382136106,0.2192922980,66.8975296021,15.1319818497,-135.1206817627
        1.6762959957,       -0.3388689756,0.5382136106,0.2192922980,66.8975296021,19.0382328033,-147.4040069580
        1.6790049076,       -0.3388689756,0.5382136106,0.2192922980,63.9525833130,20.8235111237,-147.4040069580
        1.6817140579,       -0.4838885069,0.6637018919,0.3013235629,63.9525833130,28.6360111237,-159.3211212158
        1.6844239235,       -0.4838885069,0.6637018919,0.3013235629,59.5275344849,27.0033206940,-159.3211212158
        1.6871290207,       -0.4838885069,0.6637018919,0.3013235629,59.5275344849,30.9095706940,-168.9951934814
        1.6897718906,       -0.4838885069,0.6637018919,0.3247610629,60.8092727661,31.1079349518,-168.9951934814
        1.6923489571,       -0.9262713194,0.8658503294,0.3247610629,60.8092727661,31.1079349518,-180.1188507080
        1.6949238777,       -0.9262713194,0.8658503294,0.3247610629,66.1651077271,33.2746810913,-180.1188507080
        1.6974999905,       -0.9262713194,0.8658503294,0.3247610629,66.1651077271,33.2746810913,-180.1188507080
        1.7000799179,       -0.9262713194,0.4908502996,0.0396047980,73.3214797974,37.5318832397,-195.1792755127
        1.7026598454,       -1.8090838194,0.5020807981,0.0396047980,73.3214797974,37.5318832397,-195.1792755127
        1.7052359581,       -1.8090838194,0.5020807981,0.0396047980,81.5917434692,40.4920883179,-207.6304473877
        1.7079830170,       -1.8090838194,0.5020807981,0.0396047980,81.5917434692,40.4920883179,-207.6304473877
        1.7105560303,       -2.0590839386,-0.0213567317,0.0317922980,84.7503128052,39.4697494507,-215.2445831299
        1.7132859230,       -2.1508808136,-0.0213567317,0.0317922980,84.7503128052,39.4697494507,-215.2445831299
        1.7158679962,       -2.1508808136,-0.0213567317,0.0317922980,81.0119094849,34.1291732788,-220.7682647705
        1.7187149525,       -2.1508808136,-0.0213567317,0.0317922980,81.0119094849,34.1291732788,-220.7682647705
        1.7212879658,       -2.0839862823,-0.5057317019,0.0527883917,75.6102981567,24.5619144440,-226.3682403564
        1.7239720821,       -2.0839862823,-0.5057317019,0.0527883917,75.6102981567,24.5619144440,-226.3682403564
        1.7265429497,       -2.0839862823,-0.5057317019,0.0527883917,73.0620803833,12.1412591934,-237.5987091064
        1.7292418480,       -2.0839862823,-0.5057317019,0.0527883917,73.0620803833,12.1412591934,-237.5987091064
        1.7318098545,       -1.9765642881,-0.9378606081,0.1108938605,70.1629104614,11.8971185684,-257.6945190430
        1.7347040176,       -1.9765642881,-0.9378606081,0.1108938605,70.1629104614,11.8971185684,-257.6945190430
        1.7372798920,       -1.9765642881,-0.9378606081,0.1108938605,69.6441116333,24.9281253815,-286.4115600586
        1.7398579121,       -1.9765642881,-0.9378606081,-0.0141061377,69.6441116333,24.9281253815,-286.4115600586
        1.7424330711,       -0.5620135069,-0.8719426394,0.0264212061,65.8904495239,29.5362796783,-301.6550903320
        1.7450048923,       -0.5620135069,-0.8719426394,0.0264212061,65.8904495239,29.5362796783,-301.6550903320
        1.7476098537,       -0.5620135069,-0.8719426394,0.0264212061,46.3286819458,24.1651859283,-291.5537719727
        1.7501850128,       -0.5620135069,-0.8719426394,0.1362844855,46.3286819458,24.1651859283,-291.5537719727
        1.7527539730,       -0.0229510069,-0.1795598567,0.1362844855,46.3286819458,22.5935306549,-269.3674926758
        1.7553269863,       -0.0229510069,-0.1795598567,0.1362844855,17.4895706177,22.5935306549,-269.3674926758
        1.7579128742,       -0.0229510069,-0.1795598567,0.1362844855,17.4895706177,22.5935306549,-244.1294708252
        1.7604858875,       -0.0229510069,0.5704401731,0.1338430792,0.8117140532,29.5057621002,-244.1294708252
        1.7630569935,       -0.2729510069,0.6412409544,0.1338430792,0.8117140532,29.5057621002,-208.9732208252
        1.7656269073,       -0.2729510069,0.6412409544,0.1338430792,-1.1871873140,38.7373275757,-208.9732208252
        1.7682819366,       -0.2729510069,0.6412409544,0.1338430792,-1.1871873140,38.7373275757,-208.9732208252
        1.7708580494,       -0.2729510069,1.4415339231,0.4580618441,4.5043411255,41.6059799194,-162.1745147705
        1.7734260559,       -0.4628924131,1.4415339231,0.4580618441,4.5043411255,41.6059799194,-162.1745147705
        1.7759928703,       -0.4628924131,1.4415339231,0.4580618441,10.2111282349,38.8441390991,-115.7114944458
        1.7787408829,       -0.4628924131,1.4415339231,0.4580618441,10.2111282349,38.8441390991,-115.7114944458
        1.7813129425,        0.1621075869,1.0474909544,0.5606008768,22.1587600708,25.7368412018,-80.1432571411
        1.7838890553,        0.1865216494,1.0474909544,0.5606008768,22.1587600708,25.7368412018,-80.1432571411
        1.7864639759,        0.1865216494,1.0474909544,0.5606008768,20.9838333130,-1.0270754099,-45.5820999146
        1.7892658710,        0.1865216494,1.0474909544,0.5606008768,20.9838333130,-1.0270754099,-45.5820999146
        1.7918410301,        0.5903302431,0.3404596746,0.4053274691,-7.0007858276,-22.1910152435,-8.4422082901
        1.7944068909,        0.5903302431,0.3404596746,0.4053274691,-7.0007858276,-22.1910152435,-8.4422082901
        1.7969720364,        0.5903302431,0.3404596746,0.4053274691,-24.4873580933,-34.1081314087,16.0481491089
        1.7995879650,        0.5903302431,0.3404596746,0.4053274691,-24.4873580933,-34.1081314087,16.0481491089
        1.8021619320,        0.2470685244,0.0367487371,-0.0487741083,-23.2666549683,-34.1844253540,38.0513229370
        1.8047389984,        0.2470685244,0.0367487371,-0.0487741083,-23.2666549683,-34.1844253540,38.0513229370
        1.8073089123,        0.2470685244,0.0367487371,-0.0487741083,-27.1729049683,-30.9495601654,64.0980758667
        1.8100140095,        0.2470685244,0.0367487371,-0.0487741083,-28.1189498901,-30.9495601654,64.0980758667
        1.8127279282,        0.0571271181,0.1212213933,-0.2020944208,-32.0251998901,-26.3871822357,82.7748336792
        1.8154590130,        0.0571271181,0.1212213933,-0.2020944208,-32.5439987183,-26.3871822357,82.7748336792
        1.8182258606,        0.0571271181,0.1212213933,-0.2020944208,-32.5439987183,-23.3506832123,93.7459030151
        1.8209040165,        0.0571271181,0.1212213933,-0.1332467645,-32.0557174683,-23.3506832123,93.7459030151
        1.8237080574,        0.2211896181,0.1749323308,-0.1332467645,-24.2432174683,-25.6547603607,100.3376998901
        1.8263189793,        0.2211896181,0.1749323308,-0.1332467645,-25.7996139526,-25.6547603607,100.3376998901
        1.8289780617,        0.2211896181,0.1749323308,-0.1332467645,-25.7996139526,-29.9729976654,103.3436813354
        1.8315529823,        0.2211896181,0.0675104558,-0.1151803583,-14.2487106323,-29.9729976654,103.3436813354
        1.8341329098,        0.3564435244,0.0675104558,-0.1151803583,-14.2487106323,-29.9729976654,103.3131637573
        1.8367009163,        0.3564435244,0.0675104558,-0.1151803583,-2.4536666870,-33.8639907837,103.3131637573
        1.8392870426,        0.3564435244,0.0675104558,-0.1151803583,-2.4536666870,-33.8639907837,102.8096237183
        1.8418600559,        0.3564435244,-0.1019231379,-0.1713327020,7.8612747192,-35.7865982056,102.8096237183
        1.8444280624,        0.3959943056,-0.1019231379,-0.1713327020,7.8612747192,-35.7865982056,102.8096237183
        1.8469960690,        0.3959943056,-0.1019231379,-0.1713327020,16.1620559692,-37.0378189087,101.2227096558
        1.8496098518,        0.3959943056,-0.1019231379,-0.1713327020,16.1620559692,-37.0378189087,101.2227096558
        1.8522930145,        0.4179669619,-0.2313176692,-0.1854928583,21.1059036255,-37.5871353149,99.2238082886
        1.8548700809,        0.4179669619,-0.2313176692,-0.1854928583,21.1059036255,-37.5871353149,99.2238082886
        1.8574409485,        0.4179669619,-0.2313176692,-0.1854928583,23.2573928833,-37.4955825806,97.0112838745
        1.8601448536,        0.4179669619,-0.2313176692,-0.1854928583,23.2573928833,-37.4955825806,97.0112838745
        1.8627228737,        0.4511700869,-0.3319036067,-0.1732858270,21.8383255005,-35.9697036743,94.2036666870
        1.8652949333,        0.4511700869,-0.3319036067,-0.1732858270,21.8383255005,-35.9697036743,94.2036666870
        1.8680169582,        0.4511700869,-0.3319036067,-0.1732858270,18.5729446411,-34.0165786743,91.2587203979
        1.8705940247,        0.4511700869,-0.3319036067,-0.1732858270,18.5729446411,-34.0165786743,91.2587203979
        1.8731698990,        0.4995099306,-0.4915715754,-0.1732858270,14.8345413208,-32.0329360962,86.6200485229
        1.8757469654,        0.4995099306,-0.4915715754,-0.1732858270,14.8345413208,-32.0329360962,86.6200485229
        1.8784430027,        0.4995099306,-0.4915715754,-0.1732858270,10.8672561646,-30.1255855560,80.4554977417
        1.8811378479,        0.4995099306,-0.4915715754,-0.1732858270,10.8672561646,-30.1255855560,80.4554977417
        1.8838310242,        0.5214825869,-0.6683293581,-0.2299264520,7.5866165161,-28.6607418060,72.7040328979
        1.8865189552,        0.5214825869,-0.6683293581,-0.2299264520,7.5866165161,-28.6607418060,72.7040328979
        1.8892149925,        0.5214825869,-0.6683293581,-0.2299264520,4.7942581177,-25.2427730560,63.0909957886
        1.8919029236,        0.5214825869,-0.7933293581,-0.3261178434,4.7942581177,-25.2427730560,63.0909957886
        1.8945889473,        0.5097638369,-0.7742863894,-0.3261178434,0.9643019438,-19.6275386810,53.2795944214
        1.8972768784,        0.5097638369,-0.7742863894,-0.3261178434,0.9643019438,-19.6275386810,53.2795944214
        1.8999760151,        0.5097638369,-0.7742863894,-0.3261178434,-3.3386764526,-14.2717046738,43.3766403198
        1.9026598930,        0.5776349306,-0.7215520144,-0.3656686246,-3.3386764526,-14.2717046738,43.3766403198
        1.9053459167,        0.5776349306,-0.7215520144,-0.3656686246,-7.2449264526,-9.9687261581,32.2377243042
        1.9080839157,        0.5776349306,-0.7215520144,-0.3656686246,-7.0007858276,-9.9687261581,32.2377243042
        1.9107940197,        0.5776349306,-0.7215520144,-0.3656686246,-7.3212203979,-6.9474854469,20.9462203979
        1.9134979248,        0.6533185244,-0.5755559206,-0.3593209684,-7.3212203979,-6.9474854469,20.9462203979
        1.9163229465,        0.6533185244,-0.5755559206,-0.3593209684,-5.6580123901,-4.8265137672,8.6628942490
        1.9190709591,        0.6533185244,-0.5755559206,-0.3593209684,-5.6580123901,-4.8265137672,8.6628942490
        1.9217660427,        0.6533185244,-0.5755559206,-0.3065865934,-1.4618455172,-1.8663088083,-2.7811973095
        1.9244608879,        0.6762677431,-0.4080754817,-0.3065865934,-1.4618455172,-1.8663088083,-2.7811973095
        1.9271590710,        0.6762677431,-0.4080754817,-0.3065865934,5.6182327271,-0.0352541208,-13.8133020401
        1.9298710823,        0.6762677431,-0.4080754817,-0.3065865934,5.6182327271,-0.0352541208,-13.8133020401
        1.9325699806,        0.6762677431,-0.3021184504,-0.2279733270,12.9882278442,2.0704588890,-23.3958206177
        1.9353599548,        0.6455060244,-0.3021184504,-0.2279733270,12.9882278442,2.0704588890,-23.3958206177
        1.9384908676,        0.6455060244,-0.3021184504,-0.2279733270,19.0764846802,4.3440184593,-31.2388381958
        1.9412000179,        0.6455060244,-0.3021184504,-0.2279733270,19.0764846802,4.3440184593,-31.2388381958
        1.9438989162,        0.5751935244,-0.2528020442,-0.1825631708,24.2492141724,6.8769774437,-37.7390823364
        1.9466030598,        0.5751935244,-0.2528020442,-0.1825631708,24.2492141724,6.8769774437,-37.7390823364
        1.9492449760,        0.5751935244,-0.2528020442,-0.1825631708,26.9500198364,9.7761468887,-41.9047317505
        1.9518220425,        0.5751935244,-0.2528020442,-0.1825631708,26.9500198364,9.7761468887,-41.9047317505
        1.9543960094,        0.5146466494,-0.2298528254,-0.1488717645,26.9500198364,10.9510736465,-44.2698440552
        1.9569699764,        0.5146466494,-0.2298528254,-0.1488717645,26.0802688599,10.9510736465,-44.2698440552
        1.9597120285,        0.5146466494,-0.2298528254,-0.1488717645,22.1740188599,10.8290033340,-45.9635696411
        1.9624118805,        0.5146466494,-0.2298528254,-0.1268991083,22.3418655396,10.8290033340,-45.9635696411
        1.9651138783,        0.4882794619,-0.2366887629,-0.1268991083,18.4356155396,10.8595209122,-46.9553909302
        1.9678609371,        0.4882794619,-0.2366887629,-0.1268991083,18.5271682739,10.8595209122,-46.9553909302
        1.9704349041,        0.4882794619,-0.2366887629,-0.1268991083,18.5271682739,11.5461664200,-47.9166946411
        1.9730129242,        0.4882794619,-0.2420598567,-0.1146920770,15.3685989380,11.5461664200,-47.9166946411
        1.9755899906,        0.4663068056,-0.2420598567,-0.1146920770,15.3685989380,11.5461664200,-48.9237747192
        1.9781708717,        0.4663068056,-0.2420598567,-0.1146920770,12.3626174927,11.6224603653,-48.9237747192
        1.9808549881,        0.4663068056,-0.2420598567,-0.1146920770,12.3626174927,11.6224603653,-48.9848098755
        1.9834289551,        0.4663068056,-0.2601262629,-0.1283639520,9.6160354614,11.6072015762,-48.9848098755
        1.9860038757,        0.4663068056,-0.2601262629,-0.1283639520,9.6160354614,11.6072015762,-48.9848098755
        1.9887409210,        0.4663068056,-0.2601262629,-0.1283639520,6.2591018677,12.0039300919,-48.9390335083
        1.9913170338,        0.4663068056,-0.2601262629,-0.1283639520,6.2591018677,12.0039300919,-48.9390335083
        1.9938919544,        0.4780255556,-0.2781926692,-0.1513131708,3.2073440552,13.0567865372,-49.3052444458
        1.9964690208,        0.4780255556,-0.2781926692,-0.1513131708,3.2073440552,13.0567865372,-49.3052444458
        1.9991550446,        0.4780255556,-0.2781926692,-0.1513131708,0.4607619345,14.5216302872,-49.3510208130
        2.0017268658,        0.4780255556,-0.2781926692,-0.1513131708,0.4607619345,14.5216302872,-49.3510208130
        2.0042989254,        0.4726544619,-0.3045598567,-0.1698678583,-1.9501267672,16.1390628815,-49.6104202271
        2.0068769455,        0.4726544619,-0.3045598567,-0.1698678583,-1.9501267672,16.1390628815,-49.6104202271
        2.0095539093,        0.4726544619,-0.3045598567,-0.1698678583,-4.2236862183,18.0616703033,-50.0224075317
        2.0122408867,        0.4726544619,-0.3045598567,-0.1698678583,-4.2236862183,18.0616703033,-50.0224075317
        2.0149290562,        0.4736310244,-0.2947942317,-0.1664498895,-6.7108688354,19.5570316315,-50.6632766724
        2.0176260471,        0.4736310244,-0.2947942317,-0.1664498895,-6.7108688354,19.5570316315,-50.6632766724
        2.0203158855,        0.4736310244,-0.2947942317,-0.1664498895,-9.1827926636,20.3810062408,-50.7548294067
        2.0230069160,        0.4736310244,-0.2947942317,-0.1351998895,-9.1827926636,20.3810062408,-50.7548294067
        2.0256960392,        0.4887677431,-0.2508489192,-0.1351998895,-11.6394577026,20.9150638580,-51.1210403442
        2.0283949375,        0.4887677431,-0.2508489192,-0.1351998895,-11.6394577026,20.9150638580,-51.1210403442
        2.0310940742,        0.4887677431,-0.2508489192,-0.1351998895,-12.8754196167,21.1286869049,-51.5330276489
        2.0337879658,        0.5253888369,-0.1820012629,-0.0897897333,-12.8754196167,21.1286869049,-51.5330276489
        2.0364849567,        0.5253888369,-0.1820012629,-0.0897897333,-12.6923141479,20.5488529205,-51.9297561646
        2.0391728878,        0.5253888369,-0.1820012629,-0.0897897333,-12.6923141479,20.5488529205,-51.9297561646
        2.0418419838,        0.5253888369,-0.1820012629,-0.0897897333,-11.6852340698,20.2131595612,-52.9368362427
        2.0446219444,        0.5200177431,-0.1131536067,-0.0648873895,-11.6852340698,20.2131595612,-52.9368362427
        2.0472910404,        0.5200177431,-0.1131536067,-0.0648873895,-10.3729782104,20.0300540924,-53.7913284302
        2.0500490665,        0.5200177431,-0.1131536067,-0.0648873895,-10.3729782104,20.0300540924,-53.7913284302
        2.0526309013,        0.5200177431,-0.1131536067,-0.0648873895,-8.8013229370,20.1368656158,-54.2185745239
        2.0555000305,        0.5126935244,-0.1028997004,-0.0609811395,-8.8013229370,20.1368656158,-54.2185745239
        2.0583300591,        0.5126935244,-0.1028997004,-0.0609811395,-7.3364791870,20.1826419830,-54.3559036255
        2.0610518456,        0.5126935244,-0.1028997004,-0.0609811395,-7.3364791870,20.1826419830,-54.3559036255
        2.0637550354,        0.5126935244,-0.1248723567,-0.0526803583,-6.7413864136,20.4878177643,-53.9896926880
        2.0664620399,        0.5122052431,-0.1248723567,-0.0526803583,-6.7413864136,20.4878177643,-53.9896926880
        2.0691790581,        0.5122052431,-0.1248723567,-0.0526803583,-8.2672653198,20.5030765533,-53.1657180786
        2.0718820095,        0.5122052431,-0.1248723567,-0.0526803583,-8.2672653198,20.5030765533,-53.1657180786
        2.0745909214,        0.5249005556,-0.1473332942,-0.0360787958,-10.1593551636,20.7929935455,-52.4943313599
        2.0772979259,        0.5249005556,-0.1473332942,-0.0360787958,-10.1593551636,20.7929935455,-52.4943313599
        2.0800139904,        0.5249005556,-0.1473332942,-0.0360787958,-11.6394577026,20.8235111237,-51.1210403442
        2.0827238560,        0.5249005556,-0.1473332942,-0.0360787958,-11.6394577026,20.8235111237,-51.1210403442
        2.0854320526,        0.5336896181,-0.1546575129,0.0024954248,-13.1348190308,20.3962650299,-49.0763626099
        2.0881369114,        0.5336896181,-0.1546575129,0.0024954248,-13.1348190308,20.3962650299,-49.0763626099
        2.0907158852,        0.5336896181,-0.1546575129,0.0024954248,-11.6852340698,20.0147953033,-46.3450393677
        2.0932848454,        0.5336896181,-0.1546575129,-0.1225045770,-11.6852340698,20.0147953033,-46.3450393677
        2.0958628654,        0.5136700869,-0.1419622004,-0.0272897314,-3.8727340698,20.4115238190,-43.6289749146
        2.0984828472,        0.5136700869,-0.1419622004,-0.0272897314,-7.2296676636,20.4115238190,-43.6289749146
        2.1010580063,        0.5136700869,-0.1419622004,-0.0272897314,-7.2296676636,21.6322269440,-41.1723098755
        2.1036279202,        0.5136700869,-0.1419622004,-0.1571725458,-2.3621139526,21.6322269440,-41.1723098755
        2.1062049866,        0.4702130556,-0.1058293879,-0.1571725458,-2.3621139526,21.6322269440,-38.4867630005
        2.1090629101,        0.4702130556,-0.1058293879,-0.1571725458,2.5206985474,22.8376712799,-38.4867630005
        2.1116399765,        0.4702130556,-0.1058293879,-0.1571725458,2.5206985474,22.8376712799,-35.2213821411
        2.1142170429,        0.4702130556,-0.1063176692,-0.1972116083,5.5419387817,23.9057865143,-35.2213821411
        2.1167988777,        0.4521466494,-0.1063176692,-0.1972116083,5.5419387817,23.9057865143,-32.5358352661
        2.1195938587,        0.4521466494,-0.1063176692,-0.1972116083,7.2051467896,24.2719974518,-32.5358352661
        2.1222829819,        0.4521466494,-0.1063176692,-0.1972116083,7.2051467896,24.2719974518,-29.8350296021
        2.1249659061,        0.4858380556,-0.1009465754,-0.1581491083,8.0443801880,24.6382083893,-29.8350296021
        2.1276650429,        0.4858380556,-0.1009465754,-0.1581491083,8.0443801880,24.6382083893,-25.9287796021
        2.1303489208,        0.4858380556,-0.1009465754,-0.1581491083,8.3800735474,23.1428470612,-25.6083450317
        2.1330389977,        0.4858380556,-0.1009465754,-0.1581491083,8.3800735474,23.1428470612,-21.7020950317
        2.1357290745,        0.5063458681,-0.0477239192,-0.0663522333,8.0291213989,20.9150638580,-20.2677688599
        2.1384649277,        0.5063458681,-0.0477239192,-0.0663522333,8.0291213989,20.9150638580,-12.4552698135
        2.1411340237,        0.5063458681,-0.0477239192,-0.0663522333,7.1746292114,18.2447757721,-13.9658899307
        2.1438019276,        0.5063458681,-0.0477239192,-0.3163522184,7.1746292114,18.2447757721,-13.9658899307
        2.1464638710,        0.1542950869,0.4976862371,-0.2826608121,14.3004837036,20.8540287018,-7.0994348526
        2.1490819454,        0.1542950869,0.4976862371,-0.2826608121,14.3004837036,20.8540287018,-7.0994348526
        2.1516590118,        0.1542950869,0.4976862371,-0.2826608121,30.2306594849,49.9220199585,24.0132369995
        2.1542348862,        0.1542950869,0.4976862371,-0.0604928583,30.2306594849,49.9220199585,24.0132369995
        2.1568150520,       -0.3735369444,5.6055965424,-0.0604928583,4.2754592896,36.0517807007,105.4036178589
        2.1595399380,       -0.3735369444,5.6055965424,-0.0604928583,4.2754592896,36.0517807007,105.4036178589
        2.1622469425,       -0.3735369444,5.6055965424,-0.0604928583,-80.1971969604,-0.7218996286,240.6575164795
        2.1649529934,       -1.6235369444,8.6637020111,1.7500540018,-80.1971969604,-0.7218996286,240.6575164795
        2.1676650047,       -1.5444353819,8.6637020111,1.7500540018,-109.8602828979,-24.0373287201,414.4093627930
        2.1703689098,       -1.5444353819,8.6637020111,1.7500540018,-109.8602828979,-24.0373287201,414.4093627930
        2.1731810570,       -1.5444353819,8.6637020111,1.7500540018,-180.2796020508,25.3401126862,469.2799682617
        2.1760709286,       -2.3774433136,-4.3612003326,0.2676321566,-180.2796020508,25.3401126862,324.7487182617
        2.1791899204,       -2.3774433136,-4.3612003326,0.2676321566,-164.2883911133,-17.8117427826,325.5574340820
        2.1818959713,       -2.3774433136,-4.3612003326,0.2676321566,-164.2883911133,-17.8117427826,181.0261688232
        2.1846020222,       -2.3774433136,-5.4862003326,-0.7890084982,15.7500686646,-70.4240493774,181.7585906982
        2.1873149872,       -1.5625017881,-5.5067081451,-0.7890084982,15.7500686646,-70.4240493774,181.7585906982
        2.1900320053,       -1.5625017881,-5.5067081451,-0.7890084982,-31.9946823120,-46.0710220337,156.3832244873
        2.1927430630,       -1.5625017881,-5.5067081451,-0.7890084982,-31.9946823120,-46.0710220337,156.3832244873
        2.1954569817,       -0.8051775694,-0.9627629519,1.5342336893,53.7139358521,-48.4819107056,130.2296600342
        2.1981580257,       -0.8051775694,-0.9627629519,1.5342336893,53.7139358521,-48.4819107056,130.2296600342
        2.2007329464,       -0.8051775694,-0.9627629519,1.5342336893,14.4683303833,-64.2747573853,122.5087203979
        2.2033090591,       -0.8051775694,-0.9627629519,1.5342336893,14.4683303833,-64.2747573853,122.5087203979
        2.2058820724,       -2.1562519073,1.2301081419,-0.3935006559,-126.1566696167,-52.8459243774,139.0492401123
        2.2084889412,       -2.1562519073,1.2301081419,-0.3935006559,-126.1566696167,-52.8459243774,139.0492401123
        2.2110629082,       -2.1562519073,1.2301081419,-0.3935006559,-126.0803756714,-25.0749263763,144.1456756592
        2.2136390209,       -2.1562519073,1.2301081419,-0.3935006559,-126.0803756714,-25.0749263763,144.1456756592
        2.2162139416,       -1.1420916319,-0.0125676692,-0.1254342645,-80.8991012573,-1.7594972849,132.1980438232
        2.2188420296,       -1.1420916319,-0.0125676692,-0.1254342645,-80.8991012573,-1.7594972849,132.1980438232
        2.2214138508,       -1.1420916319,-0.0125676692,-0.1254342645,-72.5830612183,6.6938719749,105.7850875854
        2.2239859104,       -1.1420916319,-0.0125676692,-0.1254342645,-72.5830612183,6.6938719749,105.7850875854
        2.2265629768,        0.4956036806,0.9820612669,0.9478079081,-77.1912155151,-3.2090821266,87.4287643433
        2.2291860580,        0.4956036806,0.9820612669,0.9478079081,-77.1912155151,-3.2090821266,87.4287643433
        2.2317590714,        0.4956036806,0.9820612669,0.9478079081,-77.1912155151,-25.9446773529,104.9305953979
        2.2343409061,        0.4956036806,0.9820612669,0.9478079081,-68.9972457886,-25.9446773529,104.9305953979
        2.2370259762,       -3.5415058136,0.1773737371,-0.0770944208,-68.9972457886,-49.6568374634,120.4487838745
        2.2398290634,       -3.5415058136,0.1773737371,-0.0770944208,-40.5243453979,-49.6568374634,120.4487838745
        2.2425389290,       -3.5415058136,0.1773737371,-0.0770944208,-40.5243453979,-23.7779293060,91.0450973511
        2.2452468872,       -3.5415058136,-1.5726262331,-1.2186959982,-0.1190720499,-23.7779293060,91.0450973511
        2.2479529381,       -4.1982440948,-1.6863957644,-1.2186959982,-0.1190720499,23.0970706940,108.5927047729
        2.2505269051,       -4.1982440948,-1.6863957644,-1.2186959982,10.7451858521,22.9750003815,108.5927047729
        2.2531030178,       -4.1982440948,-1.6863957644,-1.2186959982,10.7451858521,22.9750003815,126.1555709839
        2.2556819916,       -4.1982440948,0.2926081121,-0.6010202169,-67.0136032104,29.5057621002,126.1555709839
        2.2583260536,       -0.0966814756,0.2926081121,-0.6010202169,-67.0136032104,29.5057621002,101.1464157104
        2.2610340118,       -0.0966814756,0.2926081121,-0.6010202169,-142.6361694336,25.2790775299,101.1464157104
        2.2637410164,       -0.0966814756,0.2926081121,-0.6010202169,-142.6361694336,25.2790775299,67.6533737183
        2.2664489746,        0.9267560244,1.4508112669,0.1401907355,-171.3684692383,21.4033451080,67.6533737183
        2.2691760063,        0.9267560244,1.4508112669,0.1401907355,-171.3684692383,21.4033451080,43.0104293823
        2.2718858719,        0.9267560244,1.4508112669,0.1401907355,-151.8524780273,14.4300775528,43.0104293823
        2.2745978832,        0.9267560244,1.4508112669,0.1401907355,-151.8524780273,14.4300775528,23.4791793823
        2.2773060799,        1.6386700869,1.5826472044,0.8652883768,-110.4401168823,3.6878905296,21.3887252808
        2.2800140381,        1.6386700869,1.5826472044,0.8652883768,-110.4401168823,3.6878905296,-5.9550256729
        2.2827138901,        1.6386700869,1.5826472044,0.8652883768,-48.9624557495,-8.5496587753,-5.7566614151
        2.2854170799,        1.6386700869,1.5826472044,0.6221243143,-48.9624557495,-8.5496587753,-37.0066604614
        2.2881350517,        1.3247052431,1.0020807981,0.6221243143,17.5048294067,-18.1474361420,-36.3352737427
        2.2908389568,        1.3247052431,1.0020807981,0.6221243143,17.5048294067,-18.1474361420,-59.7727737427
        2.2935509682,        1.3247052431,1.0020807981,0.6221243143,64.7460403442,-22.0231685638,-58.5215530396
        2.2963590622,       -0.1157244444,0.7305964231,-0.0023873877,64.7460403442,-22.0231685638,-74.7263870239
        2.2992229462,       -0.1157244444,0.7305964231,-0.0023873877,86.1083450317,-22.3893795013,-74.7263870239
        2.3019089699,       -0.1157244444,0.7305964231,-0.0023873877,86.1083450317,-22.3893795013,-86.4451370239
        2.3044888973,       -0.1157244444,0.7305964231,-0.0023873877,87.4053421021,-21.4433345795,-85.7737503052
        2.3070669174,       -0.9702166319,0.2330377996,-0.3646920621,87.4053421021,-21.4433345795,-85.7737503052
        2.3097710609,       -0.9702166319,0.2330377996,-0.3646920621,76.6326370239,-17.9032955170,-89.4663772583
        2.3124818802,       -0.9702166319,0.2330377996,-0.3646920621,76.6326370239,-17.9032955170,-89.4663772583
        2.3151900768,       -0.9702166319,0.2330377996,-0.3646920621,57.1166458130,-10.4264898300,-86.5672073364
        2.3179130554,       -0.7343767881,0.0216120183,-0.2914498746,57.1166458130,-10.4264898300,-86.5672073364
        2.3206188679,       -0.7343767881,0.0216120183,-0.2914498746,32.6110305786,-2.0188965797,-81.8522415161
        2.3233208656,       -0.7343767881,0.0216120183,-0.2914498746,32.6110305786,-2.0188965797,-81.8522415161
        2.3260250092,       -0.7343767881,0.1466120183,0.0278860498,9.2193069458,4.0388426781,-80.3873977661
        2.3286929131,       -0.1674822569,0.1480768621,0.0278860498,9.2193069458,4.0388426781,-80.3873977661
        2.3312630653,       -0.1674822569,0.1480768621,0.0278860498,-7.2601852417,6.8922362328,-83.6985549927
        2.3338298798,       -0.1674822569,0.1480768621,0.0278860498,-7.2601852417,6.8922362328,-83.6985549927
        2.3363969326,       -0.1674822569,0.1895807683,0.2383352667,-15.2252731323,9.5167474747,-87.6505813599
        2.3390228748,        0.0546857119,0.1895807683,0.2383352667,-15.2252731323,9.5167474747,-87.6505813599
        2.3415999413,        0.0546857119,0.1895807683,0.2383352667,-15.6525192261,12.2633295059,-89.4206008911
        2.3441810608,        0.0546857119,0.1895807683,0.2383352667,-15.6525192261,12.2633295059,-89.4206008911
        2.3467578888,        0.0546857119,0.2115534246,0.2871634066,-10.8460006714,14.4148187637,-90.8854446411
        2.3495099545,        0.0498028994,0.2115534246,0.2871634066,-10.8460006714,14.4148187637,-90.8854446411
        2.3520870209,        0.0498028994,0.2115534246,0.2871634066,-2.8046188354,16.3374271393,-92.8690872192
        2.3546628952,        0.0498028994,0.2115534246,0.2871634066,-2.8046188354,16.3374271393,-92.8690872192
        2.3572380543,       -0.0229510069,0.2169245183,0.2485891730,8.6852493286,17.5581302643,-93.9677200317
        2.3600070477,       -0.0229510069,0.2169245183,0.2485891730,8.6852493286,17.5581302643,-93.9677200317
        2.3626940250,       -0.0229510069,0.2169245183,0.2485891730,21.4415969849,18.6872806549,-94.5475540161
        2.3654899597,       -0.0229510069,0.2169245183,0.2485891730,21.4415969849,18.6872806549,-94.5475540161
        2.3681888580,       -0.0561541319,0.1197565496,0.1753469855,33.1603469849,19.6028079987,-95.1273880005
        2.3708810806,       -0.0561541319,0.1197565496,0.1753469855,33.1603469849,19.6028079987,-95.1273880005
        2.3735690117,       -0.0561541319,0.1197565496,0.1753469855,42.0409622192,20.5946292877,-95.1884231567
        2.3762578964,       -0.0561541319,0.1197565496,0.0972219855,42.0409622192,20.5946292877,-95.1884231567
        2.3789598942,       -0.0459002256,-0.0462590754,0.0972219855,45.9014358521,21.1439456940,-93.5404739380
        2.3816490173,       -0.0459002256,-0.0462590754,0.0972219855,45.9014358521,21.1439456940,-93.5404739380
        2.3843350410,       -0.0459002256,-0.0462590754,0.0972219855,45.9014358521,21.3270511627,-91.3889846802
        2.3870279789,        0.0790997744,-0.1741887629,0.0249563623,45.7793655396,21.3270511627,-91.3889846802
        2.3897259235,       -0.0322283506,-0.1741887629,0.0249563623,41.8731155396,21.2812747955,-88.5813674927
        2.3924169540,       -0.0322283506,-0.1741887629,0.0249563623,42.4071731567,21.2812747955,-88.5813674927
        2.3951020241,       -0.0322283506,-0.1741887629,0.0249563623,34.5946731567,20.3810062408,-85.2702102661
        2.3978509903,       -0.0454119444,-0.2381536067,-0.0199655127,35.2355422974,20.3810062408,-85.2702102661
        2.4005520344,       -0.0454119444,-0.2381536067,-0.0199655127,27.4230422974,20.4115238190,-82.3557815552
        2.4032459259,       -0.0454119444,-0.2381536067,-0.0199655127,26.0192337036,20.4115238190,-82.3557815552
        2.4059400558,       -0.0454119444,-0.2381536067,-0.0199655127,18.2067337036,20.5793704987,-78.4953079224
        2.4086790085,       -0.0610369444,-0.2689153254,-0.0458444208,16.1773147583,20.5793704987,-78.4953079224
        2.4113938808,       -0.0610369444,-0.2689153254,-0.0458444208,4.4585647583,20.9303226471,-74.9094924927
        2.4143130779,       -0.0610369444,-0.2689153254,-0.0458444208,5.5877151489,20.9303226471,-74.9094924927
        2.4170088768,       -0.0610369444,-0.2459661067,-0.0585397333,-5.5817184448,20.4573001862,-70.7591018677
        2.4199750423,       -0.0449236631,-0.2459661067,-0.0585397333,-5.5817184448,20.4573001862,-70.7591018677
        2.4226858616,       -0.0449236631,-0.2459661067,-0.0585397333,-16.3696823120,19.2060794830,-66.0593948364
        2.4253959656,       -0.0449236631,-0.2459661067,-0.0585397333,-16.3696823120,19.2060794830,-66.0593948364
        2.4281148911,       -0.0288103819,-0.1903020442,-0.0614694208,-26.1353073120,18.3668460846,-60.9324417114
        2.4309210777,       -0.0288103819,-0.1903020442,-0.0614694208,-26.1353073120,18.3668460846,-60.9324417114
        2.4336309433,       -0.0288103819,-0.1903020442,-0.0614694208,-32.0099411011,16.9020023346,-55.3935012817
        2.4363479614,       -0.0288103819,-0.1903020442,-0.0614694208,-32.0099411011,16.9020023346,-55.3935012817
        2.4390959740,       -0.0175799131,-0.1580754817,-0.0868600458,-34.5581588745,15.7575922012,-50.4038772583
        2.4418029785,       -0.0175799131,-0.1580754817,-0.0868600458,-34.5581588745,15.7575922012,-50.4038772583
        2.4445080757,       -0.0175799131,-0.1580754817,-0.0868600458,-34.1309127808,13.3161859512,-46.0398635864
        2.4472179413,       -0.0175799131,-0.1580754817,-0.0893014520,-34.1309127808,13.3161859512,-46.0398635864
        2.4498279095,       -0.0556658506,-0.1439153254,-0.0893014520,-30.5298385620,11.5766839981,-42.3319778442
        2.4524009228,       -0.0556658506,-0.1439153254,-0.0893014520,-30.5298385620,11.5766839981,-42.3319778442
        2.4549739361,       -0.0556658506,-0.1439153254,-0.0893014520,-26.6235885620,8.8453607559,-38.8987503052
        2.4575929642,       -0.0556658506,-0.1546575129,-0.0927194208,-25.4181442261,8.8453607559,-38.8987503052
        2.4601650238,       -0.1049822569,-0.1546575129,-0.0927194208,-25.4181442261,8.8453607559,-35.6333694458
        2.4627418518,       -0.1049822569,-0.1546575129,-0.0927194208,-20.3217086792,6.5718016624,-35.6333694458
        2.4653198719,       -0.1049822569,-0.1546575129,-0.0927194208,-20.3217086792,6.5718016624,-31.6966018677
        2.4680199623,       -0.1542986631,-0.1727239192,-0.0639108270,-14.9353561401,4.5881590843,-31.6966018677
        2.4705920219,       -0.1542986631,-0.1727239192,-0.0639108270,-14.9353561401,4.5881590843,-27.7903518677
        2.4731669426,       -0.1542986631,-0.1727239192,-0.0639108270,-8.9539108276,2.8486571312,-27.4699172974
        2.4757330418,       -0.1542986631,-0.1727239192,-0.0639108270,-8.9539108276,2.8486571312,-27.4699172974
        2.4784550667,       -0.2080096006,-0.1483098567,-0.0419381708,-4.1931686401,1.6889890432,-23.6247024536
        2.4811580181,       -0.2080096006,-0.1483098567,-0.0419381708,-4.1931686401,1.6889890432,-23.6247024536
        2.4838590622,       -0.2080096006,-0.1483098567,-0.0419381708,-0.5005418062,0.8802732229,-18.9860305786
        2.4865629673,       -0.2080096006,-0.1483098567,-0.0419381708,-0.5005418062,0.8802732229,-18.9860305786
        2.4891979694,       -0.2197283506,-0.1653997004,-0.0590280145,2.4291458130,-0.9812990427,-14.6677942276
        2.4917669296,       -0.2197283506,-0.1653997004,-0.0590280145,2.4291458130,-0.9812990427,-14.6677942276
        2.4943349361,       -0.2197283506,-0.1653997004,-0.0590280145,6.2743606567,-2.2630372047,-11.2040491104
        2.4970090389,       -0.2197283506,-0.1653997004,-0.0590280145,6.2743606567,-2.2630372047,-11.2040491104
        2.4997220039,       -0.2182635069,-0.1903020442,-0.0497506708,9.5702590942,-2.2935547829,-8.5490198135
        2.5024218559,       -0.2182635069,-0.1903020442,-0.0497506708,9.5702590942,-2.2935547829,-8.5490198135
        2.5051209927,       -0.2182635069,-0.1903020442,-0.0497506708,11.4776077271,-1.8357912302,-5.5125207901
        2.5078649521,       -0.2182635069,-0.1185247004,-0.0297311377,11.4776077271,-1.8357912302,-5.5125207901
        2.5105738640,       -0.2016619444,-0.1185247004,-0.0297311377,12.0116653442,-1.2254396677,-2.0029990673
        2.5132758617,       -0.2016619444,-0.1185247004,-0.0297311377,12.0116653442,-1.2254396677,-2.0029990673
        2.5159819126,       -0.2016619444,-0.1185247004,-0.0297311377,11.6607131958,-1.8968263865,0.8351356983
        2.5187430382,       -0.1752947569,-0.0745793879,-0.0272897314,11.6607131958,-1.8968263865,0.8351356983
        2.5213170052,       -0.1752947569,-0.0745793879,-0.0272897314,11.5539016724,-2.8581299782,2.8035194874
        2.5238919258,       -0.1752947569,-0.0745793879,-0.0272897314,11.5539016724,-2.8581299782,2.8035194874
        2.5264639854,       -0.1752947569,-0.0745793879,-0.0272897314,10.7451858521,-3.4227051735,3.3986122608
        2.5291359425,       -0.1611346006,-0.0750676692,0.0034719873,10.7451858521,-3.4227051735,3.3986122608
        2.5318369865,       -0.1611346006,-0.0750676692,0.0034719873,8.1054153442,-3.0564942360,3.8563759327
        2.5346460342,       -0.1611346006,-0.0750676692,0.0034719873,8.1054153442,-3.0564942360,3.8563759327
        2.5373430252,       -0.1611346006,-0.0750676692,0.0034719873,4.6569290161,-2.0341553688,5.3517370224
        2.5399649143,       -0.1445330381,-0.0692082942,0.0337454230,4.6569290161,-2.0341553688,5.3517370224
        2.5425279140,       -0.1445330381,-0.0692082942,0.0337454230,1.8798292875,-0.8744875193,6.4198522568
        2.5450930595,       -0.1445330381,-0.0692082942,0.0337454230,1.8798292875,-0.8744875193,6.4198522568
        2.5476620197,       -0.1445330381,-0.0692082942,0.0337454230,-0.7599412203,-0.2641359568,6.7708044052
        2.5503618717,       -0.1230486631,-0.0364934504,0.0513235480,-0.7599412203,-0.2641359568,6.7708044052
        2.5530560017,       -0.1230486631,-0.0364934504,0.0513235480,-0.7599412203,0.3462156057,6.1451940536
        2.5557558537,       -0.1230486631,-0.0364934504,0.0513235480,-3.1555709839,0.3462156057,6.1451940536
        2.5584919453,       -0.1230486631,0.0245417058,0.0698782355,-7.0618209839,0.4072507620,4.2073278427
        2.5613000393,       -0.1274431944,0.0245417058,0.0698782355,-6.4667282104,0.4072507620,4.2073278427
        2.5639939308,       -0.1274431944,0.0245417058,0.0698782355,-6.8939743042,0.8802732229,2.2847206593
        2.5666909218,       -0.1274431944,0.0245417058,0.0698782355,-6.8939743042,0.8802732229,2.2847206593
        2.5693058968,       -0.1479510069,0.0645807683,0.0454641730,-6.8939743042,1.4143308401,1.2776405811
        2.5718679428,       -0.1479510069,0.0645807683,0.0454641730,-4.6051559448,1.4143308401,1.2776405811
        2.5744349957,       -0.1479510069,0.0645807683,0.0454641730,-4.6051559448,5.3205809593,-0.0498740971
        2.5770030022,       -0.1479510069,0.0645807683,0.0454641730,-2.3010787964,2.0246825218,-0.0498740971
        2.5797100067,       -0.1572283506,0.0728815496,0.0195852686,-2.3010787964,2.0246825218,-2.4912803173
        2.5822758675,       -0.1572283506,0.0728815496,0.0195852686,0.4302443564,2.1925292015,-2.4912803173
        2.5848388672,       -0.1572283506,0.0728815496,0.0195852686,0.4302443564,2.1925292015,-6.3975305557
        2.5874040127,       -0.1572283506,0.0728815496,0.0195852686,2.8716506958,2.0246825218,-5.7108850479
        2.5902218819,       -0.1606463194,0.0489557683,0.0010305811,2.8716506958,2.0246825218,-9.6171350479
        2.5929169655,       -0.1606463194,0.0489557683,0.0010305811,5.1452102661,2.2535643578,-7.9539270401
        2.5956099033,       -0.1606463194,0.0489557683,0.0010305811,5.1452102661,2.2535643578,-7.9539270401
        2.5983309746,       -0.1606463194,0.0489557683,0.0107962061,5.9844436646,2.9096922874,-9.0983362198
        2.6010279655,       -0.1440447569,0.0221002996,0.0107962061,5.9844436646,2.9096922874,-9.0983362198
        2.6037299633,       -0.1440447569,0.0221002996,0.0107962061,5.9386672974,3.2606444359,-10.3495569229
        2.6064350605,       -0.1440447569,0.0221002996,0.0107962061,5.9386672974,3.2606444359,-14.2558069229
        2.6091458797,       -0.1440447569,0.0069635808,0.0054251123,5.4656448364,3.2606444359,-12.2111291885
        2.6118469238,       -0.1367205381,0.0069635808,0.0054251123,5.4656448364,3.2606444359,-12.2111291885
        2.6145429611,       -0.1367205381,0.0069635808,0.0054251123,5.2825393677,3.4284911156,-13.2487268448
        2.6172449589,       -0.1367205381,0.0069635808,0.0054251123,5.2825393677,3.4284911156,-13.2487268448
        2.6199650764,       -0.1308611631,-0.0169622004,-0.0121530127,4.7637405396,3.4284911156,-14.0574426651
        2.6226658821,       -0.1308611631,-0.0169622004,-0.0121530127,4.7637405396,3.4284911156,-14.0574426651
        2.6254730225,       -0.1308611631,-0.0169622004,-0.0121530127,5.4198684692,3.8252196312,-15.1865930557
        2.6281740665,       -0.1308611631,-0.0169622004,-0.0121530127,5.4198684692,3.8252196312,-15.1865930557
        2.6307489872,       -0.1406267881,-0.0120793879,-0.0072702002,5.4198684692,3.7947020531,-15.3544397354
        2.6333220005,       -0.1406267881,-0.0120793879,-0.0072702002,5.4198684692,3.7947020531,-15.3544397354
        2.6358850002,       -0.1406267881,-0.0120793879,-0.0072702002,5.8623733521,3.3064208031,-15.5528039932
        2.6385209560,       -0.1406267881,-0.0120793879,-0.0072702002,5.8623733521,3.3064208031,-15.5528039932
        2.6412270069,       -0.1376971006,-0.0233098567,0.0078665186,7.1441116333,3.0927977562,-15.5222864151
        2.6439268589,       -0.1376971006,-0.0233098567,0.0078665186,7.1441116333,3.0927977562,-15.5222864151
        2.6466310024,       -0.1376971006,-0.0233098567,0.0078665186,8.6852493286,2.7571043968,-15.6748743057
        2.6493470669,       -0.1376971006,-0.0599309504,-0.0058053564,8.6852493286,2.7571043968,-15.6748743057
        2.6520459652,       -0.1376971006,-0.0599309504,-0.0058053564,9.1887893677,2.4214110374,-15.8122034073
        2.6547529697,       -0.1376971006,-0.0599309504,-0.0058053564,9.1887893677,2.4214110374,-15.8122034073
        2.6574499607,       -0.1376971006,-0.0599309504,-0.0058053564,10.8672561646,2.4061522484,-16.0563430786
        2.6601588726,       -0.1362322569,-0.0516301692,-0.0150827002,10.8672561646,2.4061522484,-16.0563430786
        2.6628720760,       -0.1362322569,-0.0516301692,-0.0150827002,12.1795120239,2.5434813499,-15.6290979385
        2.6655719280,       -0.1362322569,-0.0516301692,-0.0150827002,12.1795120239,2.5434813499,-15.6290979385
        2.6682908535,       -0.1362322569,-0.0516301692,-0.0150827002,12.0116653442,2.1925292015,-15.1102991104
        2.6709918976,       -0.1406267881,-0.0594426692,0.0010305811,12.0116653442,2.1925292015,-15.1102991104
        2.6736960411,       -0.1406267881,-0.0594426692,0.0010305811,11.5081253052,1.5974363089,-14.5762414932
        2.6764039993,       -0.1406267881,-0.0594426692,0.0010305811,11.5081253052,1.5974363089,-14.5762414932
        2.6790530682,       -0.1406267881,-0.0594426692,0.0010305811,12.0879592896,1.8415769339,-14.8661584854
        2.6816229820,       -0.1391619444,-0.0779973567,-0.0141061377,12.0879592896,1.8415769339,-14.8661584854
        2.6842069626,       -0.1391619444,-0.0779973567,-0.0141061377,11.3860549927,2.0094237328,-14.8661584854
        2.6867780685,       -0.1391619444,-0.0779973567,-0.0141061377,11.3860549927,2.0094237328,-14.8661584854
        2.6896100044,       -0.1391619444,-0.0555364192,-0.0209420752,9.8754348755,1.4906247854,-14.7593469620
        2.6923110485,       -0.1406267881,-0.0555364192,-0.0209420752,9.8754348755,1.4906247854,-14.7593469620
        2.6950149536,       -0.1406267881,-0.0555364192,-0.0209420752,9.5702590942,1.3685544729,-13.9811487198
        2.6977210045,       -0.1406267881,-0.0555364192,-0.0209420752,9.5702590942,1.3685544729,-13.9811487198
        2.7004230022,       -0.1484392881,-0.0438176692,-0.0160592627,9.2803421021,1.4448484182,-13.2639856339
        2.7031259537,       -0.1484392881,-0.0438176692,-0.0160592627,9.2803421021,1.4448484182,-13.2639856339
        2.7058298588,       -0.1484392881,-0.0438176692,-0.0160592627,8.6089553833,1.1396726370,-13.2029504776
        2.7085440159,       -0.1484392881,-0.0438176692,-0.0160592627,8.6089553833,1.1396726370,-13.2029504776
        2.7112488747,       -0.1435564756,-0.0623723567,-0.0189889502,8.8073196411,1.2159665823,-13.2945032120
        2.7139580250,       -0.1435564756,-0.0623723567,-0.0189889502,8.8073196411,1.2159665823,-13.2945032120
        2.7166640759,       -0.1435564756,-0.0623723567,-0.0189889502,9.1124954224,1.2770017385,-13.2029504776
        2.7193830013,       -0.1435564756,-0.0623723567,-0.0189889502,9.1124954224,1.2770017385,-13.2029504776
        2.7220849991,       -0.1391619444,-0.0726262629,-0.0141061377,8.1206741333,1.6126950979,-12.8062219620
        2.7247910500,       -0.1391619444,-0.0726262629,-0.0141061377,8.1206741333,1.6126950979,-12.8062219620
        2.7274999619,       -0.1391619444,-0.0726262629,-0.0141061377,7.6781692505,1.4753659964,-12.1043176651
        2.7300760746,       -0.1391619444,-0.0731145442,-0.0018991064,7.6781692505,1.4753659964,-12.1043176651
        2.7326519489,       -0.1342791319,-0.0731145442,-0.0018991064,7.6781692505,0.9718259573,-11.6312952042
        2.7352230549,       -0.1342791319,-0.0731145442,-0.0018991064,6.8999710083,0.9718259573,-11.6312952042
        2.7378559113,       -0.1342791319,-0.0731145442,-0.0018991064,6.8999710083,0.9870847464,-11.3718957901
        2.7405588627,       -0.1416033506,-0.0838567317,0.0015188623,6.3964309692,0.9870847464,-11.3718957901
        2.7432620525,       -0.1416033506,-0.0838567317,0.0015188623,6.3964309692,0.9718259573,-10.4563684464
        2.7459599972,       -0.1416033506,-0.0838567317,0.0015188623,5.7860794067,0.9718259573,-10.4563684464
        2.7486829758,       -0.1416033506,-0.0838567317,0.0015188623,5.7860794067,0.9870847464,-9.7544641495
        2.7513790131,       -0.1479510069,-0.1014348567,0.0039602686,4.7942581177,0.9870847464,-9.7544641495
        2.7541909218,       -0.1479510069,-0.1014348567,0.0039602686,4.7942581177,1.1549314260,-9.3424768448
        2.7568888664,       -0.1479510069,-0.1014348567,0.0039602686,4.5653762817,1.1549314260,-9.3424768448
        2.7595958710,       -0.1479510069,-0.1014348567,0.0039602686,4.5653762817,0.6971677542,-8.8236780167
        2.7622909546,       -0.1596697569,-0.1082707942,-0.0028756689,4.5653762817,0.6971677542,-8.8236780167
        2.7649800777,       -0.1596697569,-0.1082707942,-0.0028756689,4.5653762817,0.6971677542,-8.5337610245
        2.7676870823,       -0.1596697569,-0.1082707942,-0.0028756689,4.2296829224,0.5903562307,-8.5337610245
        2.7702510357,       -0.1596697569,-0.1082707942,-0.0018991064,4.2296829224,0.5903562307,-7.9081506729
        2.7728130817,       -0.1635760069,-0.0711614192,-0.0018991064,3.7566604614,1.1091550589,-7.9081506729
        2.7753849030,       -0.1635760069,-0.0711614192,-0.0018991064,3.7566604614,1.1091550589,-4.0019006729
        2.7779700756,       -0.1635760069,-0.0711614192,-0.0018991064,4.2296829224,1.5516599417,-7.5571985245
        2.7806680202,       -0.1635760069,-0.0530950129,-0.0106881689,4.2296829224,1.5516599417,-7.5571985245
        2.7833678722,       -0.1665056944,-0.0530950129,-0.0106881689,5.1909866333,1.5669187307,-6.6874475479
        2.7860620022,       -0.1665056944,-0.0530950129,-0.0106881689,5.1909866333,1.5669187307,-6.6874475479
        2.7887718678,       -0.1665056944,-0.0530950129,-0.0106881689,6.1980667114,0.9260495901,-6.2449426651
        2.7914810181,       -0.1572283506,-0.0662786067,-0.0082467627,6.1980667114,0.9260495901,-6.2449426651
        2.7941739559,       -0.1572283506,-0.0662786067,-0.0082467627,7.1288528442,0.6971677542,-6.0618371964
        2.7968740463,       -0.1572283506,-0.0662786067,-0.0082467627,7.1288528442,0.6971677542,-6.0618371964
        2.7995789051,       -0.1572283506,-0.0662786067,-0.0082467627,8.0596389771,0.3004392385,-5.2226037979
        2.8022758961,       -0.1523455381,-0.0921575129,-0.0228952002,8.0596389771,0.3004392385,-5.2226037979
        2.8049690723,       -0.1523455381,-0.0921575129,-0.0228952002,8.7157669067,-0.2641359568,-3.9866416454
        2.8076789379,       -0.1523455381,-0.0921575129,-0.0228952002,8.7157669067,-0.2641359568,-3.9866416454
        2.8103759289,       -0.1523455381,-0.0921575129,-0.0165475439,9.1735305786,-0.2183595896,-2.5828330517
        2.8130760193,       -0.1484392881,-0.1151067317,-0.0165475439,9.1735305786,-0.2183595896,-2.5828330517
        2.8157708645,       -0.1484392881,-0.1151067317,-0.0165475439,9.4481887817,-0.1420656443,-0.7670371532
        2.8185570240,       -0.1484392881,-0.1151067317,-0.0165475439,9.4481887817,-0.1420656443,-0.7670371532
        2.8211200237,       -0.1484392881,-0.1375676692,-0.0116647314,9.1735305786,-0.5540529490,1.5828163624
        2.8236799240,       -0.1484392881,-0.1375676692,-0.0116647314,9.1735305786,-0.5540529490,1.5828163624
        2.8262500763,       -0.1484392881,-0.1375676692,-0.0116647314,9.4329299927,-1.7137209177,4.5582799911
        2.8289370537,       -0.1484392881,-0.1375676692,-0.0116647314,9.4329299927,-1.7137209177,4.5582799911
        2.8318760395,       -0.1635760069,-0.1702825129,-0.0038522314,9.1735305786,-2.2325196266,7.7473669052
        2.8345758915,       -0.1635760069,-0.1702825129,-0.0038522314,9.1735305786,-2.2325196266,7.7473669052
        2.8372678757,       -0.1635760069,-0.1702825129,-0.0038522314,9.5550003052,-3.1785645485,11.6841344833
        2.8399899006,       -0.1635760069,-0.1702825129,-0.0038522314,9.5550003052,-3.1785645485,11.6841344833
        2.8426909447,       -0.1669939756,-0.2000676692,-0.0189889502,9.6770706177,-4.0177979469,16.1702194214
        2.8453900814,       -0.1669939756,-0.2000676692,-0.0189889502,9.6770706177,-4.0177979469,16.1702194214
        2.8481040001,       -0.1669939756,-0.2000676692,-0.0189889502,9.9212112427,-4.9943604469,20.7325973511
        2.8508088589,       -0.1669939756,-0.2000676692,-0.0263131689,9.9212112427,-4.9943604469,20.7325973511
        2.8535120487,       -0.1865252256,-0.2503606379,-0.0263131689,9.6160354614,-5.7115235329,26.0273971558
        2.8562140465,       -0.1865252256,-0.2503606379,-0.0263131689,9.6160354614,-5.7115235329,26.0273971558
        2.8589239120,       -0.1865252256,-0.2503606379,-0.0263131689,8.8988723755,-5.7267823219,31.4290084839
        2.8616318703,       -0.1865252256,-0.2557317317,-0.0336373895,8.8988723755,-5.7267823219,31.4290084839
        2.8643279076,       -0.1870135069,-0.2557317317,-0.0336373895,8.1511917114,-5.5436768532,36.7390670776
        2.8670248985,       -0.1870135069,-0.2557317317,-0.0336373895,8.1511917114,-5.5436768532,36.7390670776
        2.8696398735,       -0.1870135069,-0.2557317317,-0.0336373895,6.6100540161,-5.1774659157,43.3766403198
        2.8722040653,       -0.1616228819,-0.2308293879,-0.0482858270,6.6100540161,-5.1774659157,43.3766403198
        2.8747749329,       -0.1616228819,-0.2308293879,-0.0482858270,4.6264114380,-4.8417725563,49.8311080933
        2.8773510456,       -0.1616228819,-0.2308293879,-0.0482858270,4.6264114380,-4.8417725563,49.8311080933
        2.8801000118,       -0.1616228819,-0.2308293879,-0.0482858270,2.5817337036,-5.8641114235,55.5989303589
