time, acceleration x, acceleration y, acceleration z, gyro x gyro y, gyro z
        0.0000000000,        0.0030611157,-0.0110332742,-0.0074287578,0.0602624714,0.6564984918,-2.3016858101
        0.0027000904,       -0.0057279468,-0.0124981180,-0.0025459453,0.0755212605,1.0532269478,-2.2253918648
        0.0053908825,       -0.0057279468,-0.0124981180,-0.0025459453,0.0755212605,1.0532269478,-2.2253918648
        0.0081450939,       -0.0057279468,-0.0124981180,-0.0025459453,0.0602624714,0.8243451715,-2.2253918648
        0.0108358860,       -0.0057279468,-0.0124981180,-0.0025459453,0.0602624714,0.8243451715,-2.2253918648
        0.0135319233,       -0.0076810718,-0.0095684305,-0.0030342266,0.3349206746,0.7785688043,-2.3932385445
        0.0162289143,       -0.0076810718,-0.0095684305,-0.0030342266,0.3349206746,0.7785688043,-2.2101330757
        0.0196199417,       -0.0076810718,-0.0095684305,-0.0030342266,0.4112146199,0.7327924371,-2.2101330757
        0.0223069191,       -0.0076810718,-0.0144512430,-0.0074287578,0.4112146199,0.7327924371,-2.0880627632
        0.0250039101,       -0.0096341968,-0.0144512430,-0.0074287578,-0.2143957317,0.6870160699,-2.0880627632
        0.0277318954,       -0.0096341968,-0.0144512430,-0.0074287578,-0.2143957317,0.6870160699,-2.3627209663
        0.0302879810,       -0.0096341968,-0.0144512430,-0.0074287578,0.2586267292,0.7022748590,-2.3627209663
        0.0328428745,       -0.0071927905,-0.0149395242,-0.0025459453,0.2586267292,0.7022748590,-2.3627209663
        0.0354070663,       -0.0071927905,-0.0149395242,-0.0025459453,0.1060388386,0.9616742730,-2.3779797554
        0.0380868912,       -0.0071927905,-0.0149395242,-0.0025459453,0.1060388386,0.9616742730,-2.3779797554
        0.0407440662,       -0.0071927905,-0.0149395242,-0.0025459453,-0.2754308879,0.9311566949,-2.1185803413
        0.0434041023,       -0.0052396655,-0.0139629617,-0.0054756328,-0.2754308879,0.9311566949,-2.1185803413
        0.0460770130,       -0.0052396655,-0.0139629617,-0.0054756328,0.3654382527,0.5649457574,-2.4542737007
        0.0487360954,       -0.0052396655,-0.0139629617,-0.0054756328,0.3654382527,0.5649457574,-2.4542737007
        0.0513079166,       -0.0052396655,-0.0139629617,-0.0054756328,0.9147546291,0.3818402886,-2.2253918648
        0.0540258884,       -0.0086576343,-0.0100567117,-0.0035225078,0.9147546291,0.3818402886,-2.2253918648
        0.0565910339,       -0.0086576343,-0.0100567117,-0.0035225078,0.4417321980,0.6259809136,-2.1338391304
        0.0594360828,       -0.0086576343,-0.0100567117,-0.0035225078,0.4417321980,0.6259809136,-2.1338391304
        0.0620050430,       -0.0086576343,-0.0100567117,-0.0084053203,0.1823327839,0.7633100152,-2.1338391304
        0.0645740032,       -0.0076810718,-0.0149395242,-0.0084053203,0.1823327839,0.7633100152,-2.1338391304
        0.0672559738,       -0.0076810718,-0.0149395242,-0.0084053203,0.2128503621,0.6564984918,-2.0728039742
        0.0701999664,       -0.0076810718,-0.0149395242,-0.0084053203,0.2128503621,0.6564984918,-2.0728039742
        0.0727829933,       -0.0076810718,-0.0144512430,-0.0113350078,0.1975915730,0.5039106011,-2.3932385445
        0.0753650665,       -0.0032865405,-0.0144512430,-0.0113350078,0.1975915730,0.5039106011,-2.3932385445
        0.0781710148,       -0.0032865405,-0.0144512430,-0.0113350078,0.6095788479,0.6107221246,-2.2559094429
        0.0807449818,       -0.0032865405,-0.0144512430,-0.0113350078,0.6095788479,0.6107221246,-2.2559094429
        0.0833089352,       -0.0120756030,-0.0207988992,0.0042899922,0.2128503621,0.6717572808,-2.1796154976
        0.0858750343,       -0.0120756030,-0.0207988992,0.0042899922,0.2128503621,0.6717572808,-2.1796154976
        0.0886740685,       -0.0120756030,-0.0207988992,0.0042899922,-0.2906896770,0.7785688043,-2.1796154976
        0.0913369656,       -0.0120756030,-0.0207988992,0.0042899922,-0.2906896770,0.7785688043,-2.1796154976
        0.0948560238,        0.0059908032,-0.0124981180,-0.0147529766,-0.0160314739,0.9921918511,-2.1033215523
        0.0976939201,        0.0059908032,-0.0124981180,-0.0147529766,-0.0160314739,0.9921918511,-2.1033215523
        0.1002800465,        0.0059908032,-0.0124981180,-0.0147529766,0.0297448933,0.6717572808,-2.0422863960
        0.1028740406,        0.0059908032,-0.0139629617,-0.0059639141,0.0297448933,0.6717572808,-2.0422863960
        0.1054370403,       -0.0042631030,-0.0139629617,-0.0059639141,0.1670739949,0.8090863824,-1.8896985054
        0.1080150604,       -0.0042631030,-0.0139629617,-0.0059639141,0.1670739949,0.8090863824,-1.8896985054
        0.1105809212,       -0.0042631030,-0.0139629617,-0.0059639141,0.3044030964,0.6412397027,-2.0575451851
        0.1132109165,       -0.0042631030,-0.0120098367,0.0033134297,0.3044030964,0.6412397027,-2.0575451851
        0.1157748699,       -0.0032865405,-0.0120098367,0.0033134297,-0.0160314739,0.5496869683,-1.7371106148
        0.1184670925,       -0.0032865405,-0.0120098367,0.0033134297,-0.0160314739,0.5496869683,-1.7371106148
        0.1210329533,       -0.0032865405,-0.0120098367,0.0033134297,0.1518152058,0.2902875543,-1.9354748726
        0.1235959530,       -0.0081693530,-0.0183574930,0.0018485859,0.1518152058,0.2902875543,-1.9354748726
        0.1261610985,       -0.0081693530,-0.0183574930,0.0018485859,0.1518152058,0.4123578668,-2.1796154976
        0.1287479401,       -0.0081693530,-0.0183574930,0.0018485859,-0.1533605754,0.4123578668,-2.1796154976
        0.1313080788,       -0.0081693530,-0.0183574930,0.0018485859,-0.1533605754,0.4123578668,-2.2406506538
        0.1338679790,        0.0006197095,-0.0100567117,-0.0001045391,-0.3212072551,0.8701215386,-2.2406506538
        0.1364340782,        0.0006197095,-0.0100567117,-0.0001045391,-0.3212072551,0.8701215386,-2.4084973335
        0.1390380859,        0.0006197095,-0.0100567117,-0.0001045391,0.2891443074,0.6412397027,-2.4084973335
        0.1415979862,        0.0006197095,-0.0100567117,-0.0001045391,0.2891443074,0.6412397027,-2.4084973335
        0.1441559792,       -0.0057279468,-0.0120098367,-0.0010811016,-0.5806066990,0.6412397027,-2.1948742867
        0.1467220783,       -0.0057279468,-0.0120098367,-0.0010811016,-0.5806066990,0.6412397027,-2.1948742867
        0.1493999958,       -0.0057279468,-0.0120098367,-0.0010811016,0.0144861042,0.5039106011,-2.4390149117
        0.1519620419,       -0.0057279468,-0.0120098367,-0.0010811016,0.0144861042,0.5039106011,-2.4390149117
        0.1545250416,       -0.0037748218,-0.0159160867,-0.0069404766,0.0755212605,0.5954633355,-2.1948742867
        0.1570909023,       -0.0037748218,-0.0159160867,-0.0069404766,0.0755212605,0.5954633355,-2.1948742867
        0.1597759724,       -0.0037748218,-0.0159160867,-0.0069404766,0.3654382527,0.9921918511,-1.9812512398
        0.1623358727,       -0.0037748218,-0.0159160867,-0.0069404766,0.3654382527,0.9921918511,-1.9812512398
        0.1648960114,       -0.0076810718,-0.0120098367,-0.0040107891,0.3959558308,0.7938275933,-2.1490979195
        0.1675910950,       -0.0076810718,-0.0120098367,-0.0040107891,0.3959558308,0.7938275933,-2.1490979195
        0.1701629162,       -0.0076810718,-0.0120098367,-0.0040107891,0.0755212605,0.6259809136,-2.1796154976
        0.1727299690,       -0.0076810718,-0.0120098367,-0.0040107891,0.0755212605,0.6259809136,-2.1796154976
        0.1754469872,       -0.0023099780,-0.0110332742,-0.0118232891,0.2433679402,0.7022748590,-2.1643567085
        0.1781439781,       -0.0023099780,-0.0110332742,-0.0118232891,0.2433679402,0.7022748590,-2.1643567085
        0.1809110641,       -0.0023099780,-0.0110332742,-0.0118232891,0.4264734089,1.0074505806,-2.2101330757
        0.1841940880,       -0.0062162280,-0.0081035867,-0.0030342266,0.4264734089,1.0074505806,-2.2101330757
        0.1867549419,       -0.0062162280,-0.0081035867,-0.0030342266,0.6248376369,0.1834760308,-2.5305676460
        0.1893720627,       -0.0062162280,-0.0081035867,-0.0030342266,0.6248376369,0.1834760308,-2.5305676460
        0.1919379234,       -0.0062162280,-0.0081035867,-0.0030342266,-0.0618078411,0.4276166558,-2.3322033882
        0.1945040226,       -0.0013334155,-0.0124981180,-0.0025459453,-0.0618078411,0.4276166558,-2.3322033882
        0.1970710754,       -0.0013334155,-0.0124981180,-0.0025459453,-0.0770666301,0.9769330621,-1.8744397163
        0.1996929646,       -0.0013334155,-0.0124981180,-0.0025459453,-0.0770666301,0.9769330621,-1.8744397163
        0.2022531033,       -0.0013334155,-0.0124981180,-0.0025459453,-0.0770666301,0.9158979058,-2.0728039742
        0.2048149109,       -0.0008451343,-0.0232403055,-0.0040107891,-0.1991369426,0.9158979058,-2.0728039742
        0.2073719501,       -0.0008451343,-0.0232403055,-0.0040107891,-0.1991369426,0.9158979058,-2.4542737007
        0.2099399567,       -0.0008451343,-0.0232403055,-0.0040107891,-0.0923254192,1.1295208931,-2.4542737007
        0.2125039101,       -0.0008451343,-0.0232403055,-0.0040107891,-0.0923254192,1.1295208931,-2.1948742867
        0.2150659561,       -0.0086576343,-0.0120098367,-0.0088936016,-0.0007726848,0.9464154840,-2.1948742867
        0.2177031040,       -0.0086576343,-0.0120098367,-0.0088936016,-0.0007726848,0.9464154840,-2.1948742867
        0.2202670574,       -0.0086576343,-0.0120098367,-0.0088936016,-0.0007726848,0.7938275933,-2.1796154976
        0.2228319645,       -0.0086576343,-0.0120098367,-0.0088936016,-0.0007726848,0.7938275933,-2.1796154976
        0.2253880501,       -0.0042631030,-0.0110332742,-0.0176826641,0.1670739949,0.6412397027,-2.3474621773
        0.2280790806,       -0.0042631030,-0.0110332742,-0.0176826641,0.1670739949,0.6412397027,-2.3474621773
        0.2306420803,       -0.0042631030,-0.0110332742,-0.0176826641,0.0297448933,0.7327924371,-2.2406506538
        0.2332060337,       -0.0042631030,-0.0110332742,-0.0176826641,0.0297448933,0.7327924371,-2.2406506538
        0.2357730865,       -0.0032865405,-0.0139629617,-0.0098701641,0.3349206746,0.4886518121,-2.5763440132
        0.2384519577,       -0.0032865405,-0.0139629617,-0.0098701641,0.3349206746,0.4886518121,-2.5763440132
        0.2410218716,       -0.0032865405,-0.0139629617,-0.0098701641,0.2128503621,0.3208051324,-2.6221203804
        0.2437019348,       -0.0032865405,-0.0139629617,0.0013603047,0.2128503621,0.3208051324,-2.6221203804
        0.2462680340,       -0.0062162280,-0.0139629617,0.0013603047,0.5485436916,0.7938275933,-2.6373791695
        0.2488780022,       -0.0062162280,-0.0139629617,0.0013603047,0.5485436916,0.7938275933,-2.6373791695
        0.2514460087,       -0.0062162280,-0.0139629617,0.0013603047,0.1975915730,1.0532269478,-2.2711682320
        0.2540090084,       -0.0062162280,-0.0139629617,-0.0064521953,0.1975915730,1.0532269478,-2.2711682320
        0.2565720081,       -0.0023099780,-0.0124981180,-0.0064521953,0.1975915730,1.2210736275,-2.4695324898
        0.2591550350,       -0.0023099780,-0.0124981180,-0.0064521953,-0.2449133098,1.2210736275,-2.4695324898
        0.2617208958,       -0.0023099780,-0.0124981180,-0.0064521953,-0.2449133098,1.2210736275,-2.6221203804
        0.2642889023,       -0.0023099780,-0.0124981180,-0.0054756328,0.2738855183,0.8243451715,-2.6221203804
        0.2668590546,       -0.0071927905,-0.0120098367,-0.0054756328,0.2738855183,0.8243451715,-2.4390149117
        0.2695438862,       -0.0071927905,-0.0120098367,-0.0054756328,0.4417321980,0.5802045465,-2.4390149117
        0.2721149921,       -0.0071927905,-0.0120098367,-0.0054756328,0.4417321980,0.5802045465,-2.4390149117
        0.2746839523,       -0.0071927905,-0.0120098367,-0.0142646953,0.1060388386,1.0227093697,-2.4237561226
        0.2772469521,       -0.0023099780,-0.0120098367,-0.0142646953,0.1060388386,1.0227093697,-2.4237561226
        0.2799820900,       -0.0023099780,-0.0120098367,-0.0142646953,0.5332849026,0.9464154840,-2.5610852242
        0.2826809883,       -0.0023099780,-0.0120098367,-0.0142646953,0.5332849026,0.9464154840,-2.5610852242
        0.2853820324,       -0.0086576343,-0.0124981180,-0.0044990703,0.7316491604,1.0684857368,-2.5305676460
        0.2880909443,       -0.0086576343,-0.0124981180,-0.0044990703,0.7316491604,1.0684857368,-2.5305676460
        0.2907850742,       -0.0086576343,-0.0124981180,-0.0044990703,1.0520837307,1.0990033150,-2.3627209663
        0.2935070992,       -0.0086576343,-0.0124981180,-0.0044990703,1.0520837307,1.0990033150,-2.3627209663
        0.2962498665,        0.0020845532,-0.0178692117,0.0023368672,0.3501794636,0.9311566949,-2.2559094429
        0.2989609241,        0.0020845532,-0.0178692117,0.0023368672,0.3501794636,0.9311566949,-2.2559094429
        0.3016629219,        0.0020845532,-0.0178692117,0.0023368672,0.0450036824,0.8396039605,-2.1796154976
        0.3043580055,        0.0020845532,-0.0178692117,-0.0074287578,0.0450036824,0.8396039605,-2.1796154976
        0.3071630001,       -0.0013334155,-0.0129863992,-0.0074287578,0.0450036824,1.0684857368,-2.2406506538
        0.3098731041,       -0.0013334155,-0.0129863992,-0.0074287578,0.0450036824,1.0684857368,-2.2406506538
        0.3125700951,       -0.0013334155,-0.0129863992,-0.0074287578,0.3349206746,0.9311566949,-2.2559094429
        0.3152720928,       -0.0013334155,-0.0120098367,-0.0118232891,0.3349206746,0.9311566949,-2.2559094429
        0.3179640770,       -0.0037748218,-0.0120098367,-0.0118232891,-0.1075842083,1.0837445259,-2.0422863960
        0.3205280304,       -0.0037748218,-0.0120098367,-0.0118232891,-0.1075842083,1.0837445259,-2.0422863960
        0.3230950832,       -0.0037748218,-0.0120098367,-0.0118232891,-0.2906896770,1.1447796822,-2.1338391304
        0.3256580830,       -0.0106107593,-0.0168926492,-0.0069404766,-0.2906896770,1.1447796822,-2.1338391304
        0.3282289505,       -0.0106107593,-0.0168926492,-0.0069404766,-0.1533605754,0.8853803277,-2.1948742867
        0.3307991028,       -0.0106107593,-0.0168926492,-0.0069404766,-0.1533605754,0.8853803277,-2.1948742867
        0.3333640099,       -0.0106107593,-0.0168926492,-0.0069404766,-0.0465490520,1.0684857368,-2.1796154976
        0.3359310627,       -0.0032865405,-0.0144512430,-0.0098701641,-0.0465490520,1.0684857368,-2.1796154976
        0.3386368752,       -0.0032865405,-0.0144512430,-0.0098701641,0.1975915730,0.9464154840,-2.2253918648
        0.3412039280,       -0.0032865405,-0.0144512430,-0.0098701641,0.1975915730,0.9464154840,-2.2253918648
        0.3437759876,       -0.0032865405,-0.0144512430,-0.0098701641,0.1975915730,1.0379681587,-2.5000500679
        0.3463408947,       -0.0062162280,-0.0134746805,-0.0064521953,0.1670739949,1.0379681587,-2.5000500679
        0.3490839005,       -0.0062162280,-0.0134746805,-0.0064521953,0.1670739949,0.5649457574,-2.3016858101
        0.3517720699,       -0.0062162280,-0.0134746805,-0.0064521953,0.0297448933,0.5649457574,-2.3016858101
        0.3544590473,       -0.0062162280,-0.0134746805,-0.0064521953,0.0297448933,0.7785688043,-2.0575451851
        0.3571488857,       -0.0101224780,-0.0159160867,-0.0025459453,-0.3669836223,0.7785688043,-2.0575451851
        0.3598270416,       -0.0101224780,-0.0159160867,-0.0025459453,-0.3669836223,0.7785688043,-2.1185803413
        0.3624858856,       -0.0101224780,-0.0159160867,-0.0025459453,-0.3822424114,0.8701215386,-2.1185803413
        0.3651530743,       -0.0101224780,-0.0159160867,-0.0049873516,-0.3822424114,0.8701215386,-2.0117688179
        0.3679790497,       -0.0125638843,-0.0139629617,-0.0049873516,0.2281091511,0.8548627496,-2.0117688179
        0.3706429005,       -0.0125638843,-0.0139629617,-0.0049873516,0.2281091511,0.8548627496,-2.2864270210
        0.3732089996,       -0.0125638843,-0.0139629617,-0.0049873516,0.4112146199,0.6412397027,-2.2864270210
        0.3757710457,       -0.0125638843,-0.0139629617,-0.0093818828,0.4112146199,0.6412397027,-1.9507336617
        0.3783988953,       -0.0057279468,-0.0139629617,-0.0093818828,-0.1381017864,1.0532269478,-1.9507336617
        0.3810949326,       -0.0057279468,-0.0139629617,-0.0093818828,-0.1381017864,1.0532269478,-2.0575451851
        0.3837890625,       -0.0057279468,-0.0139629617,-0.0093818828,-0.3822424114,0.8701215386,-2.0575451851
        0.3864898682,       -0.0091459155,-0.0154278055,-0.0005928203,-0.3822424114,0.8701215386,-5.9637951851
        0.3891968727,       -0.0091459155,-0.0154278055,-0.0005928203,-0.2449133098,0.6412397027,-2.1033215523
        0.3918941021,       -0.0091459155,-0.0154278055,-0.0005928203,-0.2449133098,0.6412397027,-2.1033215523
        0.3945910931,       -0.0091459155,-0.0154278055,-0.0005928203,-0.0160314739,0.6412397027,-2.1948742867
        0.3972890377,       -0.0032865405,-0.0159160867,-0.0025459453,-0.0160314739,0.6412397027,1.7113757133
        0.4000010490,       -0.0032865405,-0.0159160867,-0.0025459453,0.6400964260,0.8396039605,-1.6760754585
        0.4026980400,       -0.0032865405,-0.0159160867,-0.0025459453,0.6400964260,0.8396039605,-1.6760754585
        0.4053959846,       -0.0032865405,-0.0159160867,-0.0025459453,0.7163903713,0.8701215386,-1.7371106148
        0.4081599712,       -0.0091459155,-0.0144512430,-0.0025459453,0.7163903713,0.8701215386,-1.7371106148
        0.4108479023,       -0.0091459155,-0.0144512430,-0.0025459453,0.5332849026,0.9311566949,-2.0270276070
        0.4135420322,       -0.0091459155,-0.0144512430,-0.0025459453,0.5332849026,0.9311566949,-2.0270276070
        0.4162430763,       -0.0091459155,-0.0124981180,-0.0079170391,0.0602624714,0.6412397027,-1.8744397163
        0.4188809395,       -0.0037748218,-0.0124981180,-0.0079170391,0.0602624714,0.6412397027,-1.8744397163
        0.4214448929,       -0.0037748218,-0.0124981180,-0.0079170391,-0.0465490520,0.9158979058,-2.1490979195
        0.4240100384,       -0.0037748218,-0.0124981180,-0.0079170391,-0.0465490520,0.9158979058,-2.1490979195
        0.4265780449,       -0.0023099780,-0.0061504617,-0.0049873516,-0.3364660442,1.1295208931,-2.2253918648
        0.4292359352,       -0.0023099780,-0.0061504617,-0.0049873516,-0.3364660442,1.1295208931,-2.2253918648
        0.4319169521,       -0.0023099780,-0.0061504617,-0.0049873516,-0.2906896770,0.5954633355,-2.1033215523
        0.4345970154,       -0.0023099780,-0.0061504617,-0.0049873516,-0.2906896770,0.5954633355,-2.1033215523
        0.4373879433,       -0.0106107593,-0.0124981180,-0.0103584453,0.1518152058,0.4733930230,-2.3627209663
        0.4400758743,       -0.0106107593,-0.0124981180,-0.0103584453,0.1518152058,0.4733930230,-2.3627209663
        0.4427609444,       -0.0106107593,-0.0124981180,-0.0103584453,0.2433679402,0.9311566949,-2.2406506538
        0.4454400539,       -0.0106107593,-0.0124981180,-0.0103584453,0.2433679402,0.9311566949,-2.2406506538
        0.4481699467,       -0.0013334155,-0.0100567117,-0.0049873516,0.0450036824,1.1295208931,-2.2559094429
        0.4508569241,       -0.0013334155,-0.0100567117,-0.0049873516,0.0450036824,1.1295208931,-2.2559094429
        0.4535410404,       -0.0013334155,-0.0100567117,-0.0049873516,0.0144861042,1.3278851509,-2.1796154976
        0.4562270641,       -0.0013334155,-0.0105449930,-0.0084053203,0.0144861042,1.3278851509,-2.1796154976
        0.4589529037,       -0.0027982593,-0.0105449930,-0.0084053203,-0.0312902629,0.8090863824,-2.1490979195
        0.4616339207,       -0.0027982593,-0.0105449930,-0.0084053203,-0.0312902629,0.8090863824,-2.1490979195
        0.4643239975,       -0.0027982593,-0.0105449930,-0.0084053203,-0.0618078411,0.6564984918,-2.0880627632
        0.4670059681,       -0.0062162280,-0.0164043680,-0.0127998516,-0.0618078411,0.6564984918,-2.0880627632
        0.4696540833,       -0.0062162280,-0.0164043680,-0.0127998516,0.5943200588,0.8090863824,-2.4084973335
        0.4722259045,       -0.0062162280,-0.0164043680,-0.0127998516,0.5943200588,0.8090863824,-2.4084973335
        0.4747929573,       -0.0062162280,-0.0164043680,-0.0127998516,0.3806970417,1.0532269478,-2.3322033882
        0.4773559570,       -0.0091459155,-0.0139629617,-0.0005928203,0.3806970417,1.0532269478,-2.3322033882
        0.4801690578,       -0.0091459155,-0.0139629617,-0.0005928203,0.0907800496,0.8396039605,-1.9507336617
        0.4827508926,       -0.0091459155,-0.0139629617,-0.0005928203,0.0907800496,0.8396039605,-1.9507336617
        0.4853160381,       -0.0091459155,-0.0139629617,-0.0005928203,0.0907800496,0.6107221246,-2.0575451851
        0.4880769253,       -0.0067045093,-0.0139629617,-0.0103584453,-0.1075842083,0.6107221246,-2.0575451851
        0.4907419682,       -0.0067045093,-0.0139629617,-0.0103584453,-0.1075842083,0.5191693902,-2.2711682320
        0.4935040474,       -0.0067045093,-0.0139629617,-0.0103584453,-0.1075842083,0.5191693902,-2.2711682320
        0.4961678982,       -0.0067045093,-0.0139629617,-0.0010811016,-0.3669836223,0.6412397027,-2.3474621773
        0.4994430542,       -0.0057279468,-0.0144512430,-0.0010811016,-0.3669836223,0.6412397027,-2.3474621773
        0.5021159649,       -0.0057279468,-0.0144512430,-0.0010811016,0.2586267292,0.7175336480,-2.3016858101
        0.5046780109,       -0.0057279468,-0.0144512430,-0.0010811016,0.2586267292,0.7175336480,-2.3016858101
        0.5072450638,       -0.0018216968,-0.0095684305,-0.0049873516,0.5943200588,1.0379681587,-2.3627209663
        0.5098700523,       -0.0018216968,-0.0095684305,-0.0049873516,0.5943200588,1.0379681587,-2.3627209663
        0.5124320984,       -0.0018216968,-0.0095684305,-0.0049873516,0.5943200588,0.7327924371,-2.4695324898
        0.5149900913,       -0.0018216968,-0.0095684305,-0.0049873516,0.4569909871,0.7327924371,-2.4695324898
        0.5175468922,       -0.0052396655,-0.0105449930,-0.0132881328,0.4569909871,0.7327924371,-2.2406506538
        0.5201139450,       -0.0052396655,-0.0105449930,-0.0132881328,0.2281091511,0.6412397027,-2.2406506538
        0.5226769447,       -0.0052396655,-0.0105449930,-0.0132881328,0.2281091511,0.6412397027,-2.2406506538
        0.5252339840,       -0.0052396655,-0.0105449930,-0.0132881328,0.2738855183,0.8396039605,-2.3474621773
        0.5278060436,       -0.0101224780,-0.0105449930,0.0013603047,0.2738855183,0.8396039605,-2.3474621773
        0.5303699970,       -0.0101224780,-0.0105449930,0.0013603047,0.5180261135,0.6259809136,-2.2253918648
        0.5329339504,       -0.0101224780,-0.0105449930,0.0013603047,0.5180261135,0.6259809136,-2.2253918648
        0.5355010033,       -0.0101224780,-0.0105449930,0.0013603047,0.0144861042,0.5802045465,-2.2864270210
        0.5381128788,       -0.0052396655,-0.0159160867,-0.0054756328,0.0144861042,0.5802045465,-2.2864270210
        0.5406780243,       -0.0052396655,-0.0159160867,-0.0054756328,0.0450036824,0.8548627496,-2.4390149117
        0.5432400703,       -0.0052396655,-0.0159160867,-0.0054756328,0.0450036824,0.8548627496,-2.4390149117
        0.5458068848,       -0.0052396655,-0.0159160867,-0.0054756328,0.4417321980,0.7633100152,-2.3627209663
        0.5484628677,        0.0001314282,-0.0183574930,-0.0171943828,0.4417321980,0.7633100152,-2.3627209663
        0.5510239601,        0.0001314282,-0.0183574930,-0.0171943828,0.1518152058,0.8396039605,-2.1948742867
        0.5535900593,        0.0001314282,-0.0183574930,-0.0171943828,0.1518152058,0.8396039605,-2.1948742867
        0.5561599731,        0.0001314282,-0.0183574930,-0.0171943828,0.2586267292,0.9616742730,-2.1643567085
        0.5588860512,       -0.0057279468,-0.0168926492,-0.0054756328,0.2586267292,0.9616742730,-2.1643567085
        0.5615839958,       -0.0057279468,-0.0168926492,-0.0054756328,0.1518152058,0.4581342340,-2.1490979195
        0.5643858910,       -0.0057279468,-0.0168926492,-0.0054756328,0.1518152058,0.4581342340,-2.1490979195
        0.5670828819,       -0.0057279468,-0.0168926492,-0.0005928203,0.2128503621,0.8548627496,-2.2864270210
        0.5696840286,       -0.0013334155,-0.0144512430,-0.0005928203,0.2128503621,0.8548627496,-2.2864270210
        0.5722448826,       -0.0013334155,-0.0144512430,-0.0005928203,0.2128503621,0.6259809136,-2.2101330757
        0.5748059750,       -0.0013334155,-0.0144512430,-0.0005928203,0.1975915730,0.6259809136,-2.2101330757
        0.5773720741,       -0.0013334155,-0.0144512430,-0.0044990703,0.1975915730,4.5322308540,-2.3169445992
        0.5800700188,       -0.0081693530,-0.0154278055,-0.0044990703,-0.1533605754,0.9769330621,-2.3169445992
        0.5827698708,       -0.0081693530,-0.0154278055,-0.0044990703,-0.1533605754,-2.9293169975,-2.3474621773
        0.5854609013,       -0.0081693530,-0.0154278055,-0.0044990703,0.0297448933,0.6717572808,-2.3474621773
        0.5881450176,       -0.0096341968,-0.0207988992,-0.0044990703,0.0297448933,0.6717572808,-2.2711682320
        0.5907099247,       -0.0096341968,-0.0207988992,-0.0044990703,-0.1686193645,0.9616742730,-2.2711682320
        0.5932738781,       -0.0096341968,-0.0207988992,-0.0044990703,-0.1686193645,0.9616742730,-2.2711682320
        0.5958409309,       -0.0096341968,-0.0207988992,-0.0044990703,-0.3517248333,1.2363324165,-2.1490979195
        0.5985400677,       -0.0003568530,-0.0124981180,-0.0147529766,-0.3517248333,1.2363324165,-2.1490979195
        0.6011080742,       -0.0003568530,-0.0124981180,-0.0147529766,-0.3669836223,1.2058148384,-2.1643567085
        0.6036770344,       -0.0003568530,-0.0124981180,-0.0147529766,-0.3669836223,1.2058148384,-2.1643567085
        0.6062400341,       -0.0003568530,-0.0124981180,-0.0147529766,-0.1075842083,1.1447796822,-2.4542737007
        0.6088809967,       -0.0052396655,-0.0100567117,0.0013603047,-0.1075842083,1.1447796822,-2.4542737007
        0.6115849018,       -0.0052396655,-0.0100567117,0.0013603047,-0.1228429973,0.8548627496,-2.5000500679
        0.6143698692,       -0.0052396655,-0.0100567117,0.0013603047,-0.1228429973,0.8548627496,-2.5000500679
        0.6174840927,       -0.0052396655,-0.0100567117,-0.0044990703,-0.5043127537,1.1600384712,-2.3474621773
        0.6200509071,       -0.0013334155,-0.0154278055,-0.0044990703,-0.5043127537,1.1600384712,-2.3474621773
        0.6226119995,       -0.0013334155,-0.0154278055,-0.0044990703,-0.1533605754,0.8701215386,-2.3932385445
        0.6251790524,       -0.0013334155,-0.0154278055,-0.0044990703,-0.1533605754,0.8701215386,-2.3932385445
        0.6278979778,       -0.0013334155,-0.0154278055,-0.0020576641,-0.3364660442,0.6717572808,-2.3779797554
        0.6305909157,       -0.0057279468,-0.0115215555,-0.0020576641,-0.3364660442,0.6717572808,-2.3779797554
        0.6332900524,       -0.0057279468,-0.0115215555,-0.0020576641,-0.3669836223,0.7633100152,-2.3169445992
        0.6359899044,       -0.0057279468,-0.0115215555,-0.0020576641,-0.3669836223,0.7633100152,-2.3169445992
        0.6386899948,        0.0011079907,-0.0095684305,-0.0157295391,0.0755212605,1.0074505806,-2.3169445992
        0.6413869858,        0.0011079907,-0.0095684305,-0.0157295391,0.0755212605,1.0074505806,-2.3169445992
        0.6440808773,        0.0011079907,-0.0095684305,-0.0157295391,-0.1991369426,1.1447796822,-2.3779797554
        0.6467769146,        0.0011079907,-0.0095684305,-0.0157295391,-0.1991369426,1.1447796822,-2.3779797554
        0.6493818760,       -0.0091459155,-0.0134746805,-0.0025459453,0.1518152058,0.6870160699,-2.5763440132
        0.6519460678,       -0.0091459155,-0.0134746805,-0.0025459453,0.1518152058,0.6870160699,-2.5763440132
        0.6545140743,       -0.0091459155,-0.0134746805,-0.0025459453,0.3806970417,0.4886518121,-2.5458264351
        0.6570789814,       -0.0091459155,-0.0134746805,-0.0025459453,0.3806970417,0.4886518121,-2.5458264351
        0.6597790718,        0.0006197095,-0.0115215555,-0.0064521953,0.1975915730,0.7480512261,-2.3779797554
        0.6623449326,        0.0006197095,-0.0115215555,-0.0064521953,0.1975915730,0.7480512261,-2.3779797554
        0.6649119854,        0.0006197095,-0.0115215555,-0.0064521953,0.1975915730,1.2363324165,-2.0880627632
        0.6675920486,        0.0006197095,-0.0115215555,-0.0064521953,0.2586267292,1.2363324165,-2.0880627632
        0.6701600552,       -0.0081693530,-0.0154278055,-0.0059639141,0.2586267292,1.2668499947,-2.1033215523
        0.6727280617,       -0.0081693530,-0.0154278055,-0.0059639141,0.0144861042,1.2668499947,-2.1033215523
        0.6753010750,       -0.0081693530,-0.0154278055,-0.0059639141,0.0144861042,1.2668499947,-2.3169445992
        0.6778869629,       -0.0081693530,-0.0154278055,-0.0059639141,0.0450036824,0.8396039605,-2.3169445992
        0.6805889606,       -0.0003568530,-0.0173809305,-0.0074287578,0.0450036824,0.8396039605,-2.3016858101
        0.6832849979,       -0.0003568530,-0.0173809305,-0.0074287578,0.2281091511,0.8243451715,-2.3016858101
        0.6859779358,       -0.0003568530,-0.0173809305,-0.0074287578,0.2281091511,0.8243451715,-2.4542737007
        0.6886699200,       -0.0003568530,-0.0120098367,0.0038017109,-0.2754308879,1.2668499947,-2.4542737007
        0.6914420128,       -0.0096341968,-0.0120098367,0.0038017109,-0.2754308879,1.2668499947,-2.4390149117
        0.6942229271,       -0.0096341968,-0.0120098367,0.0038017109,0.1212976277,1.2058148384,-2.4390149117
        0.6967840195,       -0.0096341968,-0.0120098367,0.0038017109,0.1212976277,1.2058148384,-2.1643567085
        0.6995239258,       -0.0032865405,-0.0120098367,-0.0030342266,0.3349206746,0.7633100152,-2.1643567085
        0.7020900249,       -0.0032865405,-0.0120098367,-0.0030342266,0.3349206746,0.7633100152,-2.1643567085
        0.7046508789,       -0.0032865405,-0.0120098367,-0.0030342266,0.1975915730,1.1142621040,-2.1796154976
        0.7072138786,       -0.0032865405,-0.0120098367,-0.0030342266,0.1975915730,1.1142621040,-2.1796154976
        0.7098290920,        0.0011079907,-0.0129863992,-0.0079170391,0.1212976277,1.1752972603,-1.9202160835
        0.7123899460,        0.0011079907,-0.0129863992,-0.0079170391,0.1212976277,1.1752972603,-1.9202160835
        0.7149610519,        0.0011079907,-0.0129863992,-0.0079170391,-0.0007726848,0.8243451715,-2.0422863960
        0.7175209522,        0.0011079907,-0.0129863992,-0.0079170391,-0.0007726848,0.8243451715,-2.0422863960
        0.7200820446,       -0.0106107593,-0.0144512430,0.0018485859,-0.2143957317,0.9006391168,-2.4542737007
        0.7226510048,       -0.0106107593,-0.0144512430,0.0018485859,-0.2143957317,0.9006391168,-2.4542737007
        0.7252130508,       -0.0106107593,-0.0144512430,0.0018485859,0.2281091511,0.8396039605,-2.5916028023
        0.7277979851,       -0.0106107593,-0.0144512430,0.0018485859,0.2281091511,0.8396039605,-2.5916028023
        0.7303628922,       -0.0042631030,-0.0154278055,-0.0035225078,-0.0465490520,1.1600384712,-2.3474621773
        0.7329280376,       -0.0042631030,-0.0154278055,-0.0035225078,-0.0465490520,1.1600384712,-2.3474621773
        0.7354879379,       -0.0042631030,-0.0154278055,-0.0035225078,-0.0465490520,0.9921918511,-2.6373791695
        0.7380840778,       -0.0042631030,-0.0154278055,-0.0035225078,0.4417321980,0.9921918511,-2.6373791695
        0.7406480312,       -0.0042631030,-0.0164043680,-0.0108467266,0.4417321980,0.9921918511,-2.7136731148
        0.7432188988,       -0.0042631030,-0.0164043680,-0.0108467266,0.5638024807,0.7480512261,-2.7136731148
        0.7457830906,       -0.0042631030,-0.0164043680,-0.0108467266,0.5638024807,0.7480512261,-2.2711682320
        0.7484810352,       -0.0042631030,-0.0164043680,-0.0108467266,-0.1075842083,1.1295208931,-2.2711682320
        0.7510499954,       -0.0081693530,-0.0115215555,-0.0001045391,-0.1075842083,1.1295208931,-2.2711682320
        0.7537209988,       -0.0081693530,-0.0115215555,-0.0001045391,-0.1991369426,1.2515912056,-2.1643567085
        0.7562899590,       -0.0081693530,-0.0115215555,-0.0001045391,-0.1991369426,1.2515912056,-2.1643567085
        0.7588920593,       -0.0081693530,-0.0115215555,-0.0015693828,-0.0312902629,1.1447796822,-2.3016858101
        0.7614529133,       -0.0037748218,-0.0154278055,-0.0015693828,-0.0312902629,1.1447796822,-2.3016858101
        0.7640140057,       -0.0037748218,-0.0154278055,-0.0015693828,0.7469079494,0.6870160699,-2.7747082710
        0.7665729523,       -0.0037748218,-0.0154278055,-0.0015693828,0.7469079494,0.6870160699,-2.7747082710
        0.7691478729,       -0.0037748218,-0.0154278055,-0.0025459453,0.2433679402,1.0379681587,-2.5610852242
        0.7717220783,       -0.0062162280,-0.0134746805,-0.0025459453,0.2433679402,1.0379681587,-2.5610852242
        0.7742900848,       -0.0062162280,-0.0134746805,-0.0025459453,0.4112146199,0.7938275933,-2.1643567085
        0.7768599987,       -0.0062162280,-0.0134746805,-0.0025459453,0.4112146199,0.7938275933,-2.1643567085
        0.7795710564,       -0.0062162280,-0.0159160867,-0.0167061016,0.1060388386,0.8853803277,-2.1033215523
        0.7822670937,       -0.0018216968,-0.0159160867,-0.0167061016,0.1060388386,0.8853803277,-2.1033215523
        0.7849628925,       -0.0018216968,-0.0159160867,-0.0167061016,0.4722497761,0.9006391168,-2.3169445992
        0.7879168987,       -0.0018216968,-0.0159160867,-0.0167061016,0.4722497761,0.9006391168,-2.3169445992
        0.7905740738,       -0.0037748218,-0.0110332742,0.0042899922,0.8079431057,0.5954633355,-2.3169445992
        0.7940850258,       -0.0037748218,-0.0110332742,0.0042899922,0.8079431057,0.5954633355,-2.3169445992
        0.7966549397,       -0.0037748218,-0.0110332742,0.0042899922,0.5027673244,0.7633100152,-2.2406506538
        0.7992889881,       -0.0037748218,-0.0110332742,-0.0069404766,0.5027673244,0.7633100152,-2.2406506538
        0.8018538952,       -0.0071927905,-0.0159160867,-0.0069404766,0.5027673244,0.9769330621,-2.1338391304
        0.8044140339,       -0.0071927905,-0.0159160867,-0.0069404766,0.5027673244,0.9769330621,-2.1338391304
        0.8069789410,       -0.0071927905,-0.0159160867,-0.0069404766,0.3654382527,0.7785688043,-2.1796154976
        0.8095490932,       -0.0071927905,-0.0159160867,0.0008720234,0.3654382527,0.7785688043,-2.1796154976
        0.8121099472,       -0.0091459155,-0.0090801492,0.0008720234,0.3349206746,0.7480512261,-1.9659924507
        0.8146710396,       -0.0091459155,-0.0090801492,0.0008720234,0.3349206746,0.7480512261,-1.9659924507
        0.8173410892,       -0.0091459155,-0.0090801492,0.0008720234,0.3349206746,0.7480512261,-2.5610852242
        0.8199169636,       -0.0091459155,-0.0168926492,-0.0054756328,0.4569909871,0.7480512261,-2.5610852242
        0.8224780560,       -0.0076810718,-0.0168926492,-0.0054756328,0.4569909871,0.7480512261,-2.7899670601
        0.8250410557,       -0.0076810718,-0.0168926492,-0.0054756328,0.6248376369,0.5496869683,-2.7899670601
        0.8276031017,       -0.0076810718,-0.0168926492,-0.0054756328,0.6248376369,0.5496869683,-2.3779797554
        0.8301649094,       -0.0076810718,-0.0110332742,-0.0005928203,0.7163903713,0.9464154840,-2.3779797554
        0.8327240944,        0.0015962720,-0.0110332742,-0.0005928203,0.7163903713,0.9464154840,-2.3779797554
        0.8352830410,        0.0015962720,-0.0110332742,-0.0005928203,0.2128503621,0.8853803277,-2.2559094429
        0.8379139900,        0.0015962720,-0.0110332742,-0.0005928203,0.2128503621,0.8853803277,-2.2559094429
        0.8404870033,        0.0015962720,-0.0110332742,-0.0113350078,0.3959558308,0.4581342340,-2.8204846382
        0.8430569172,       -0.0071927905,-0.0110332742,-0.0113350078,0.3959558308,0.4581342340,-2.8204846382
        0.8456239700,       -0.0071927905,-0.0110332742,-0.0113350078,0.6400964260,0.3970990777,-2.7289319038
        0.8482499123,       -0.0071927905,-0.0110332742,-0.0113350078,0.6400964260,0.3970990777,-2.7289319038
        0.8509500027,       -0.0047513843,-0.0061504617,-0.0162178203,0.7163903713,0.5649457574,-2.6678967476
        0.8536529541,       -0.0047513843,-0.0061504617,-0.0162178203,0.7163903713,0.5649457574,-2.6678967476
        0.8563489914,       -0.0047513843,-0.0061504617,-0.0162178203,-0.2143957317,1.1447796822,-2.1948742867
        0.8589890003,       -0.0047513843,-0.0061504617,-0.0162178203,-0.2143957317,1.1447796822,-2.1948742867
        0.8615550995,       -0.0067045093,-0.0149395242,-0.0157295391,0.1823327839,1.0227093697,-2.1643567085
        0.8641209602,       -0.0067045093,-0.0149395242,-0.0157295391,0.1823327839,1.0227093697,-2.1643567085
        0.8666899204,       -0.0067045093,-0.0149395242,-0.0157295391,0.6248376369,0.4886518121,-2.6678967476
        0.8694019318,       -0.0067045093,-0.0149395242,-0.0157295391,0.6248376369,0.4886518121,-2.6678967476
        0.8720998764,       -0.0067045093,-0.0178692117,-0.0020576641,0.4875085652,0.6870160699,-2.6831555367
        0.8747968674,       -0.0067045093,-0.0178692117,-0.0020576641,0.4875085652,0.6870160699,-2.6831555367
        0.8775038719,       -0.0067045093,-0.0178692117,-0.0020576641,0.5332849026,0.7480512261,-2.4695324898
        0.8803100586,       -0.0067045093,-0.0178692117,-0.0020576641,0.5332849026,0.7480512261,-2.4695324898
        0.8830130100,       -0.0062162280,-0.0154278055,-0.0020576641,0.2281091511,0.8396039605,-2.2711682320
        0.8857069016,       -0.0062162280,-0.0154278055,-0.0020576641,0.2281091511,0.8396039605,-2.2711682320
        0.8884189129,       -0.0062162280,-0.0154278055,-0.0020576641,0.0297448933,1.0227093697,-2.1490979195
        0.8911190033,       -0.0091459155,-0.0164043680,-0.0088936016,0.0297448933,1.0227093697,-2.1490979195
        0.8938128948,       -0.0091459155,-0.0164043680,-0.0088936016,-0.0007726848,0.8548627496,-1.8134045601
        0.8965148926,       -0.0091459155,-0.0164043680,-0.0088936016,-0.0007726848,0.8548627496,-1.8134045601
        0.8992300034,       -0.0091459155,-0.0164043680,-0.0088936016,-0.2601720989,0.6717572808,-2.0880627632
        0.9019229412,       -0.0130521655,-0.0124981180,0.0023368672,-0.2601720989,0.6717572808,-2.0880627632
        0.9047019482,       -0.0130521655,-0.0124981180,0.0023368672,0.0297448933,0.7480512261,-2.0728039742
        0.9073989391,       -0.0130521655,-0.0124981180,0.0023368672,0.0297448933,0.7480512261,-2.0728039742
        0.9100139141,       -0.0130521655,-0.0124981180,0.0023368672,0.5180261135,0.9311566949,-1.7523694038
        0.9125778675,       -0.0052396655,-0.0144512430,-0.0108467266,0.5180261135,0.9311566949,-1.7523694038
        0.9151458740,       -0.0052396655,-0.0144512430,-0.0108467266,0.5180261135,0.6412397027,-1.9659924507
        0.9177908897,       -0.0052396655,-0.0144512430,-0.0108467266,0.3501794636,0.6412397027,-1.9659924507
        0.9204869270,       -0.0052396655,-0.0144512430,-0.0054756328,0.3501794636,0.6259809136,-1.9049572945
        0.9231829643,       -0.0047513843,-0.0095684305,-0.0054756328,0.4722497761,0.6259809136,-1.9049572945
        0.9258830547,       -0.0047513843,-0.0095684305,-0.0054756328,0.4722497761,0.6717572808,-1.9812512398
        0.9285969734,       -0.0047513843,-0.0095684305,-0.0054756328,-0.0312902629,0.6717572808,-1.9812512398
        0.9312939644,       -0.0047513843,-0.0110332742,-0.0025459453,-0.0312902629,0.9006391168,-1.9965100288
        0.9339880943,        0.0001314282,-0.0110332742,-0.0025459453,-0.2296545208,0.9006391168,-1.9965100288
        0.9366788864,        0.0001314282,-0.0110332742,-0.0025459453,-0.2296545208,0.9006391168,-2.1643567085
        0.9393069744,        0.0001314282,-0.0110332742,-0.0025459453,0.3196618855,0.6564984918,-2.1643567085
        0.9418740273,       -0.0062162280,-0.0168926492,-0.0035225078,0.3196618855,0.6564984918,-2.1643567085
        0.9445419312,       -0.0062162280,-0.0168926492,-0.0035225078,-0.0312902629,0.6870160699,-2.1643567085
        0.9471130371,       -0.0062162280,-0.0168926492,-0.0035225078,-0.0312902629,0.6870160699,-2.0728039742
        0.9498260021,       -0.0062162280,-0.0168926492,-0.0035225078,0.0144861042,0.9311566949,-2.0728039742
        0.9523980618,       -0.0003568530,-0.0144512430,-0.0162178203,0.0144861042,0.9311566949,-2.0728039742
        0.9549610615,       -0.0003568530,-0.0144512430,-0.0162178203,0.1518152058,0.7785688043,-2.2101330757
        0.9575948715,       -0.0003568530,-0.0144512430,-0.0162178203,0.1518152058,0.7785688043,-2.2101330757
        0.9601850510,       -0.0003568530,-0.0144512430,-0.0162178203,-0.0160314739,0.7022748590,-2.2406506538
        0.9627559185,       -0.0110990405,-0.0168926492,-0.0040107891,-0.0160314739,0.7022748590,-2.2406506538
        0.9653198719,       -0.0110990405,-0.0168926492,-0.0040107891,-0.3059484661,1.1447796822,-2.1796154976
        0.9679589272,       -0.0110990405,-0.0168926492,-0.0040107891,-0.3059484661,1.1447796822,-2.1796154976
        0.9706559181,       -0.0110990405,-0.0168926492,-0.0040107891,0.1670739949,1.0990033150,-1.9965100288
        0.9733579159,       -0.0076810718,-0.0144512430,-0.0059639141,0.1670739949,1.0990033150,-1.9965100288
        0.9760510921,       -0.0076810718,-0.0144512430,-0.0059639141,0.4875085652,0.8548627496,-2.1185803413
        0.9787669182,       -0.0076810718,-0.0144512430,-0.0059639141,0.4875085652,0.8548627496,-2.1185803413
        0.9814660549,       -0.0076810718,-0.0168926492,-0.0108467266,0.4417321980,0.3665814996,-2.8204846382
        0.9841580391,       -0.0091459155,-0.0168926492,-0.0108467266,0.4417321980,0.3665814996,-2.8204846382
        0.9868540764,       -0.0091459155,-0.0168926492,-0.0108467266,0.6400964260,0.5649457574,-2.5153088570
        0.9895679951,       -0.0091459155,-0.0168926492,-0.0108467266,0.6400964260,0.5649457574,-2.5153088570
        0.9922659397,       -0.0052396655,-0.0110332742,-0.0044990703,0.5485436916,0.4123578668,-2.0728039742
        0.9949679375,       -0.0052396655,-0.0110332742,-0.0044990703,0.5485436916,0.4123578668,-2.0728039742
        0.9975979328,       -0.0052396655,-0.0110332742,-0.0044990703,0.2738855183,0.5954633355,-2.2559094429
        1.0002779961,       -0.0052396655,-0.0110332742,-0.0044990703,0.2738855183,0.5954633355,-2.2559094429
        1.0030410290,       -0.0052396655,-0.0139629617,0.0013603047,-0.2906896770,0.7327924371,-2.0575451851
        1.0057048798,       -0.0052396655,-0.0139629617,0.0013603047,-0.2906896770,0.7327924371,-2.0575451851
        1.0086441040,       -0.0052396655,-0.0139629617,0.0013603047,-0.0160314739,0.5496869683,-2.4084973335
        1.0112118721,       -0.0052396655,-0.0139629617,0.0013603047,-0.0160314739,0.5496869683,-2.4084973335
        1.0137739182,       -0.0018216968,-0.0090801492,-0.0123115703,-0.0770666301,0.5344281793,-2.4084973335
        1.0163450241,       -0.0018216968,-0.0090801492,-0.0123115703,-0.0770666301,0.5344281793,-2.4084973335
        1.0189878941,       -0.0018216968,-0.0090801492,-0.0123115703,0.6248376369,0.3208051324,-2.7747082710
        1.0216710567,       -0.0018216968,-0.0090801492,0.0003837422,0.6248376369,0.3208051324,-2.7747082710
        1.0243539810,       -0.0013334155,-0.0124981180,0.0003837422,0.3501794636,0.3665814996,-2.5763440132
        1.0270340443,       -0.0013334155,-0.0124981180,0.0003837422,0.3501794636,0.3665814996,-2.5763440132
        1.0297269821,       -0.0013334155,-0.0124981180,0.0003837422,-0.3975012004,0.6717572808,-2.2101330757
        1.0324099064,       -0.0071927905,-0.0178692117,-0.0001045391,-0.3975012004,0.6717572808,-2.2101330757
        1.0350909233,       -0.0071927905,-0.0178692117,-0.0001045391,-0.4890539348,0.6412397027,-2.3322033882
        1.0377728939,       -0.0071927905,-0.0178692117,-0.0001045391,-0.4890539348,0.6412397027,-2.3322033882
        1.0403389931,       -0.0071927905,-0.0178692117,-0.0001045391,-0.4890539348,0.4733930230,-2.3932385445
        1.0429060459,       -0.0032865405,-0.0168926492,-0.0054756328,-0.2754308879,0.4733930230,-2.3932385445
        1.0454740524,       -0.0032865405,-0.0168926492,-0.0054756328,-0.2754308879,0.4733930230,-2.5000500679
        1.0480458736,       -0.0032865405,-0.0168926492,-0.0054756328,-0.1075842083,0.7633100152,-2.5000500679
        1.0506129265,       -0.0032865405,-0.0168926492,-0.0054756328,-0.1075842083,0.7633100152,-2.6526379585
        1.0531799793,        0.0020845532,-0.0120098367,-0.0098701641,-0.0923254192,0.5802045465,-2.6526379585
        1.0557470322,        0.0020845532,-0.0120098367,-0.0098701641,-0.0923254192,0.5802045465,-2.6526379585
        1.0584719181,        0.0020845532,-0.0120098367,-0.0098701641,-0.0160314739,0.5039106011,-2.4847912788
        1.0610389709,        0.0020845532,-0.0120098367,-0.0098701641,-0.0160314739,0.5039106011,-2.4847912788
        1.0636038780,       -0.0081693530,-0.0090801492,0.0042899922,-0.1686193645,0.4428754449,-2.2559094429
        1.0661718845,       -0.0081693530,-0.0090801492,0.0042899922,-0.1686193645,0.4428754449,-2.2559094429
        1.0689609051,       -0.0081693530,-0.0090801492,0.0042899922,-0.3975012004,0.9158979058,-2.3932385445
        1.0717570782,       -0.0081693530,-0.0090801492,0.0042899922,-0.3975012004,0.9158979058,-2.3932385445
        1.0744650364,       -0.0013334155,-0.0168926492,-0.0103584453,0.0450036824,0.7480512261,-2.9578137398
        1.0771579742,       -0.0013334155,-0.0168926492,-0.0103584453,0.0450036824,0.7480512261,-2.9578137398
        1.0798630714,       -0.0013334155,-0.0168926492,-0.0103584453,0.2586267292,0.6412397027,-2.5610852242
        1.0825588703,       -0.0013334155,-0.0105449930,0.0028251484,0.2586267292,0.6412397027,-2.5610852242
        1.0852530003,       -0.0071927905,-0.0105449930,0.0028251484,0.7163903713,0.4733930230,-2.5305676460
        1.0879619122,       -0.0071927905,-0.0105449930,0.0028251484,0.7163903713,0.4733930230,-2.5305676460
        1.0906569958,       -0.0071927905,-0.0105449930,0.0028251484,0.6095788479,0.4123578668,-2.6526379585
        1.0933580399,       -0.0008451343,-0.0110332742,-0.0079170391,0.6095788479,0.4123578668,-2.6526379585
        1.0960559845,       -0.0008451343,-0.0110332742,-0.0079170391,0.3501794636,0.5039106011,-2.7289319038
        1.0987699032,       -0.0008451343,-0.0110332742,-0.0079170391,0.3501794636,0.5039106011,-2.7289319038
        1.1014709473,       -0.0008451343,-0.0110332742,-0.0079170391,0.4112146199,0.7480512261,-2.4237561226
        1.1041660309,       -0.0018216968,-0.0159160867,-0.0118232891,0.4112146199,0.7480512261,-2.4237561226
        1.1068630219,       -0.0018216968,-0.0159160867,-0.0118232891,0.3654382527,0.8090863824,-2.6221203804
        1.1096360683,       -0.0018216968,-0.0159160867,-0.0118232891,0.3654382527,0.8090863824,-2.6221203804
        1.1123359203,       -0.0018216968,-0.0159160867,-0.0001045391,0.4264734089,0.6564984918,-2.6373791695
        1.1150310040,       -0.0091459155,-0.0164043680,-0.0001045391,0.4264734089,0.6564984918,-2.6373791695
        1.1177480221,       -0.0091459155,-0.0164043680,-0.0001045391,0.4264734089,0.6107221246,-2.5153088570
        1.1204459667,       -0.0091459155,-0.0164043680,-0.0001045391,0.4264734089,0.6107221246,-2.5153088570
        1.1231460571,       -0.0091459155,-0.0120098367,-0.0113350078,0.0907800496,0.6259809136,-2.2253918648
        1.1260719299,       -0.0057279468,-0.0120098367,-0.0113350078,0.0907800496,0.6259809136,-2.2253918648
        1.1291100979,       -0.0057279468,-0.0120098367,-0.0113350078,-0.0160314739,0.9464154840,-2.0728039742
        1.1318030357,       -0.0057279468,-0.0120098367,-0.0113350078,-0.0160314739,0.9464154840,-2.0728039742
        1.1345009804,       -0.0052396655,-0.0115215555,-0.0074287578,-0.1381017864,0.6870160699,-2.3474621773
        1.1371989250,       -0.0052396655,-0.0115215555,-0.0074287578,-0.1381017864,0.6870160699,-2.3474621773
        1.1400530338,       -0.0052396655,-0.0115215555,-0.0074287578,0.2891443074,0.6412397027,-2.5916028023
        1.1427478790,       -0.0052396655,-0.0115215555,-0.0137764141,0.2891443074,0.6412397027,-2.5916028023
        1.1454470158,       -0.0047513843,-0.0124981180,-0.0137764141,0.0755212605,0.7327924371,-2.3779797554
        1.1481530666,       -0.0047513843,-0.0124981180,-0.0137764141,0.0755212605,0.7327924371,-2.3779797554
        1.1508479118,       -0.0047513843,-0.0124981180,-0.0137764141,0.1060388386,0.9158979058,-2.3322033882
        1.1535420418,       -0.0047513843,-0.0134746805,-0.0025459453,0.1060388386,0.9158979058,-2.3322033882
        1.1562380791,       -0.0067045093,-0.0134746805,-0.0025459453,0.4569909871,0.5954633355,-2.4542737007
        1.1588790417,       -0.0067045093,-0.0134746805,-0.0025459453,0.4569909871,0.5954633355,-2.4542737007
        1.1614429951,       -0.0067045093,-0.0134746805,-0.0025459453,0.6248376369,0.5191693902,-2.6221203804
        1.1640028954,       -0.0018216968,-0.0173809305,-0.0123115703,0.6248376369,0.5191693902,-2.6221203804
        1.1665740013,       -0.0018216968,-0.0173809305,-0.0123115703,0.6706140041,0.3818402886,-2.5916028023
        1.1691498756,       -0.0018216968,-0.0173809305,-0.0123115703,0.6706140041,0.3818402886,-2.5916028023
        1.1717150211,       -0.0018216968,-0.0173809305,-0.0123115703,0.0755212605,0.8090863824,-2.2711682320
        1.1742839813,       -0.0081693530,-0.0124981180,-0.0142646953,0.0755212605,0.8090863824,-2.2711682320
        1.1768538952,       -0.0081693530,-0.0124981180,-0.0142646953,0.0144861042,0.9464154840,-2.2101330757
        1.1795809269,       -0.0081693530,-0.0124981180,-0.0142646953,0.0144861042,0.9464154840,-2.2101330757
        1.1821510792,       -0.0081693530,-0.0124981180,-0.0142646953,0.4569909871,0.7480512261,-2.5305676460
        1.1847119331,       -0.0052396655,-0.0154278055,-0.0108467266,0.4569909871,0.7480512261,-2.5305676460
        1.1872830391,       -0.0052396655,-0.0154278055,-0.0108467266,0.4569909871,0.6717572808,-2.5916028023
        1.1900930405,       -0.0052396655,-0.0154278055,-0.0108467266,0.3654382527,0.6717572808,-2.5916028023
        1.1927940845,       -0.0052396655,-0.0154278055,-0.0108467266,-3.5408117771,0.8701215386,-2.4695324898
        1.1954920292,       -0.0037748218,-0.0100567117,-0.0118232891,-0.0312902629,0.8701215386,-2.4695324898
        1.1982018948,       -0.0037748218,-0.0100567117,-0.0118232891,-0.0312902629,0.9769330621,-2.3169445992
        1.2008988857,       -0.0037748218,-0.0100567117,-0.0118232891,0.1060388386,0.9769330621,-2.3169445992
        1.2037029266,       -0.0037748218,-0.0159160867,0.0003837422,0.1060388386,0.5802045465,-2.1948742867
        1.2063980103,       -0.0042631030,-0.0159160867,0.0003837422,0.1670739949,0.5802045465,-2.1948742867
        1.2090659142,       -0.0042631030,-0.0159160867,0.0003837422,0.1670739949,0.5344281793,-2.4542737007
        1.2116279602,       -0.0042631030,-0.0159160867,0.0003837422,-0.1381017864,0.5344281793,-2.4542737007
        1.2141919136,       -0.0096341968,-0.0129863992,-0.0044990703,-0.1381017864,0.5344281793,-2.5153088570
        1.2167589664,       -0.0096341968,-0.0129863992,-0.0044990703,-0.1533605754,0.8090863824,-2.5153088570
        1.2194449902,       -0.0096341968,-0.0129863992,-0.0044990703,-0.1533605754,0.8090863824,-2.4847912788
        1.2221450806,       -0.0096341968,-0.0129863992,-0.0044990703,0.2281091511,0.6259809136,-2.4847912788
        1.2248439789,        0.0001314282,-0.0168926492,-0.0069404766,0.2281091511,0.6259809136,-2.7136731148
        1.2275519371,        0.0001314282,-0.0168926492,-0.0069404766,0.7163903713,0.3055463433,-2.7136731148
        1.2301220894,        0.0001314282,-0.0168926492,-0.0069404766,0.7163903713,0.3055463433,-2.7136731148
        1.2326850891,        0.0001314282,-0.0168926492,-0.0069404766,0.2433679402,0.6564984918,-2.3474621773
        1.2352490425,       -0.0008451343,-0.0090801492,-0.0098701641,0.2433679402,0.6564984918,-2.3474621773
        1.2378149033,       -0.0008451343,-0.0090801492,-0.0098701641,-0.1533605754,0.8853803277,-2.3474621773
        1.2403841019,       -0.0008451343,-0.0090801492,-0.0098701641,-0.1533605754,0.8853803277,-2.3474621773
        1.2429518700,       -0.0008451343,-0.0090801492,-0.0098701641,-0.1533605754,1.0990033150,-2.0270276070
        1.2456009388,       -0.0086576343,-0.0120098367,-0.0069404766,-0.1533605754,1.0990033150,-2.0270276070
        1.2481739521,       -0.0086576343,-0.0120098367,-0.0069404766,-0.1533605754,1.0227093697,-2.3474621773
        1.2507410049,       -0.0086576343,-0.0120098367,-0.0069404766,-0.1533605754,1.0227093697,-2.3474621773
        1.2533049583,       -0.0086576343,-0.0120098367,-0.0069404766,-0.1075842083,0.9158979058,-2.7899670601
        1.2558729649,        0.0050142407,-0.0105449930,-0.0074287578,-0.1075842083,0.9158979058,-2.7899670601
        1.2584359646,        0.0050142407,-0.0105449930,-0.0074287578,-0.1075842083,0.8548627496,-2.7136731148
        1.2609989643,        0.0050142407,-0.0105449930,-0.0074287578,-0.1075842083,0.8548627496,-2.7136731148
        1.2635610104,        0.0050142407,-0.0105449930,-0.0074287578,-0.1075842083,0.5039106011,-2.8662610054
        1.2662289143,       -0.0130521655,-0.0193340555,-0.0015693828,0.3196618855,0.5039106011,-2.8662610054
        1.2688028812,       -0.0130521655,-0.0193340555,-0.0015693828,0.3196618855,0.9158979058,-2.7899670601
        1.2713758945,       -0.0130521655,-0.0193340555,-0.0015693828,0.1365564167,0.9158979058,-2.7899670601
        1.2739360332,       -0.0130521655,-0.0193340555,-0.0098701641,0.1365564167,0.9158979058,-2.8510022163
        1.2765109539,       -0.0057279468,-0.0110332742,-0.0098701641,0.3959558308,0.8701215386,-2.8510022163
        1.2791290283,       -0.0057279468,-0.0110332742,-0.0098701641,0.3959558308,0.8701215386,-2.8510022163
        1.2816898823,       -0.0057279468,-0.0110332742,-0.0098701641,0.5180261135,0.4123578668,-2.6678967476
        1.2842619419,       -0.0057279468,-0.0110332742,-0.0088936016,0.5180261135,0.4123578668,-2.6678967476
        1.2868230343,       -0.0076810718,-0.0159160867,-0.0088936016,0.4875085652,0.7175336480,-2.5763440132
        1.2894179821,       -0.0076810718,-0.0159160867,-0.0088936016,0.4875085652,0.7175336480,-2.5763440132
        1.2919809818,       -0.0076810718,-0.0159160867,-0.0088936016,0.1975915730,0.1987348199,-2.8357434273
        1.2945408821,       -0.0076810718,-0.0173809305,-0.0132881328,0.1975915730,0.1987348199,-2.8357434273
        1.2971069813,       -0.0052396655,-0.0173809305,-0.0132881328,0.7011315823,0.1529584527,-2.9425549507
        1.2999610901,       -0.0052396655,-0.0173809305,-0.0132881328,0.7011315823,0.1529584527,-2.9425549507
        1.3025310040,       -0.0052396655,-0.0173809305,-0.0132881328,0.6858727932,0.2597699761,-2.6526379585
        1.3051009178,       -0.0067045093,-0.0076153055,-0.0049873516,0.6858727932,0.2597699761,-2.6526379585
        1.3078639507,       -0.0067045093,-0.0076153055,-0.0049873516,0.5790612698,0.4886518121,-2.6984143257
        1.3104290962,       -0.0067045093,-0.0076153055,-0.0049873516,0.5790612698,0.4886518121,-2.6984143257
        1.3130788803,       -0.0067045093,-0.0076153055,-0.0049873516,0.0755212605,0.9921918511,-2.3474621773
        1.3156490326,       -0.0086576343,-0.0144512430,-0.0030342266,0.0755212605,0.9921918511,-2.3474621773
        1.3189580441,       -0.0086576343,-0.0144512430,-0.0030342266,0.0602624714,0.9616742730,-2.4237561226
        1.3215279579,       -0.0086576343,-0.0144512430,-0.0030342266,0.0602624714,0.9616742730,-2.4237561226
        1.3240931034,       -0.0086576343,-0.0144512430,-0.0030342266,0.5638024807,0.8243451715,-2.6221203804
        1.3266530037,       -0.0037748218,-0.0144512430,-0.0040107891,0.5638024807,0.8243451715,-2.6221203804
        1.3293979168,       -0.0037748218,-0.0144512430,-0.0040107891,0.8384606838,0.5039106011,-2.8815197945
        1.3319668770,       -0.0037748218,-0.0144512430,-0.0040107891,0.8384606838,0.5039106011,-2.8815197945
        1.3345310688,       -0.0037748218,-0.0144512430,-0.0030342266,0.4112146199,0.8090863824,-3.0341076851
        1.3370928764,       -0.0071927905,-0.0159160867,-0.0030342266,0.4112146199,0.8090863824,-3.0341076851
        1.3396821022,       -0.0071927905,-0.0159160867,-0.0030342266,-3.4950354099,0.4428754449,-2.9120373726
        1.3422470093,       -0.0071927905,-0.0159160867,-0.0030342266,0.2891443074,0.4428754449,-2.9120373726
        1.3448109627,       -0.0071927905,-0.0159160867,-0.0167061016,0.2891443074,0.4428754449,-2.7594494820
        1.3473758698,       -0.0018216968,-0.0090801492,-0.0167061016,0.1518152058,0.4276166558,-2.7594494820
        1.3499460220,       -0.0018216968,-0.0090801492,-0.0167061016,0.1518152058,0.4276166558,-2.8204846382
        1.3525099754,       -0.0018216968,-0.0090801492,-0.0167061016,0.1518152058,0.9006391168,-2.8204846382
        1.3550710678,       -0.0018216968,-0.0090801492,-0.0001045391,0.1518152058,0.9006391168,-2.8204846382
        1.3576939106,       -0.0042631030,-0.0120098367,-0.0001045391,0.7011315823,0.6870160699,-3.2782483101
        1.3602600098,       -0.0042631030,-0.0120098367,-0.0001045391,0.7011315823,0.6870160699,-3.2782483101
        1.3628189564,       -0.0042631030,-0.0120098367,-0.0001045391,0.8842370510,0.3513227105,-3.3850598335
        1.3653769493,       -0.0042631030,-0.0164043680,-0.0059639141,0.8842370510,0.3513227105,-3.3850598335
        1.3680920601,       -0.0067045093,-0.0164043680,-0.0059639141,0.7621667385,0.2292523980,-2.8815197945
        1.3706610203,       -0.0067045093,-0.0164043680,-0.0059639141,0.7621667385,0.2292523980,-2.8815197945
        1.3732299805,       -0.0067045093,-0.0164043680,-0.0059639141,0.3654382527,0.6107221246,-2.9578137398
        1.3757979870,       -0.0076810718,-0.0144512430,-0.0049873516,0.3654382527,0.6107221246,-2.9578137398
        1.3784859180,       -0.0076810718,-0.0144512430,-0.0049873516,0.0907800496,0.9006391168,-2.8967785835
        1.3811869621,       -0.0076810718,-0.0144512430,-0.0049873516,0.0907800496,0.9006391168,-2.8967785835
        1.3838860989,       -0.0076810718,-0.0144512430,-0.0049873516,0.4112146199,0.6107221246,-3.2019543648
        1.3865749836,       -0.0037748218,-0.0134746805,-0.0157295391,0.4112146199,0.6107221246,-3.2019543648
        1.3892760277,       -0.0037748218,-0.0134746805,-0.0157295391,0.2281091511,0.5344281793,-3.1714367867
        1.3920800686,       -0.0037748218,-0.0134746805,-0.0157295391,0.2281091511,0.5344281793,-3.1714367867
        1.3947780132,       -0.0037748218,-0.0134746805,-0.0157295391,0.0297448933,0.7480512261,-3.2782483101
        1.3974890709,       -0.0081693530,-0.0115215555,0.0003837422,0.0297448933,0.7480512261,-3.2782483101
        1.4001848698,       -0.0081693530,-0.0115215555,0.0003837422,0.4264734089,0.4276166558,-3.4155774117
        1.4028840065,       -0.0081693530,-0.0115215555,0.0003837422,0.4264734089,0.4276166558,-3.4155774117
        1.4055809975,       -0.0081693530,-0.0188457742,-0.0064521953,0.2433679402,0.5954633355,-3.3392834663
        1.4082438946,       -0.0047513843,-0.0188457742,-0.0064521953,0.2433679402,0.5954633355,-3.3392834663
        1.4108090401,       -0.0047513843,-0.0188457742,-0.0064521953,0.1975915730,0.3055463433,-3.2782483101
        1.4133810997,       -0.0047513843,-0.0188457742,-0.0064521953,0.1975915730,0.3055463433,-3.2782483101
        1.4159488678,       -0.0047513843,-0.0134746805,-0.0054756328,0.1975915730,0.7327924371,-3.0798840523
        1.4185938835,       -0.0067045093,-0.0134746805,-0.0054756328,-0.1075842083,0.7327924371,-3.0798840523
        1.4212920666,       -0.0067045093,-0.0134746805,-0.0054756328,3.7986657619,0.9311566949,-3.0035901070
        1.4239909649,       -0.0067045093,-0.0134746805,-0.0054756328,0.3654382527,0.9311566949,-3.0035901070
        1.4266910553,       -0.0062162280,-0.0168926492,-0.0079170391,0.3654382527,0.6107221246,-2.9272961617
        1.4294018745,       -0.0062162280,-0.0168926492,-0.0079170391,0.6095788479,0.6107221246,-2.9272961617
        1.4321038723,       -0.0062162280,-0.0168926492,-0.0079170391,0.6095788479,0.5954633355,-2.6373791695
        1.4348709583,       -0.0062162280,-0.0168926492,-0.0079170391,0.7926843166,0.5954633355,-2.6373791695
        1.4379510880,       -0.0062162280,-0.0207988992,-0.0020576641,0.4875085652,0.4886518121,-2.8510022163
        1.4406549931,       -0.0062162280,-0.0207988992,-0.0020576641,0.4875085652,0.4886518121,-2.8510022163
        1.4433538914,       -0.0062162280,-0.0207988992,-0.0020576641,0.5638024807,0.3360639215,-2.9730725288
        1.4460499287,       -0.0062162280,-0.0164043680,-0.0015693828,0.5638024807,0.3360639215,-2.9730725288
        1.4487559795,       -0.0032865405,-0.0164043680,-0.0015693828,0.8842370510,0.8243451715,-2.9578137398
        1.4514529705,       -0.0032865405,-0.0164043680,-0.0015693828,0.8842370510,0.8243451715,-2.9578137398
        1.4541490078,       -0.0032865405,-0.0164043680,-0.0015693828,0.6248376369,1.0837445259,-2.7289319038
        1.4569580555,       -0.0091459155,-0.0159160867,-0.0103584453,0.6248376369,1.0837445259,-2.7289319038
        1.4595680237,       -0.0091459155,-0.0159160867,-0.0103584453,0.6248376369,0.7633100152,-2.3322033882
        1.4621369839,       -0.0091459155,-0.0159160867,-0.0103584453,0.6095788479,0.7633100152,-2.3322033882
        1.4646999836,       -0.0091459155,-0.0159160867,-0.0103584453,0.6095788479,0.7633100152,-2.2559094429
        1.4672629833,       -0.0018216968,-0.0134746805,-0.0113350078,0.2891443074,0.6107221246,-2.2559094429
        1.4698760509,       -0.0018216968,-0.0134746805,-0.0113350078,0.2891443074,0.6107221246,-2.2711682320
        1.4724650383,       -0.0018216968,-0.0134746805,-0.0113350078,0.1518152058,0.6564984918,-2.2711682320
        1.4752459526,       -0.0018216968,-0.0134746805,-0.0113350078,0.1518152058,0.6564984918,-2.5763440132
        1.4778220654,        0.0020845532,-0.0212871805,-0.0157295391,0.3044030964,0.5802045465,-2.5763440132
        1.4803960323,        0.0020845532,-0.0212871805,-0.0157295391,0.3044030964,0.5802045465,-2.5763440132
        1.4829640388,        0.0020845532,-0.0212871805,-0.0157295391,-0.0465490520,0.8853803277,-2.6373791695
        1.4855320454,        0.0020845532,-0.0212871805,-0.0157295391,-0.0465490520,0.8853803277,-2.6373791695
        1.4882609844,       -0.0052396655,-0.0173809305,-0.0113350078,0.1518152058,0.6259809136,-2.5458264351
        1.4908280373,       -0.0052396655,-0.0173809305,-0.0113350078,0.1518152058,0.6259809136,-2.5458264351
        1.4933969975,       -0.0052396655,-0.0173809305,-0.0113350078,0.3196618855,0.5649457574,-2.4084973335
        1.4959630966,       -0.0052396655,-0.0173809305,-0.0113350078,0.3196618855,0.5649457574,-2.4084973335
        1.4986860752,       -0.0081693530,-0.0183574930,-0.0054756328,0.0144861042,0.5496869683,-1.9812512398
        1.5013899803,       -0.0081693530,-0.0183574930,-0.0054756328,0.0144861042,0.5496869683,-1.9812512398
        1.5040919781,       -0.0081693530,-0.0183574930,-0.0054756328,0.1518152058,0.4428754449,-2.1643567085
        1.5067870617,       -0.0081693530,-0.0154278055,-0.0025459453,0.1518152058,0.4428754449,-2.1643567085
        1.5093910694,       -0.0071927905,-0.0154278055,-0.0025459453,0.1060388386,0.6107221246,-2.2101330757
        1.5119559765,       -0.0071927905,-0.0154278055,-0.0025459453,0.1060388386,0.6107221246,-2.2101330757
        1.5145270824,       -0.0071927905,-0.0154278055,-0.0025459453,0.5027673244,0.7938275933,-2.5610852242
        1.5170910358,       -0.0071927905,-0.0207988992,-0.0069404766,0.5027673244,0.7938275933,-2.5610852242
        1.5199100971,        0.0055025220,-0.0207988992,-0.0069404766,0.3806970417,0.9158979058,-2.0270276070
        1.5226080418,        0.0055025220,-0.0207988992,-0.0069404766,0.3806970417,0.9158979058,-2.0270276070
        1.5253019333,        0.0055025220,-0.0207988992,-0.0069404766,0.2128503621,0.7327924371,-1.9812512398
        1.5280139446,       -0.0037748218,-0.0124981180,-0.0127998516,0.2128503621,0.7327924371,-1.9812512398
        1.5307118893,       -0.0037748218,-0.0124981180,-0.0127998516,0.4112146199,0.6107221246,-2.4084973335
        1.5334129333,       -0.0037748218,-0.0124981180,-0.0127998516,0.4112146199,0.6107221246,-2.4084973335
        1.5361070633,       -0.0037748218,-0.0124981180,-0.0127998516,0.2738855183,0.5344281793,-2.3474621773
        1.5388200283,       -0.0047513843,-0.0115215555,-0.0152412578,0.2738855183,0.5344281793,-2.3474621773
        1.5415220261,       -0.0047513843,-0.0115215555,-0.0152412578,-0.1686193645,0.6412397027,-2.1796154976
        1.5442209244,       -0.0047513843,-0.0115215555,-0.0152412578,-0.1686193645,0.6412397027,-2.1796154976
        1.5469200611,       -0.0047513843,-0.0115215555,-0.0035225078,-0.1686193645,0.7022748590,-2.0575451851
        1.5496320724,       -0.0106107593,-0.0129863992,-0.0035225078,-0.1686193645,0.7022748590,-2.0575451851
        1.5523369312,       -0.0106107593,-0.0129863992,-0.0035225078,-0.3517248333,0.9921918511,-1.9049572945
        1.5551650524,       -0.0106107593,-0.0129863992,-0.0035225078,-0.3517248333,0.9921918511,-1.9049572945
        1.5579628944,       -0.0125638843,-0.0149395242,-0.0001045391,-0.3059484661,0.7480512261,-2.1796154976
        1.5605530739,       -0.0125638843,-0.0149395242,-0.0001045391,-0.3059484661,0.7480512261,-2.1796154976
        1.5631229877,       -0.0125638843,-0.0149395242,-0.0001045391,-0.3669836223,0.7785688043,-2.2711682320
        1.5656900406,       -0.0125638843,-0.0149395242,-0.0001045391,-0.3669836223,0.7785688043,-2.2711682320
        1.5683450699,       -0.0037748218,-0.0149395242,-0.0113350078,-0.3669836223,0.8243451715,-2.1490979195
        1.5710430145,       -0.0037748218,-0.0149395242,-0.0113350078,-0.1686193645,0.8243451715,-2.1490979195
        1.5737419128,       -0.0037748218,-0.0149395242,-0.0113350078,-0.1686193645,0.8701215386,-2.4084973335
        1.5764410496,       -0.0037748218,-0.0149395242,-0.0113350078,0.0602624714,0.8701215386,-2.4084973335
        1.5791549683,       -0.0023099780,-0.0139629617,-0.0118232891,3.9665124416,0.5344281793,-2.2253918648
        1.5818500519,       -0.0023099780,-0.0139629617,-0.0118232891,0.3501794636,0.5344281793,-2.2253918648
        1.5846519470,       -0.0023099780,-0.0139629617,-0.0118232891,-3.5560705662,0.6259809136,-1.9965100288
        1.5873529911,       -0.0023099780,-0.0139629617,-0.0054756328,0.0755212605,0.6259809136,-1.9965100288
        1.5899429321,       -0.0023099780,-0.0149395242,-0.0054756328,0.0755212605,0.7175336480,-2.0880627632
        1.5925149918,       -0.0023099780,-0.0149395242,-0.0054756328,-0.0465490520,0.7175336480,-2.0880627632
        1.5950748920,       -0.0023099780,-0.0149395242,-0.0054756328,-0.0465490520,0.7175336480,-2.3322033882
        1.5976960659,       -0.0023099780,-0.0154278055,-0.0079170391,-0.0160314739,0.6412397027,-2.3322033882
        1.6002669334,       -0.0086576343,-0.0154278055,-0.0079170391,-0.0160314739,0.6412397027,-2.3322033882
        1.6028339863,       -0.0086576343,-0.0154278055,-0.0079170391,0.0755212605,0.5191693902,-2.6831555367
        1.6053979397,       -0.0086576343,-0.0154278055,-0.0079170391,0.0755212605,0.5191693902,-2.6831555367
        1.6080830097,       -0.0023099780,-0.0085918680,-0.0088936016,0.2281091511,0.7938275933,-2.4695324898
        1.6106529236,       -0.0023099780,-0.0085918680,-0.0088936016,0.2281091511,0.7938275933,-2.4695324898
        1.6132159233,       -0.0023099780,-0.0085918680,-0.0088936016,0.1670739949,0.3665814996,-2.4084973335
        1.6157860756,       -0.0023099780,-0.0085918680,-0.0088936016,0.1670739949,0.3665814996,-2.4084973335
        1.6184840202,       -0.0120756030,-0.0168926492,-0.0059639141,0.5485436916,0.3818402886,-2.6221203804
        1.6211829185,       -0.0120756030,-0.0168926492,-0.0059639141,0.5485436916,0.3818402886,-2.6221203804
        1.6238789558,       -0.0120756030,-0.0168926492,-0.0059639141,0.9147546291,0.3513227105,-2.5153088570
        1.6265749931,       -0.0120756030,-0.0168926492,-0.0059639141,0.9147546291,0.3513227105,-2.5153088570
        1.6292738914,       -0.0076810718,-0.0154278055,-0.0064521953,0.3654382527,0.5191693902,-2.5763440132
        1.6319758892,       -0.0076810718,-0.0154278055,-0.0064521953,0.3654382527,0.5191693902,-2.5763440132
        1.6346740723,       -0.0076810718,-0.0154278055,-0.0064521953,0.1365564167,0.3513227105,-2.6526379585
        1.6373710632,       -0.0076810718,-0.0154278055,-0.0064521953,0.1365564167,0.3513227105,-2.6526379585
        1.6400740147,       -0.0081693530,-0.0212871805,0.0023368672,-0.3212072551,0.4886518121,-2.3779797554
        1.6427788734,       -0.0081693530,-0.0212871805,0.0023368672,-0.3212072551,0.4886518121,-2.3779797554
        1.6454739571,       -0.0081693530,-0.0212871805,0.0023368672,-0.1075842083,0.6107221246,-2.1490979195
        1.6482620239,       -0.0081693530,-0.0168926492,-0.0069404766,-0.1075842083,0.6107221246,-2.1490979195
        1.6508309841,        0.0020845532,-0.0168926492,-0.0069404766,0.0450036824,0.5191693902,-2.2864270210
        1.6533980370,        0.0020845532,-0.0168926492,-0.0069404766,0.0450036824,0.5191693902,-2.2864270210
        1.6559588909,        0.0020845532,-0.0168926492,-0.0069404766,-0.0770666301,0.7327924371,-2.1948742867
        1.6585950851,       -0.0057279468,-0.0110332742,-0.0064521953,-0.0770666301,0.7327924371,-2.1948742867
        1.6612930298,       -0.0057279468,-0.0110332742,-0.0064521953,-0.2143957317,0.8090863824,-2.2711682320
        1.6639950275,       -0.0057279468,-0.0110332742,-0.0064521953,-0.2143957317,0.8090863824,-2.2711682320
        1.6666939259,       -0.0057279468,-0.0110332742,-0.0064521953,0.0907800496,0.6870160699,-2.1948742867
        1.6694059372,       -0.0062162280,-0.0168926492,-0.0035225078,0.0907800496,0.6870160699,-2.1948742867
        1.6721019745,       -0.0062162280,-0.0168926492,-0.0035225078,0.5180261135,0.4123578668,-2.2864270210
        1.6749930382,       -0.0062162280,-0.0168926492,-0.0035225078,0.5180261135,0.4123578668,-2.2864270210
        1.6781530380,       -0.0062162280,-0.0168926492,0.0018485859,0.0907800496,0.5802045465,-2.1490979195
        1.6808509827,       -0.0096341968,-0.0222637430,0.0018485859,0.0907800496,0.5802045465,-2.1490979195
        1.6835520267,       -0.0096341968,-0.0222637430,0.0018485859,-0.2906896770,0.6870160699,-2.0422863960
        1.6862509251,       -0.0096341968,-0.0222637430,0.0018485859,-0.2906896770,0.6870160699,-2.0422863960
        1.6889610291,       -0.0052396655,-0.0164043680,-0.0064521953,0.5180261135,0.4581342340,-2.2253918648
        1.6916620731,       -0.0052396655,-0.0164043680,-0.0064521953,0.5180261135,0.4581342340,-2.2253918648
        1.6943609715,       -0.0052396655,-0.0164043680,-0.0064521953,0.7621667385,0.3208051324,-2.4695324898
        1.6970579624,       -0.0052396655,-0.0164043680,-0.0064521953,0.7621667385,0.3208051324,-2.4695324898
        1.6996569633,       -0.0086576343,-0.0110332742,-0.0147529766,-0.0007726848,0.8701215386,-2.3169445992
        1.7022209167,       -0.0086576343,-0.0110332742,-0.0147529766,-0.0007726848,0.8701215386,-2.3169445992
        1.7047898769,       -0.0086576343,-0.0110332742,-0.0147529766,0.1823327839,0.9158979058,-2.0880627632
        1.7073600292,       -0.0086576343,-0.0110332742,-0.0147529766,0.1823327839,0.9158979058,-2.0880627632
        1.7105250359,       -0.0071927905,-0.0164043680,0.0033134297,0.3044030964,0.9616742730,-2.1796154976
        1.7131960392,       -0.0071927905,-0.0164043680,0.0033134297,0.3044030964,0.9616742730,-2.1796154976
        1.7157630920,       -0.0071927905,-0.0164043680,0.0033134297,0.1212976277,0.9616742730,-2.1796154976
        1.7183859348,       -0.0071927905,-0.0164043680,-0.0030342266,0.1212976277,0.9616742730,-2.1796154976
        1.7209479809,       -0.0081693530,-0.0173809305,-0.0030342266,0.4875085652,0.8090863824,-2.2101330757
        1.7235059738,       -0.0081693530,-0.0173809305,-0.0030342266,0.4875085652,0.8090863824,-2.2101330757
        1.7260730267,       -0.0081693530,-0.0173809305,-0.0030342266,-3.4187414646,0.9311566949,-2.3322033882
        1.7286880016,       -0.0081693530,-0.0173809305,-0.0044990703,-0.0465490520,0.9311566949,-2.3322033882
        1.7312519550,       -0.0076810718,-0.0193340555,-0.0044990703,-0.0465490520,-2.9750933647,-2.3016858101
        1.7338259220,       -0.0076810718,-0.0193340555,-0.0044990703,0.0602624714,0.7327924371,-2.3016858101
        1.7363910675,       -0.0076810718,-0.0193340555,-0.0044990703,0.0602624714,0.7327924371,-2.4084973335
        1.7389628887,       -0.0076810718,-0.0164043680,-0.0181709453,0.2281091511,0.6870160699,-2.4084973335
        1.7415239811,       -0.0023099780,-0.0164043680,-0.0181709453,0.2281091511,0.6870160699,-2.4084973335
        1.7440879345,       -0.0023099780,-0.0164043680,-0.0181709453,0.2891443074,0.6107221246,-2.4542737007
        1.7466559410,       -0.0023099780,-0.0164043680,-0.0181709453,0.2891443074,0.6107221246,-2.4542737007
        1.7492620945,       -0.0023099780,-0.0188457742,-0.0098701641,-0.0312902629,0.7480512261,-2.1185803413
        1.7518289089,       -0.0057279468,-0.0188457742,-0.0098701641,-0.0312902629,0.7480512261,-2.1185803413
        1.7543969154,       -0.0057279468,-0.0188457742,-0.0098701641,0.0755212605,0.6564984918,-2.3016858101
        1.7569620609,       -0.0057279468,-0.0188457742,-0.0098701641,0.0755212605,0.6564984918,-2.3016858101
        1.7597179413,       -0.0071927905,-0.0193340555,-0.0035225078,-0.1075842083,0.5802045465,-2.2101330757
        1.7622818947,       -0.0071927905,-0.0193340555,-0.0035225078,-0.1075842083,0.5802045465,-2.2101330757
        1.7648470402,       -0.0071927905,-0.0193340555,-0.0035225078,-0.1533605754,0.5649457574,-2.2406506538
        1.7675640583,       -0.0071927905,-0.0193340555,-0.0035225078,-0.1533605754,0.5649457574,-2.2406506538
        1.7702560425,       -0.0032865405,-0.0149395242,-0.0098701641,0.2433679402,0.9616742730,-1.8591809273
        1.7729539871,       -0.0032865405,-0.0149395242,-0.0098701641,0.2433679402,0.9616742730,-1.8591809273
        1.7756550312,       -0.0032865405,-0.0149395242,-0.0098701641,-0.0923254192,0.8243451715,-1.9965100288
        1.7784659863,       -0.0032865405,-0.0149395242,-0.0098701641,-0.0923254192,0.8243451715,-1.9965100288
        1.7811660767,       -0.0179349780,-0.0095684305,0.0028251484,-0.2601720989,0.6717572808,-2.0880627632
        1.7838599682,       -0.0179349780,-0.0095684305,0.0028251484,-0.2601720989,0.6717572808,-2.0880627632
        1.7865550518,       -0.0179349780,-0.0095684305,0.0028251484,0.1518152058,0.4123578668,-2.0728039742
        1.7892649174,       -0.0179349780,-0.0095684305,-0.0123115703,0.1518152058,0.4123578668,-2.0728039742
        1.7919619083,       -0.0071927905,-0.0129863992,-0.0123115703,0.0907800496,0.6412397027,-2.0880627632
        1.7946579456,       -0.0071927905,-0.0129863992,-0.0123115703,0.0907800496,0.6412397027,-2.0880627632
        1.7973620892,       -0.0071927905,-0.0129863992,-0.0123115703,0.0144861042,0.7022748590,-2.2253918648
        1.7999439240,       -0.0071927905,-0.0139629617,-0.0005928203,0.0144861042,0.7022748590,-2.2253918648
        1.8025140762,       -0.0076810718,-0.0139629617,-0.0005928203,0.0907800496,0.4428754449,-2.1490979195
        1.8050780296,       -0.0076810718,-0.0139629617,-0.0005928203,0.0907800496,0.4428754449,-2.1490979195
        1.8077189922,       -0.0076810718,-0.0139629617,-0.0005928203,0.0907800496,0.7327924371,-2.3932385445
        1.8104059696,       -0.0047513843,-0.0178692117,-0.0127998516,0.0450036824,0.7327924371,-2.3932385445
        1.8130850792,       -0.0047513843,-0.0178692117,-0.0127998516,0.0450036824,0.3360639215,-2.5153088570
        1.8157620430,       -0.0047513843,-0.0178692117,-0.0127998516,0.0755212605,0.3360639215,-2.5153088570
        1.8184549809,       -0.0047513843,-0.0178692117,-0.0127998516,0.0755212605,0.5954633355,-2.1796154976
        1.8211379051,       -0.0047513843,-0.0149395242,-0.0147529766,0.1518152058,0.5954633355,-2.1796154976
        1.8239150047,       -0.0047513843,-0.0149395242,-0.0147529766,0.1518152058,0.6717572808,-1.6760754585
        1.8266179562,       -0.0047513843,-0.0149395242,-0.0147529766,0.5790612698,0.6717572808,-1.6760754585
        1.8293600082,       -0.0047513843,-0.0149395242,-0.0015693828,0.5790612698,0.5802045465,-1.8744397163
        1.8320560455,       -0.0071927905,-0.0134746805,-0.0015693828,0.2433679402,0.5802045465,-1.8744397163
        1.8347470760,       -0.0071927905,-0.0134746805,-0.0015693828,0.2433679402,0.3970990777,-2.0117688179
        1.8374509811,       -0.0071927905,-0.0134746805,-0.0015693828,-0.2906896770,0.3970990777,-2.0117688179
        1.8401529789,       -0.0071927905,-0.0178692117,-0.0079170391,-0.2906896770,0.3970990777,-2.1185803413
        1.8429529667,       -0.0042631030,-0.0178692117,-0.0079170391,-0.3822424114,0.4123578668,-2.1185803413
        1.8456549644,       -0.0042631030,-0.0178692117,-0.0079170391,-0.3822424114,0.2902875543,-2.4084973335
        1.8483679295,       -0.0042631030,-0.0178692117,-0.0079170391,-0.0770666301,0.2902875543,-2.4084973335
        1.8510670662,       -0.0081693530,-0.0188457742,-0.0054756328,-0.0770666301,0.5344281793,-2.4390149117
        1.8537669182,       -0.0081693530,-0.0188457742,-0.0054756328,-0.2449133098,0.5344281793,-2.4390149117
        1.8564600945,       -0.0081693530,-0.0188457742,-0.0054756328,-0.2449133098,0.5344281793,-2.3016858101
        1.8590879440,       -0.0081693530,-0.0188457742,-0.0054756328,0.1518152058,0.6107221246,-2.3016858101
        1.8616530895,       -0.0086576343,-0.0173809305,-0.0064521953,0.1518152058,0.6107221246,-2.2864270210
        1.8642199039,       -0.0086576343,-0.0173809305,-0.0064521953,0.2738855183,0.3513227105,-2.2864270210
        1.8667829037,       -0.0086576343,-0.0173809305,-0.0064521953,0.2738855183,0.3513227105,-2.2864270210
        1.8694829941,       -0.0086576343,-0.0173809305,-0.0064521953,-0.3517248333,0.9006391168,-2.2711682320
        1.8720428944,       -0.0106107593,-0.0168926492,-0.0059639141,-0.3517248333,0.9006391168,-2.2711682320
        1.8746030331,       -0.0106107593,-0.0168926492,-0.0059639141,-0.1075842083,0.5649457574,-2.4390149117
        1.8771669865,       -0.0106107593,-0.0168926492,-0.0059639141,-0.1075842083,0.5649457574,-2.4390149117
        1.8799350262,       -0.0106107593,-0.0168926492,-0.0118232891,-0.4737951458,0.6717572808,-2.4847912788
        1.8826339245,       -0.0052396655,-0.0129863992,-0.0118232891,-0.4737951458,0.6717572808,-2.4847912788
        1.8853290081,       -0.0052396655,-0.0129863992,-0.0118232891,0.1518152058,0.6564984918,-2.2253918648
        1.8880200386,       -0.0052396655,-0.0129863992,-0.0118232891,0.1518152058,0.6564984918,-2.2253918648
        1.8905889988,       -0.0052396655,-0.0159160867,-0.0054756328,-0.2754308879,0.8396039605,-2.2559094429
        1.8931510448,       -0.0027982593,-0.0159160867,-0.0054756328,-0.2754308879,0.8396039605,-2.2559094429
        1.8957130909,       -0.0027982593,-0.0159160867,-0.0054756328,-0.5195715427,0.8853803277,-2.2253918648
        1.8983678818,       -0.0027982593,-0.0159160867,-0.0054756328,-0.5195715427,0.8853803277,-2.2253918648
        1.9010620117,       -0.0115873218,-0.0164043680,-0.0030342266,-0.4585363567,0.6870160699,-2.5000500679
        1.9037590027,       -0.0115873218,-0.0164043680,-0.0030342266,-0.4585363567,0.6870160699,-2.5000500679
        1.9065649509,       -0.0115873218,-0.0164043680,-0.0030342266,-0.0770666301,0.8090863824,-2.2101330757
        1.9092650414,       -0.0115873218,-0.0164043680,-0.0030342266,-0.0770666301,0.8090863824,-2.2101330757
        1.9119620323,       -0.0013334155,-0.0085918680,-0.0157295391,0.0450036824,0.5802045465,-2.2101330757
        1.9146599770,       -0.0013334155,-0.0085918680,-0.0157295391,0.0450036824,0.5802045465,-2.2101330757
        1.9173569679,       -0.0013334155,-0.0085918680,-0.0157295391,0.2128503621,0.7327924371,-2.3779797554
        1.9200608730,       -0.0013334155,-0.0085918680,-0.0157295391,0.2128503621,0.7327924371,-2.3779797554
        1.9227590561,       -0.0047513843,-0.0124981180,-0.0030342266,0.3501794636,1.0227093697,-2.3627209663
        1.9254479408,       -0.0047513843,-0.0124981180,-0.0030342266,0.3501794636,1.0227093697,-2.3627209663
        1.9281549454,       -0.0047513843,-0.0124981180,-0.0030342266,0.5180261135,0.6564984918,-2.3016858101
        1.9308490753,       -0.0047513843,-0.0139629617,-0.0040107891,0.5180261135,0.6564984918,-2.3016858101
        1.9335448742,       -0.0023099780,-0.0139629617,-0.0040107891,0.6553552151,0.4123578668,-2.3474621773
        1.9362370968,       -0.0023099780,-0.0139629617,-0.0040107891,0.6553552151,0.4123578668,-2.3474621773
        1.9388780594,       -0.0023099780,-0.0139629617,-0.0040107891,0.3806970417,0.1834760308,-2.2711682320
        1.9414420128,        0.0006197095,-0.0188457742,-0.0040107891,0.3806970417,0.1834760308,-2.2711682320
        1.9440069199,        0.0006197095,-0.0188457742,-0.0040107891,-0.2906896770,0.5802045465,-2.1338391304
        1.9465699196,        0.0006197095,-0.0188457742,-0.0040107891,-0.2906896770,0.5802045465,-2.1338391304
        1.9492518902,        0.0006197095,-0.0188457742,-0.0040107891,-0.2906896770,0.6564984918,-1.9965100288
        1.9519500732,       -0.0037748218,-0.0110332742,-0.0025459453,-0.2754308879,0.6564984918,-1.9965100288
        1.9546499252,       -0.0037748218,-0.0110332742,-0.0025459453,-0.2754308879,0.6564984918,-2.0422863960
        1.9573459625,       -0.0037748218,-0.0110332742,-0.0025459453,0.0450036824,0.6564984918,-2.0422863960
        1.9600520134,       -0.0037748218,-0.0110332742,-0.0025459453,0.0450036824,0.5954633355,-2.1338391304
        1.9627420902,       -0.0013334155,-0.0144512430,-0.0074287578,-0.0312902629,0.5954633355,-2.1338391304
        1.9654328823,       -0.0013334155,-0.0144512430,-0.0074287578,-0.0312902629,0.7327924371,-2.0270276070
        1.9681429863,       -0.0013334155,-0.0144512430,-0.0074287578,-0.1075842083,0.7327924371,-2.0270276070
        1.9709420204,       -0.0013334155,-0.0144512430,0.0008720234,-0.1075842083,0.9006391168,-2.1185803413
        1.9736390114,       -0.0057279468,-0.0149395242,0.0008720234,-0.3822424114,0.9006391168,-2.1185803413
        1.9763369560,       -0.0057279468,-0.0149395242,0.0008720234,-0.3822424114,0.6717572808,-1.9659924507
        1.9790470600,       -0.0057279468,-0.0149395242,0.0008720234,-0.5653479099,0.6717572808,-1.9659924507
        1.9817409515,       -0.0057279468,-0.0198223367,-0.0084053203,-0.5653479099,0.6564984918,-2.0422863960
        1.9844379425,       -0.0062162280,-0.0198223367,-0.0084053203,-0.5958654881,0.6564984918,-2.0422863960
        1.9871330261,       -0.0062162280,-0.0198223367,-0.0084053203,-0.5958654881,0.6564984918,-2.2253918648
        1.9897289276,       -0.0062162280,-0.0198223367,-0.0084053203,-0.0312902629,0.1834760308,-2.2253918648
        1.9922900200,       -0.0135404468,-0.0154278055,-0.0059639141,-0.0312902629,0.1834760308,-2.2406506538
        1.9948549271,       -0.0135404468,-0.0154278055,-0.0059639141,-0.0770666301,0.3818402886,-2.2406506538
        1.9974648952,       -0.0135404468,-0.0154278055,-0.0059639141,-0.0770666301,0.3818402886,1.6655993462
        2.0001618862,       -0.0135404468,-0.0154278055,-0.0059639141,-0.7789709568,0.4123578668,-2.0575451851
        2.0028610229,       -0.0047513843,-0.0178692117,-0.0025459453,-0.7789709568,0.4123578668,-2.0575451851
        2.0055589676,       -0.0047513843,-0.0178692117,-0.0025459453,-0.5348303318,0.4581342340,-1.8744397163
        2.0082590580,       -0.0047513843,-0.0178692117,-0.0025459453,-0.5348303318,0.4581342340,-1.8744397163
        2.0109510422,       -0.0047513843,-0.0178692117,-0.0025459453,-0.1533605754,0.7480512261,-1.8439221382
        2.0136489868,       -0.0110990405,-0.0115215555,-0.0010811016,-0.1533605754,0.7480512261,-5.7501721382
        2.0163400173,       -0.0110990405,-0.0115215555,-0.0010811016,-0.0007726848,0.8701215386,-2.3169445992
        2.0190460682,       -0.0110990405,-0.0115215555,-0.0010811016,-0.0007726848,0.8701215386,-2.3169445992
        2.0217390060,       -0.0110990405,-0.0139629617,-0.0035225078,0.2586267292,0.7480512261,-2.3779797554
        2.0244369507,       -0.0071927905,-0.0139629617,-0.0035225078,0.2586267292,0.7480512261,-2.3779797554
        2.0271360874,       -0.0071927905,-0.0139629617,-0.0035225078,0.1823327839,0.8548627496,-2.1948742867
        2.0297329426,       -0.0071927905,-0.0139629617,-0.0035225078,0.1823327839,0.8548627496,-2.1948742867
        2.0322999954,       -0.0130521655,-0.0105449930,0.0008720234,0.0144861042,1.1295208931,-2.1185803413
        2.0349678993,       -0.0130521655,-0.0105449930,0.0008720234,0.0144861042,1.1295208931,-2.1185803413
        2.0376000404,       -0.0130521655,-0.0105449930,0.0008720234,0.3501794636,0.6107221246,-2.1185803413
        2.0402710438,       -0.0130521655,-0.0105449930,0.0008720234,0.3501794636,0.6107221246,-2.1185803413
        2.0429229736,       -0.0081693530,-0.0110332742,-0.0015693828,0.7774255276,0.4123578668,-2.0575451851
        2.0455799103,       -0.0081693530,-0.0110332742,-0.0015693828,0.7774255276,0.4123578668,-2.0575451851
        2.0482580662,       -0.0081693530,-0.0110332742,-0.0015693828,0.3959558308,0.5191693902,-1.8286633492
        2.0509588718,       -0.0081693530,-0.0110332742,-0.0015693828,0.3959558308,0.5191693902,-1.8286633492
        2.0536549091,       -0.0052396655,-0.0159160867,0.0067313984,0.0450036824,0.6564984918,-2.2101330757
        2.0563499928,       -0.0052396655,-0.0159160867,0.0067313984,0.0450036824,0.6564984918,-2.2101330757
        2.0590579510,       -0.0052396655,-0.0159160867,0.0067313984,-0.2754308879,0.9311566949,-2.3932385445
        2.0617489815,       -0.0052396655,-0.0159160867,-0.0084053203,-0.2754308879,0.9311566949,-2.3932385445
        2.0644469261,       -0.0032865405,-0.0139629617,-0.0084053203,0.1670739949,1.0379681587,-2.3627209663
        2.0671439171,       -0.0032865405,-0.0139629617,-0.0084053203,0.1670739949,1.0379681587,-2.3627209663
        2.0697379112,       -0.0032865405,-0.0139629617,-0.0084053203,0.3501794636,0.8396039605,-2.2406506538
        2.0723040104,       -0.0032865405,-0.0120098367,-0.0132881328,0.3501794636,0.8396039605,-2.2406506538
        2.0748689175,        0.0020845532,-0.0120098367,-0.0132881328,0.1975915730,1.0379681587,-2.2864270210
        2.0774838924,        0.0020845532,-0.0120098367,-0.0132881328,0.1975915730,1.0379681587,-2.2864270210
        2.0801830292,        0.0020845532,-0.0120098367,-0.0132881328,0.3044030964,1.1600384712,-2.2101330757
        2.0828819275,       -0.0057279468,-0.0159160867,-0.0030342266,0.3044030964,1.1600384712,-2.2101330757
        2.0855770111,       -0.0057279468,-0.0159160867,-0.0030342266,0.5332849026,0.6259809136,-2.3016858101
        2.0882799625,       -0.0057279468,-0.0159160867,-0.0030342266,0.5332849026,0.6259809136,-2.3016858101
        2.0909719467,       -0.0057279468,-0.0159160867,-0.0030342266,0.5790612698,0.7785688043,-2.5153088570
        2.0936710835,       -0.0018216968,-0.0139629617,-0.0113350078,0.5790612698,0.7785688043,-2.5153088570
        2.0963740349,       -0.0018216968,-0.0139629617,-0.0113350078,0.3044030964,0.9158979058,-2.4390149117
        2.0991809368,       -0.0018216968,-0.0139629617,-0.0113350078,0.3044030964,0.9158979058,-2.4390149117
        2.1018800735,       -0.0018216968,-0.0139629617,-0.0113350078,0.4569909871,0.9311566949,-2.3932385445
        2.1045780182,       -0.0140287280,-0.0159160867,0.0047782734,0.4569909871,0.9311566949,-2.3932385445
        2.1072769165,       -0.0140287280,-0.0159160867,0.0047782734,0.7774255276,1.0074505806,-2.1033215523
        2.1098620892,       -0.0140287280,-0.0159160867,0.0047782734,0.7774255276,1.0074505806,-2.1033215523
        2.1124269962,       -0.0140287280,-0.0159160867,-0.0113350078,0.7774255276,1.1295208931,-2.1490979195
        2.1149899960,       -0.0023099780,-0.0134746805,-0.0113350078,0.1670739949,1.1295208931,-2.1490979195
        2.1175639629,       -0.0023099780,-0.0134746805,-0.0113350078,0.1670739949,-2.7767291069,-2.5000500679
        2.1202440262,       -0.0023099780,-0.0134746805,-0.0113350078,0.4875085652,0.8853803277,-2.5000500679
        2.1229250431,       -0.0023099780,-0.0129863992,-0.0001045391,0.4875085652,0.8853803277,-2.2406506538
        2.1256060600,       -0.0027982593,-0.0129863992,-0.0001045391,0.1823327839,0.7633100152,-2.2406506538
        2.1283349991,       -0.0027982593,-0.0129863992,-0.0001045391,0.1823327839,0.7633100152,-2.2253918648
        2.1310260296,       -0.0027982593,-0.0129863992,-0.0001045391,-0.5653479099,1.0074505806,-2.2253918648
        2.1337080002,       -0.0032865405,-0.0081035867,-0.0040107891,-0.5653479099,1.0074505806,-2.2711682320
        2.1363899708,       -0.0032865405,-0.0081035867,-0.0040107891,0.4264734089,0.7785688043,-2.2711682320
        2.1390669346,       -0.0032865405,-0.0081035867,-0.0040107891,0.4264734089,0.7785688043,-2.3016858101
        2.1417279243,       -0.0032865405,-0.0081035867,-0.0040107891,0.9452722073,0.3665814996,-2.3016858101
        2.1443898678,       -0.0057279468,-0.0207988992,-0.0044990703,0.9452722073,0.3665814996,-2.3016858101
        2.1470499039,       -0.0057279468,-0.0207988992,-0.0044990703,0.2128503621,0.5649457574,-2.2559094429
        2.1496829987,       -0.0057279468,-0.0207988992,-0.0044990703,0.2128503621,0.5649457574,-2.2559094429
        2.1522541046,       -0.0057279468,-0.0207988992,-0.0044990703,-0.1075842083,0.6259809136,-2.2711682320
        2.1548149586,       -0.0071927905,-0.0178692117,-0.0069404766,-0.1075842083,0.6259809136,-2.2711682320
        2.1573750973,       -0.0071927905,-0.0178692117,-0.0069404766,0.3654382527,0.4123578668,-2.0880627632
        2.1600780487,       -0.0071927905,-0.0178692117,-0.0069404766,0.3654382527,0.4123578668,-2.0880627632
        2.1628830433,       -0.0071927905,-0.0178692117,-0.0049873516,0.6400964260,0.7022748590,-1.7981457710
        2.1655850410,       -0.0023099780,-0.0164043680,-0.0049873516,0.6400964260,0.7022748590,-1.7981457710
        2.1682848930,       -0.0023099780,-0.0164043680,-0.0049873516,0.1212976277,0.8548627496,-1.9965100288
        2.1709840298,       -0.0023099780,-0.0164043680,-0.0049873516,0.1212976277,0.8548627496,-1.9965100288
        2.1736819744,       -0.0032865405,-0.0144512430,-0.0035225078,0.0450036824,0.9921918511,-1.9354748726
        2.1763789654,       -0.0032865405,-0.0144512430,-0.0035225078,0.0450036824,0.9921918511,-1.9354748726
        2.1790699959,       -0.0032865405,-0.0144512430,-0.0035225078,0.0450036824,1.0684857368,-2.2406506538
        2.1817679405,       -0.0032865405,-0.0144512430,-0.0035225078,0.0450036824,1.0684857368,-2.2406506538
        2.1844639778,       -0.0018216968,-0.0124981180,-0.0147529766,0.0602624714,0.9311566949,-1.8286633492
        2.1871590614,       -0.0018216968,-0.0124981180,-0.0147529766,0.0602624714,0.9311566949,-1.8286633492
        2.1898579597,       -0.0018216968,-0.0124981180,-0.0147529766,0.0450036824,0.4123578668,-2.1643567085
        2.1925559044,       -0.0018216968,-0.0124981180,-0.0147529766,0.0450036824,0.4123578668,-2.1643567085
        2.1952579021,       -0.0071927905,-0.0159160867,-0.0079170391,-0.3822424114,0.8090863824,-1.7981457710
        2.1979560852,       -0.0071927905,-0.0159160867,-0.0079170391,-0.3822424114,0.8090863824,-1.7981457710
        2.2005190849,       -0.0071927905,-0.0159160867,-0.0079170391,-0.4585363567,0.8243451715,-2.0728039742
        2.2030820847,       -0.0071927905,-0.0159160867,-0.0079170391,-0.4585363567,0.8243451715,-2.0728039742
        2.2056429386,       -0.0032865405,-0.0139629617,-0.0079170391,-0.0160314739,0.7480512261,-2.4390149117
        2.2082490921,       -0.0032865405,-0.0139629617,-0.0079170391,-0.0160314739,0.7480512261,-2.4390149117
        2.2109448910,       -0.0032865405,-0.0139629617,-0.0079170391,0.2891443074,0.7327924371,-2.2101330757
        2.2136399746,       -0.0032865405,-0.0115215555,-0.0020576641,0.2891443074,0.7327924371,-2.2101330757
        2.2163388729,       -0.0067045093,-0.0115215555,-0.0020576641,0.2128503621,0.9311566949,-2.0728039742
        2.2190480232,       -0.0067045093,-0.0115215555,-0.0020576641,0.2128503621,0.9311566949,-2.0728039742
        2.2217440605,       -0.0067045093,-0.0115215555,-0.0020576641,0.2738855183,1.1752972603,-1.8744397163
        2.2244369984,       -0.0003568530,-0.0124981180,-0.0025459453,0.2738855183,1.1752972603,-1.8744397163
        2.2272469997,       -0.0003568530,-0.0124981180,-0.0025459453,-0.0923254192,0.9006391168,-2.2559094429
        2.2299540043,       -0.0003568530,-0.0124981180,-0.0025459453,-0.0923254192,0.9006391168,-2.2559094429
        2.2326509953,       -0.0003568530,-0.0124981180,-0.0025459453,-0.2143957317,0.6870160699,-2.3016858101
        2.2353460789,       -0.0067045093,-0.0115215555,-0.0059639141,-0.2143957317,0.6870160699,-2.3016858101
        2.2380580902,       -0.0067045093,-0.0115215555,-0.0059639141,0.4264734089,0.5039106011,-2.5305676460
        2.2407510281,       -0.0067045093,-0.0115215555,-0.0059639141,0.4264734089,0.5039106011,-2.5305676460
        2.2434458733,       -0.0067045093,-0.0115215555,-0.0084053203,0.5180261135,0.6259809136,-2.7899670601
        2.2461469173,       -0.0052396655,-0.0110332742,-0.0084053203,0.5180261135,0.6259809136,-2.7899670601
        2.2488000393,       -0.0052396655,-0.0110332742,-0.0084053203,0.5027673244,0.7633100152,-2.8510022163
        2.2513649464,       -0.0052396655,-0.0110332742,-0.0084053203,0.5027673244,0.7633100152,-2.8510022163
        2.2539219856,       -0.0052396655,-0.0110332742,-0.0098701641,0.5027673244,0.4886518121,-2.5610852242
        2.2564918995,       -0.0042631030,-0.0095684305,-0.0098701641,0.6248376369,0.4886518121,-2.5610852242
        2.2591810226,       -0.0042631030,-0.0095684305,-0.0098701641,0.6248376369,0.4886518121,-2.3932385445
        2.2618780136,       -0.0042631030,-0.0095684305,-0.0098701641,0.6553552151,0.5649457574,-2.3932385445
        2.2645740509,       -0.0013334155,-0.0120098367,-0.0118232891,0.6553552151,0.5649457574,-2.8510022163
        2.2672710419,       -0.0013334155,-0.0120098367,-0.0118232891,0.4722497761,0.3208051324,-2.8510022163
        2.2699759007,       -0.0013334155,-0.0120098367,-0.0118232891,0.4722497761,0.3208051324,-2.9730725288
        2.2726709843,       -0.0013334155,-0.0120098367,-0.0118232891,0.5180261135,0.3055463433,-2.9730725288
        2.2753698826,       -0.0062162280,-0.0168926492,-0.0088936016,0.5180261135,0.3055463433,-2.7594494820
        2.2780709267,       -0.0062162280,-0.0168926492,-0.0088936016,0.7011315823,0.4733930230,-2.7594494820
        2.2807700634,       -0.0062162280,-0.0168926492,-0.0088936016,0.7011315823,0.4733930230,-3.0951428413
        2.2834670544,       -0.0062162280,-0.0168926492,-0.0088936016,0.8079431057,0.4276166558,-3.0951428413
        2.2861618996,       -0.0047513843,-0.0193340555,-0.0064521953,0.8079431057,0.4276166558,-2.5610852242
        2.2888650894,       -0.0047513843,-0.0193340555,-0.0064521953,0.6095788479,0.3208051324,-2.5610852242
        2.2916679382,       -0.0047513843,-0.0193340555,-0.0064521953,0.6095788479,0.3208051324,-2.6221203804
        2.2943649292,       -0.0047513843,-0.0193340555,-0.0084053203,0.5332849026,0.0919232965,-2.6221203804
        2.2970569134,       -0.0023099780,-0.0164043680,-0.0084053203,0.5332849026,0.0919232965,-2.8357434273
        2.2996540070,       -0.0023099780,-0.0164043680,-0.0084053203,0.5485436916,0.0461469293,-2.8357434273
        2.3022248745,       -0.0023099780,-0.0164043680,-0.0084053203,0.5485436916,0.0461469293,-2.8357434273
        2.3047900200,       -0.0023099780,-0.0159160867,-0.0088936016,0.4112146199,0.5802045465,-2.5763440132
        2.3073489666,       -0.0032865405,-0.0159160867,-0.0088936016,0.4112146199,0.5802045465,-2.5763440132
        2.3100540638,       -0.0032865405,-0.0159160867,-0.0088936016,0.2128503621,0.7175336480,-2.6678967476
        2.3127520084,       -0.0032865405,-0.0159160867,-0.0088936016,0.2128503621,0.7175336480,-2.6678967476
        2.3154530525,       -0.0023099780,-0.0193340555,0.0038017109,0.1670739949,0.3818402886,-3.0798840523
        2.3181591034,       -0.0023099780,-0.0193340555,0.0038017109,0.1670739949,0.3818402886,-3.0798840523
        2.3208510876,       -0.0023099780,-0.0193340555,0.0038017109,0.6706140041,0.2292523980,-2.8357434273
        2.3235991001,       -0.0023099780,-0.0193340555,0.0038017109,0.6706140041,0.2292523980,-2.8357434273
        2.3261668682,       -0.0027982593,-0.0090801492,-0.0171943828,0.5027673244,0.1529584527,-2.7441906929
        2.3288810253,       -0.0027982593,-0.0090801492,-0.0171943828,0.5027673244,0.1529584527,-2.7441906929
        2.3315398693,       -0.0027982593,-0.0090801492,-0.0171943828,0.3501794636,-0.2285112739,-2.8662610054
        2.3343319893,       -0.0027982593,-0.0090801492,-0.0054756328,0.3501794636,-0.2285112739,-2.8662610054
        2.3377649784,       -0.0003568530,-0.0188457742,-0.0054756328,-0.1991369426,0.5191693902,-2.8815197945
        2.3403329849,       -0.0003568530,-0.0188457742,-0.0054756328,-0.1991369426,0.5191693902,-2.8815197945
        2.3428978920,       -0.0003568530,-0.0188457742,-0.0054756328,0.4112146199,0.6870160699,-3.0646252632
        2.3454608917,       -0.0096341968,-0.0168926492,-0.0049873516,0.4112146199,0.6870160699,-3.0646252632
        2.3481528759,       -0.0096341968,-0.0168926492,-0.0049873516,0.3196618855,0.5649457574,-2.7747082710
        2.3507230282,       -0.0096341968,-0.0168926492,-0.0049873516,0.3196618855,0.5649457574,-2.7747082710
        2.3532869816,       -0.0096341968,-0.0168926492,-0.0049873516,0.3044030964,0.4886518121,-2.5916028023
        2.3559598923,       -0.0071927905,-0.0168926492,-0.0079170391,0.3044030964,0.4886518121,-2.5916028023
        2.3585510254,       -0.0071927905,-0.0168926492,-0.0079170391,0.1212976277,0.3055463433,-2.5610852242
        2.3611168861,       -0.0071927905,-0.0168926492,-0.0079170391,0.1212976277,0.3055463433,-2.5610852242
        2.3636860847,       -0.0071927905,-0.0168926492,-0.0079170391,0.7163903713,0.3208051324,-2.6678967476
        2.3662459850,       -0.0081693530,-0.0159160867,-0.0098701641,0.7163903713,0.3208051324,-2.6678967476
        2.3688108921,       -0.0081693530,-0.0159160867,-0.0098701641,0.5332849026,0.1071820855,-2.4695324898
        2.3713829517,       -0.0081693530,-0.0159160867,-0.0098701641,0.5332849026,0.1071820855,-2.4695324898
        2.3739459515,       -0.0081693530,-0.0159160867,-0.0098701641,0.4417321980,0.2445111871,-2.8510022163
        2.3765070438,       -0.0057279468,-0.0178692117,-0.0059639141,0.4417321980,0.2445111871,-2.8510022163
        2.3791310787,       -0.0057279468,-0.0178692117,-0.0059639141,0.4417321980,0.4733930230,-2.7136731148
        2.3816959858,       -0.0057279468,-0.0178692117,-0.0059639141,0.2586267292,0.4733930230,-2.7136731148
        2.3842599392,       -0.0057279468,-0.0178692117,-0.0059639141,0.2586267292,0.4733930230,-2.4084973335
        2.3868179321,       -0.0052396655,-0.0129863992,-0.0088936016,0.3044030964,0.4733930230,-2.4084973335
        2.3894169331,       -0.0052396655,-0.0129863992,-0.0088936016,0.3044030964,0.4733930230,-2.4084973335
        2.3919799328,       -0.0052396655,-0.0129863992,-0.0088936016,0.2128503621,0.6412397027,-2.3779797554
        2.3945429325,       -0.0052396655,-0.0129863992,-0.0088936016,0.2128503621,0.6412397027,-2.3779797554
        2.3971030712,       -0.0042631030,-0.0139629617,-0.0088936016,0.6858727932,0.2292523980,-2.6831555367
        2.3997809887,       -0.0042631030,-0.0139629617,-0.0088936016,0.6858727932,0.2292523980,-2.6831555367
        2.4023449421,       -0.0042631030,-0.0139629617,-0.0088936016,0.4722497761,0.2292523980,-2.6831555367
        2.4049110413,       -0.0042631030,-0.0139629617,-0.0088936016,0.4722497761,0.2292523980,-2.6831555367
        2.4074859619,       -0.0106107593,-0.0129863992,-0.0015693828,0.2128503621,0.5954633355,-2.3169445992
        2.4100480080,       -0.0106107593,-0.0129863992,-0.0015693828,0.2128503621,0.5954633355,-2.3169445992
        2.4126200676,       -0.0106107593,-0.0129863992,-0.0015693828,-0.2754308879,0.9769330621,-2.3016858101
        2.4151818752,       -0.0106107593,-0.0129863992,-0.0069404766,-0.2754308879,0.9769330621,-2.3016858101
        2.4178950787,       -0.0003568530,-0.0076153055,-0.0069404766,0.1060388386,1.1295208931,-2.3474621773
        2.4205949306,       -0.0003568530,-0.0076153055,-0.0069404766,0.1060388386,1.1295208931,-2.3474621773
        2.4232890606,       -0.0003568530,-0.0076153055,-0.0069404766,0.4875085652,0.4428754449,-2.4847912788
        2.4259939194,       -0.0003568530,-0.0139629617,-0.0059639141,0.4875085652,0.4428754449,-2.4847912788
        2.4287428856,       -0.0120756030,-0.0139629617,-0.0059639141,-0.0160314739,0.1682172418,-2.4390149117
        2.4314420223,       -0.0120756030,-0.0139629617,-0.0059639141,-0.0160314739,0.1682172418,-2.4390149117
        2.4341490269,       -0.0120756030,-0.0139629617,-0.0059639141,0.0755212605,0.5649457574,-2.3474621773
        2.4368450642,       -0.0003568530,-0.0149395242,-0.0040107891,0.0755212605,0.5649457574,-2.3474621773
        2.4394569397,       -0.0003568530,-0.0149395242,-0.0040107891,0.4875085652,0.7480512261,-2.5458264351
        2.4420258999,       -0.0003568530,-0.0149395242,-0.0040107891,0.4875085652,0.7480512261,-2.5458264351
        2.4445869923,       -0.0003568530,-0.0149395242,-0.0040107891,0.4875085652,0.9464154840,-2.6068615913
        2.4471540451,       -0.0042631030,-0.0115215555,-0.0035225078,0.5638024807,0.9464154840,-2.6068615913
        2.4497239590,       -0.0042631030,-0.0115215555,-0.0035225078,0.5638024807,0.9464154840,-2.2101330757
        2.4522879124,       -0.0042631030,-0.0115215555,-0.0035225078,0.5485436916,1.0227093697,-2.2101330757
        2.4549179077,       -0.0042631030,-0.0115215555,-0.0035225078,0.5485436916,1.0227093697,-2.4542737007
        2.4574899673,       -0.0071927905,-0.0100567117,0.0047782734,0.8994958401,0.6259809136,-2.4542737007
        2.4601759911,       -0.0071927905,-0.0100567117,0.0047782734,0.8994958401,0.6259809136,-2.6678967476
        2.4628589153,       -0.0071927905,-0.0100567117,0.0047782734,1.0673425198,0.5802045465,-2.6678967476
        2.4655430317,       -0.0071927905,-0.0100567117,0.0047782734,1.0673425198,0.5802045465,-2.6831555367
        2.4682319164,       -0.0106107593,-0.0193340555,-0.0015693828,0.5027673244,0.4123578668,-2.6831555367
        2.4708909988,       -0.0106107593,-0.0193340555,-0.0015693828,0.5027673244,0.4123578668,-2.6831555367
        2.4735949039,       -0.0106107593,-0.0193340555,-0.0015693828,0.6248376369,0.3360639215,-2.8662610054
        2.4762909412,       -0.0106107593,-0.0193340555,0.0008720234,0.6248376369,0.3360639215,-2.8662610054
        2.4789960384,       -0.0096341968,-0.0193340555,0.0008720234,0.6706140041,0.0461469293,-3.1866955757
        2.4816870689,       -0.0096341968,-0.0193340555,0.0008720234,0.6706140041,0.0461469293,-3.1866955757
        2.4844939709,       -0.0096341968,-0.0193340555,0.0008720234,0.5638024807,0.3360639215,-2.8662610054
        2.4871919155,       -0.0018216968,-0.0164043680,-0.0035225078,0.5638024807,0.3360639215,-2.8662610054
        2.4897699356,       -0.0018216968,-0.0164043680,-0.0035225078,0.6858727932,0.6564984918,-2.6373791695
        2.4923319817,       -0.0018216968,-0.0164043680,-0.0035225078,0.6858727932,0.6564984918,-2.6373791695
        2.4948940277,       -0.0018216968,-0.0164043680,-0.0035225078,0.8079431057,0.6412397027,-2.9425549507
        2.4975819588,       -0.0037748218,-0.0183574930,-0.0142646953,0.8079431057,0.6412397027,-2.9425549507
        2.5001471043,       -0.0037748218,-0.0183574930,-0.0142646953,0.9605309963,0.3513227105,-3.0646252632
        2.5027110577,       -0.0037748218,-0.0183574930,-0.0142646953,0.9605309963,0.3513227105,-3.0646252632
        2.5052731037,       -0.0037748218,-0.0183574930,-0.0142646953,1.2504479885,0.2902875543,-3.3087658882
        2.5079469681,       -0.0037748218,-0.0188457742,-0.0103584453,1.2504479885,0.2902875543,-3.3087658882
        2.5106489658,       -0.0037748218,-0.0188457742,-0.0103584453,0.9147546291,0.4276166558,-2.7747082710
        2.5133368969,       -0.0037748218,-0.0188457742,-0.0103584453,0.9147546291,0.4276166558,-2.7747082710
        2.5160369873,       -0.0037748218,-0.0188457742,-0.0103584453,1.4182946682,0.3055463433,-2.7899670601
        2.5187509060,       -0.0032865405,-0.0144512430,-0.0005928203,1.4182946682,0.3055463433,-2.7899670601
        2.5214459896,       -0.0032865405,-0.0144512430,-0.0005928203,1.0368249416,0.3818402886,-2.6526379585
        2.5241448879,       -0.0032865405,-0.0144512430,-0.0005928203,1.0368249416,0.3818402886,-2.6526379585
        2.5268440247,       -0.0032865405,-0.0207988992,-0.0084053203,0.6553552151,0.4886518121,-2.5000500679
        2.5294530392,       -0.0110990405,-0.0207988992,-0.0084053203,0.6553552151,0.4886518121,-2.5000500679
        2.5320200920,       -0.0110990405,-0.0207988992,-0.0084053203,0.8994958401,0.4276166558,-2.4390149117
        2.5345809460,       -0.0110990405,-0.0207988992,-0.0084053203,0.8994958401,0.4276166558,-2.4390149117
        2.5371470451,       -0.0110990405,-0.0203106180,0.0008720234,0.5790612698,0.6412397027,-2.4847912788
        2.5398368835,       -0.0115873218,-0.0203106180,0.0008720234,0.5790612698,0.6412397027,-2.4847912788
        2.5425360203,       -0.0115873218,-0.0203106180,0.0008720234,-3.3271887302,0.7785688043,-2.3016858101
        2.5452289581,       -0.0115873218,-0.0203106180,0.0008720234,-0.2143957317,0.7785688043,-2.3016858101
        2.5480558872,       -0.0052396655,-0.0198223367,-0.0088936016,-0.1381017864,0.6412397027,-2.2864270210
        2.5507559776,       -0.0052396655,-0.0198223367,-0.0088936016,-0.1381017864,0.6412397027,-2.2864270210
        2.5534498692,       -0.0052396655,-0.0198223367,-0.0088936016,-0.1381017864,0.7175336480,-2.3627209663
        2.5561480522,       -0.0052396655,-0.0198223367,-0.0088936016,-0.3212072551,0.7175336480,-2.3627209663
        2.5588560104,       -0.0018216968,-0.0149395242,-0.0186592266,-0.3212072551,0.9464154840,-2.3474621773
        2.5615549088,       -0.0018216968,-0.0149395242,-0.0186592266,-0.0465490520,0.9464154840,-2.3474621773
        2.5642480850,       -0.0018216968,-0.0149395242,-0.0186592266,-0.0465490520,0.7633100152,-2.1338391304
        2.5669450760,       -0.0018216968,-0.0149395242,-0.0079170391,-0.4127599895,0.7633100152,-2.1338391304
        2.5696539879,       -0.0037748218,-0.0173809305,-0.0079170391,-0.4127599895,0.7938275933,-2.3474621773
        2.5723528862,       -0.0037748218,-0.0173809305,-0.0079170391,-0.0923254192,0.7938275933,-2.3474621773
        2.5750548840,       -0.0037748218,-0.0173809305,-0.0079170391,3.8139245510,0.8548627496,-2.2406506538
        2.5777518749,       -0.0013334155,-0.0154278055,-0.0005928203,0.4264734089,0.8548627496,-2.2406506538
        2.5803189278,       -0.0013334155,-0.0154278055,-0.0005928203,0.4264734089,0.8548627496,-2.1796154976
        2.5828890800,       -0.0013334155,-0.0154278055,-0.0005928203,0.0450036824,0.8701215386,-2.1796154976
        2.5854508877,       -0.0013334155,-0.0154278055,-0.0005928203,0.0450036824,0.8701215386,-1.9812512398
        2.5880460739,       -0.0042631030,-0.0168926492,0.0028251484,-0.1533605754,0.7633100152,-1.9812512398
        2.5907530785,       -0.0042631030,-0.0168926492,0.0028251484,-0.1533605754,0.7633100152,-1.9354748726
        2.5934438705,       -0.0042631030,-0.0168926492,0.0028251484,0.0297448933,0.5954633355,-1.9354748726
        2.5961380005,       -0.0042631030,-0.0168926492,0.0028251484,0.0297448933,0.5954633355,-5.8417248726
        2.5988469124,       -0.0076810718,-0.0134746805,-0.0103584453,0.0450036824,0.6564984918,-2.1796154976
        2.6015379429,       -0.0076810718,-0.0134746805,-0.0103584453,0.0450036824,0.6564984918,-2.1796154976
        2.6042339802,       -0.0076810718,-0.0134746805,-0.0103584453,0.2586267292,0.7480512261,-2.2406506538
        2.6069269180,       -0.0076810718,-0.0134746805,-0.0103584453,0.2586267292,0.7480512261,-2.2406506538
        2.6096339226,       -0.0091459155,-0.0149395242,-0.0059639141,0.2738855183,0.5496869683,-2.2864270210
        2.6124410629,       -0.0091459155,-0.0149395242,-0.0059639141,0.2738855183,0.5496869683,-2.2864270210
        2.6151409149,       -0.0091459155,-0.0149395242,-0.0059639141,0.5332849026,0.5344281793,-2.4084973335
        2.6178469658,       -0.0091459155,-0.0129863992,-0.0079170391,0.5332849026,0.5344281793,1.4977526665
        2.6205439568,        0.0015962720,-0.0129863992,-0.0079170391,0.5332849026,0.8243451715,-2.0422863960
        2.6232390404,        0.0015962720,-0.0129863992,-0.0079170391,0.5332849026,0.8243451715,-2.0422863960
        2.6259288788,        0.0015962720,-0.0129863992,-0.0079170391,0.0755212605,0.9921918511,-2.0422863960
        2.6285898685,       -0.0076810718,-0.0193340555,-0.0108467266,0.0755212605,0.9921918511,-2.0422863960
        2.6311540604,       -0.0076810718,-0.0193340555,-0.0108467266,-0.0312902629,1.4499554634,-2.1338391304
        2.6337189674,       -0.0076810718,-0.0193340555,-0.0108467266,-0.0312902629,1.4499554634,-2.1338391304
        2.6362779140,       -0.0076810718,-0.0193340555,-0.0108467266,-0.3364660442,0.9921918511,-2.0270276070
        2.6389620304,       -0.0052396655,-0.0139629617,-0.0127998516,-0.3364660442,0.9921918511,-2.0270276070
        2.6416549683,       -0.0052396655,-0.0139629617,-0.0127998516,-0.2601720989,0.6870160699,-1.8744397163
        2.6443500519,       -0.0052396655,-0.0139629617,-0.0127998516,-0.2601720989,0.6870160699,-1.8744397163
        2.6470470428,       -0.0052396655,-0.0139629617,-0.0127998516,0.0144861042,0.8396039605,-2.1643567085
        2.6497509480,       -0.0018216968,-0.0095684305,-0.0088936016,0.0144861042,0.8396039605,-2.1643567085
        2.6524410248,       -0.0018216968,-0.0095684305,-0.0088936016,-0.1075842083,1.2058148384,-2.1796154976
        2.6551389694,       -0.0018216968,-0.0095684305,-0.0088936016,-0.1075842083,1.2058148384,-2.1796154976
        2.6578450203,       -0.0018216968,-0.0095684305,-0.0118232891,-0.3212072551,0.8853803277,-2.3016858101
        2.6605429649,        0.0001314282,-0.0129863992,-0.0118232891,-0.3212072551,0.8853803277,-2.3016858101
        2.6632320881,        0.0001314282,-0.0129863992,-0.0118232891,-0.5348303318,1.0379681587,-2.3932385445
        2.6659319401,        0.0001314282,-0.0129863992,-0.0118232891,-0.5348303318,1.0379681587,-2.3932385445
        2.6686429977,        0.0011079907,-0.0105449930,-0.0123115703,-0.1838781536,0.5344281793,-2.4542737007
        2.6713368893,        0.0011079907,-0.0105449930,-0.0123115703,-0.1838781536,0.5344281793,-2.4542737007
        2.6740369797,        0.0011079907,-0.0105449930,-0.0123115703,-0.3212072551,0.8701215386,-2.1033215523
        2.6768410206,        0.0011079907,-0.0105449930,-0.0123115703,-0.3212072551,0.8701215386,-2.1033215523
        2.6794478893,       -0.0067045093,-0.0159160867,0.0081962422,0.0907800496,0.7175336480,-2.1643567085
        2.6820199490,       -0.0067045093,-0.0159160867,0.0081962422,0.0907800496,0.7175336480,-2.1643567085
        2.6845839024,       -0.0067045093,-0.0159160867,0.0081962422,-0.1533605754,0.5954633355,-2.0728039742
        2.6871500015,       -0.0067045093,-0.0159160867,0.0081962422,-0.1533605754,0.5954633355,-2.0728039742
        2.6898539066,       -0.0062162280,-0.0183574930,-0.0064521953,-0.3059484661,0.8853803277,-2.0880627632
        2.6925539970,       -0.0062162280,-0.0183574930,-0.0064521953,-0.3059484661,0.8853803277,-2.0880627632
        2.6952550411,       -0.0062162280,-0.0183574930,-0.0064521953,-0.1533605754,1.0379681587,-2.3016858101
        2.6979670525,       -0.0062162280,-0.0183574930,-0.0025459453,-0.1533605754,1.0379681587,-2.3016858101
        2.7006680965,       -0.0032865405,-0.0159160867,-0.0025459453,0.1060388386,0.9311566949,-2.3932385445
        2.7033679485,       -0.0032865405,-0.0159160867,-0.0025459453,0.1060388386,0.9311566949,-2.3932385445
        2.7060658932,       -0.0032865405,-0.0159160867,-0.0025459453,-0.0770666301,0.8701215386,-2.3322033882
        2.7087759972,       -0.0032865405,-0.0129863992,0.0023368672,-0.0770666301,0.8701215386,-2.3322033882
        2.7114760876,       -0.0003568530,-0.0129863992,0.0023368672,0.3349206746,1.4194378853,-2.0117688179
        2.7141740322,       -0.0003568530,-0.0129863992,0.0023368672,0.3349206746,1.4194378853,-2.0117688179
        2.7168700695,       -0.0003568530,-0.0129863992,0.0023368672,-0.0465490520,1.2973675728,-2.3627209663
        2.7195770741,       -0.0106107593,-0.0168926492,-0.0020576641,-0.0465490520,1.2973675728,-2.3627209663
        2.7222659588,       -0.0106107593,-0.0168926492,-0.0020576641,0.1518152058,0.8548627496,-2.4542737007
        2.7249569893,       -0.0106107593,-0.0168926492,-0.0020576641,0.1518152058,0.8548627496,-2.4542737007
        2.7277009487,       -0.0106107593,-0.0168926492,-0.0020576641,-0.1075842083,0.7633100152,-2.0270276070
        2.7302660942,       -0.0106107593,-0.0207988992,-0.0015693828,-0.1075842083,0.7633100152,-2.0270276070
        2.7328319550,       -0.0106107593,-0.0207988992,-0.0015693828,-0.1075842083,0.9006391168,-2.1796154976
        2.7355310917,       -0.0106107593,-0.0207988992,-0.0015693828,-0.1838781536,0.9006391168,-2.1796154976
        2.7382888794,       -0.0106107593,-0.0207988992,0.0003837422,-0.1838781536,1.1905560493,-2.3169445992
        2.7410628796,       -0.0042631030,-0.0188457742,0.0003837422,0.1518152058,1.1905560493,-2.3169445992
        2.7437210083,       -0.0042631030,-0.0188457742,0.0003837422,0.1518152058,0.8853803277,-2.1643567085
        2.7471549511,       -0.0042631030,-0.0188457742,0.0003837422,0.1060388386,0.8853803277,-2.1643567085
        2.7498660088,       -0.0062162280,-0.0144512430,-0.0098701641,-0.0312902629,1.1600384712,-2.3627209663
        2.7525699139,       -0.0062162280,-0.0144512430,-0.0098701641,-0.0312902629,1.1600384712,-2.3627209663
        2.7552690506,       -0.0062162280,-0.0144512430,-0.0098701641,0.4722497761,0.8090863824,-2.3169445992
        2.7579770088,       -0.0062162280,-0.0144512430,-0.0098701641,0.4722497761,0.8090863824,-2.3169445992
        2.7606859207,       -0.0052396655,-0.0178692117,-0.0069404766,-0.2754308879,1.0684857368,-2.1338391304
        2.7633829117,       -0.0052396655,-0.0178692117,-0.0069404766,-0.2754308879,1.0684857368,-2.1338391304
        2.7660799026,       -0.0052396655,-0.0178692117,-0.0069404766,-0.1381017864,1.0074505806,-1.9049572945
        2.7687969208,       -0.0052396655,-0.0178692117,-0.0103584453,-0.1381017864,1.0074505806,-1.9049572945
        2.7714929581,       -0.0047513843,-0.0198223367,-0.0103584453,0.0144861042,0.9006391168,-1.9812512398
        2.7742009163,       -0.0047513843,-0.0198223367,-0.0103584453,0.0144861042,0.9006391168,-1.9812512398
        2.7769010067,       -0.0047513843,-0.0198223367,-0.0103584453,-0.3059484661,0.9006391168,-1.8286633492
        2.7795090675,       -0.0047513843,-0.0154278055,-0.0005928203,-0.3059484661,0.9006391168,-1.8286633492
        2.7820758820,       -0.0037748218,-0.0154278055,-0.0005928203,-0.3059484661,0.8396039605,-1.9049572945
        2.7846460342,       -0.0037748218,-0.0154278055,-0.0005928203,-0.3059484661,0.8396039605,-1.9049572945
        2.7872109413,       -0.0037748218,-0.0154278055,-0.0005928203,-0.3059484661,0.9464154840,-2.0422863960
        2.7899529934,       -0.0086576343,-0.0159160867,-0.0035225078,0.1365564167,0.9464154840,-2.0422863960
        2.7925190926,       -0.0086576343,-0.0159160867,-0.0035225078,0.1365564167,0.9464154840,-1.9354748726
        2.7950890064,       -0.0086576343,-0.0159160867,-0.0035225078,-0.1075842083,0.9311566949,-1.9354748726
        2.7978279591,       -0.0086576343,-0.0159160867,-0.0035225078,-0.1075842083,0.9311566949,-1.7371106148
        2.8005239964,       -0.0008451343,-0.0154278055,-0.0079170391,-0.3364660442,1.0684857368,-1.7371106148
        2.8032290936,       -0.0008451343,-0.0154278055,-0.0079170391,-0.3364660442,1.0684857368,-2.2101330757
        2.8060441017,       -0.0008451343,-0.0154278055,-0.0079170391,-0.0618078411,0.8243451715,-2.2101330757
        2.8087570667,       -0.0008451343,-0.0154278055,-0.0079170391,-0.0618078411,0.8243451715,-2.4237561226
        2.8114559650,       -0.0091459155,-0.0129863992,0.0023368672,-0.3517248333,0.8243451715,-2.4237561226
        2.8141520023,       -0.0091459155,-0.0129863992,0.0023368672,-0.3517248333,0.8243451715,-2.3016858101
        2.8168509007,       -0.0091459155,-0.0129863992,0.0023368672,-0.5348303318,1.1905560493,-2.3016858101
        2.8194599152,       -0.0091459155,-0.0129863992,-0.0225654766,-0.5348303318,1.1905560493,-2.2711682320
        2.8220238686,       -0.0008451343,-0.0149395242,-0.0225654766,0.1060388386,0.9158979058,-2.2711682320
        2.8245940208,       -0.0008451343,-0.0149395242,-0.0225654766,0.1060388386,0.9158979058,-2.2711682320
        2.8271570206,       -0.0008451343,-0.0149395242,-0.0225654766,-0.0618078411,0.6870160699,-2.0117688179
        2.8298568726,       -0.0008451343,-0.0164043680,-0.0074287578,-0.0618078411,0.6870160699,-2.0117688179
        2.8325579166,       -0.0081693530,-0.0164043680,-0.0074287578,-0.5043127537,0.8396039605,-2.0270276070
        2.8352539539,       -0.0081693530,-0.0164043680,-0.0074287578,-0.5043127537,0.8396039605,-2.0270276070
        2.8379468918,       -0.0081693530,-0.0164043680,-0.0074287578,-0.3212072551,0.9311566949,-2.0728039742
        2.8405189514,       -0.0037748218,-0.0139629617,-0.0157295391,-0.3212072551,0.9311566949,-2.0728039742
        2.8430860043,       -0.0037748218,-0.0139629617,-0.0157295391,-0.3975012004,0.9158979058,-2.0117688179
        2.8456568718,       -0.0037748218,-0.0139629617,-0.0157295391,-0.3975012004,0.9158979058,-2.0117688179
        2.8483560085,       -0.0037748218,-0.0139629617,-0.0157295391,0.1823327839,0.6717572808,-2.1033215523
        2.8510229588,       -0.0081693530,-0.0144512430,-0.0020576641,0.1823327839,0.6717572808,-2.1033215523
        2.8538260460,       -0.0081693530,-0.0144512430,-0.0020576641,-0.2601720989,0.6107221246,-2.1490979195
        2.8565239906,       -0.0081693530,-0.0144512430,-0.0020576641,-0.2601720989,0.6107221246,-2.1490979195
        2.8592340946,       -0.0081693530,-0.0144512430,-0.0020576641,-0.5043127537,1.0379681587,-2.4084973335
        2.8619289398,       -0.0018216968,-0.0193340555,-0.0054756328,-0.5043127537,1.0379681587,-2.4084973335
        2.8646230698,       -0.0018216968,-0.0193340555,-0.0054756328,-0.1228429973,1.0684857368,-2.4695324898
        2.8673141003,       -0.0018216968,-0.0193340555,-0.0054756328,-0.1228429973,1.0684857368,-2.4695324898
        2.8700079918,       -0.0018216968,-0.0193340555,-0.0040107891,-0.1991369426,0.5954633355,-2.3322033882
        2.8725740910,        0.0015962720,-0.0159160867,-0.0040107891,-0.1991369426,0.5954633355,-2.3322033882
        2.8751430511,        0.0015962720,-0.0159160867,-0.0040107891,0.2433679402,0.6259809136,-2.2559094429
        2.8777630329,        0.0015962720,-0.0159160867,-0.0040107891,0.2433679402,0.6259809136,-2.2559094429
        2.8804528713,        0.0015962720,-0.0134746805,-0.0103584453,-0.3669836223,0.8701215386,-2.0422863960
        2.8831501007,       -0.0042631030,-0.0134746805,-0.0103584453,-0.3669836223,0.8701215386,-2.0422863960
        2.8858489990,       -0.0042631030,-0.0134746805,-0.0103584453,0.0602624714,0.4428754449,-1.6913342476
        2.8885080814,       -0.0042631030,-0.0134746805,-0.0103584453,0.0602624714,0.4428754449,-1.6913342476
