time, acceleration x, acceleration y, acceleration z, gyro x gyro y, gyro z
        0.0000000000,       -0.0314114094,-0.1212570518,-0.0270395130,-6.7642369270,-1.4379442930,2.8586740494
        0.0026998520,       -0.0314114094,-0.1212570518,-0.0270395130,-6.7642369270,-1.4379442930,2.8586740494
        0.0053949356,       -0.0411770344,-0.1173508018,-0.0216684192,-6.3522496223,-1.9109667540,2.9349679947
        0.0081079006,       -0.0411770344,-0.1173508018,-0.0216684192,-6.3522496223,-1.9109667540,2.9349679947
        0.0108020306,       -0.0411770344,-0.1173508018,-0.0216684192,-6.3217320442,-2.0788135529,2.9807443619
        0.0134999752,       -0.0411770344,-0.1158859581,-0.0231332630,-6.3217320442,-2.0788135529,2.9807443619
        0.0161910057,       -0.0309231281,-0.1158859581,-0.0231332630,-6.7794957161,-2.0025196075,3.0112619400
        0.0188989639,       -0.0309231281,-0.1158859581,-0.0231332630,-6.7794957161,-2.0025196075,3.0112619400
        0.0215940475,       -0.0309231281,-0.1158859581,-0.0231332630,-6.7337193489,-1.8194140196,2.6603097916
        0.0242879391,       -0.0358059406,-0.1173508018,-0.0148324817,-6.7337193489,-1.8194140196,2.6603097916
        0.0269818306,       -0.0358059406,-0.1173508018,-0.0148324817,-6.6879429817,-2.0482959747,3.0112619400
        0.0296058655,       -0.0358059406,-0.1173508018,-0.0148324817,-6.6879429817,-2.0482959747,3.0112619400
        0.0321669579,       -0.0358059406,-0.1173508018,-0.0148324817,-6.9931187630,-2.0330371857,3.0570383072
        0.0347359180,       -0.0333645344,-0.1134445518,-0.0226449817,-6.9931187630,-2.0330371857,3.0570383072
        0.0373039246,       -0.0333645344,-0.1134445518,-0.0226449817,-6.7184605598,-2.2771778107,2.9197092056
        0.0399620533,       -0.0333645344,-0.1134445518,-0.0226449817,-6.7184605598,-2.2771778107,2.9197092056
        0.0425360203,       -0.0333645344,-0.1134445518,-0.0226449817,-6.8863072395,-1.7126024961,2.9197092056
        0.0451049805,       -0.0318996906,-0.1193039268,-0.0206918567,-6.8863072395,-1.7126024961,2.9197092056
        0.0476698875,       -0.0318996906,-0.1193039268,-0.0206918567,-6.4590611458,-1.7126024961,2.8434152603
        0.0503070354,       -0.0318996906,-0.1193039268,-0.0206918567,-6.4590611458,-1.7126024961,2.8434152603
        0.0530350208,       -0.0318996906,-0.1193039268,-0.0206918567,-2.5528111458,-2.0788135529,2.5534982681
        0.0556089878,       -0.0358059406,-0.1149093956,-0.0255746692,-6.1691441536,-2.0788135529,2.5534982681
        0.0582208633,       -0.0358059406,-0.1149093956,-0.0255746692,-6.1691441536,-2.2161426544,2.7671213150
        0.0609200001,       -0.0358059406,-0.1149093956,-0.0255746692,-5.8334507942,-2.2161426544,2.7671213150
        0.0636248589,       -0.0358059406,-0.1149093956,-0.0250863880,-5.8334507942,-2.0025196075,2.9807443619
        0.0663239956,       -0.0343410969,-0.1188156456,-0.0250863880,-6.7184605598,-2.0025196075,2.9807443619
        0.0690679550,       -0.0343410969,-0.1188156456,-0.0250863880,-6.7184605598,-2.0330371857,2.9349679947
        0.0717680454,       -0.0343410969,-0.1188156456,-0.0250863880,-7.0236363411,-2.0330371857,2.9349679947
        0.0744650364,       -0.0416653156,-0.1168625206,-0.0167856067,-7.0236363411,-1.8346728086,2.7823801041
        0.0771648884,       -0.0416653156,-0.1168625206,-0.0167856067,-6.7337193489,-1.8346728086,2.7823801041
        0.0798740387,       -0.0416653156,-0.1168625206,-0.0167856067,-6.7337193489,2.0715770721,2.6297922134
        0.0825710297,       -0.0416653156,-0.1168625206,-0.0167856067,-6.6269078255,-1.7736376524,2.6297922134
        0.0852739811,       -0.0377590656,-0.1110031456,-0.0348520130,-6.6269078255,-5.6798877716,2.9044504166
        0.0881860256,       -0.0377590656,-0.1110031456,-0.0348520130,-6.9015660286,-1.8804491758,2.9044504166
        0.0908398628,       -0.0377590656,-0.1110031456,-0.0348520130,-6.9015660286,-1.7888964415,3.0570383072
        0.0935359001,       -0.0377590656,-0.1110031456,-0.0202035755,-7.0236363411,-1.7888964415,3.0570383072
        0.0965199471,       -0.0353176594,-0.1153976768,-0.0202035755,-7.0236363411,-1.9720019102,2.9197092056
        0.0992739201,       -0.0353176594,-0.1153976768,-0.0202035755,-6.6574254036,-1.9720019102,2.9197092056
        0.1019690037,       -0.0353176594,-0.1153976768,-0.0202035755,-6.6574254036,-1.9262255430,2.6908273697
        0.1046659946,       -0.0353176594,-0.1183273643,-0.0226449817,-7.0236363411,-1.9262255430,2.6908273697
        0.1073689461,       -0.0338528156,-0.1183273643,-0.0226449817,-7.0236363411,-1.7126024961,2.8281564713
        0.1100790501,       -0.0338528156,-0.1183273643,-0.0226449817,-7.2982945442,-1.7126024961,2.8281564713
        0.1127769947,       -0.0338528156,-0.1183273643,-0.0226449817,-7.2982945442,-1.4989794493,2.9654855728
        0.1154730320,       -0.0323879719,-0.1188156456,-0.0202035755,-7.0236363411,-1.4989794493,2.9654855728
        0.1182889938,       -0.0323879719,-0.1188156456,-0.0202035755,-7.0236363411,-1.5905321836,3.1180734634
        0.1209900379,       -0.0323879719,-0.1188156456,-0.0202035755,-6.7489781380,-1.5905321836,3.1180734634
        0.1236889362,       -0.0323879719,-0.1188156456,-0.0202035755,-6.7489781380,-1.8651903868,2.9654855728
        0.1263968945,       -0.0348293781,-0.1173508018,-0.0236215442,-6.7489781380,-1.8651903868,2.9654855728
        0.1290669441,       -0.0348293781,-0.1173508018,-0.0236215442,-6.7489781380,-1.8651903868,3.0875558853
        0.1316380501,       -0.0348293781,-0.1173508018,-0.0236215442,-6.4590611458,-1.8651903868,3.0875558853
        0.1342029572,       -0.0348293781,-0.1173508018,-0.0128793567,-6.4590611458,-1.8651903868,3.1028146744
        0.1367678642,       -0.0372707844,-0.1139328331,-0.0128793567,-6.3827672005,-1.6515673399,3.1028146744
        0.1395039558,       -0.0372707844,-0.1139328331,-0.0128793567,-6.3827672005,-1.6515673399,3.0417795181
        0.1420710087,       -0.0372707844,-0.1139328331,-0.0128793567,-6.0318150520,-1.7126024961,3.0417795181
        0.1446380615,       -0.0372707844,-0.1183273643,-0.0172738880,-6.0318150520,-1.7126024961,3.0417795181
        0.1472058296,       -0.0343410969,-0.1183273643,-0.0172738880,-6.1386265755,-1.6515673399,2.9349679947
        0.1500120163,       -0.0343410969,-0.1183273643,-0.0172738880,-6.1386265755,-1.6515673399,2.9349679947
        0.1527130604,       -0.0343410969,-0.1183273643,-0.0172738880,-6.4743199348,-1.4379442930,2.7518625259
        0.1554129124,       -0.0343410969,-0.1124679893,-0.0221567005,-6.4743199348,-1.4379442930,2.7518625259
        0.1581199169,       -0.0343410969,-0.1124679893,-0.0221567005,-6.2454380989,-1.7736376524,2.6908273697
        0.1608219147,       -0.0343410969,-0.1124679893,-0.0221567005,-6.2454380989,-1.7736376524,2.6908273697
        0.1635198593,       -0.0343410969,-0.1124679893,-0.0221567005,-6.2606968880,-1.8651903868,2.9960031509
        0.1662139893,       -0.0377590656,-0.1193039268,-0.0226449817,-6.2606968880,-1.8651903868,2.9960031509
        0.1688749790,       -0.0377590656,-0.1193039268,-0.0226449817,-6.5200963020,-2.0788135529,3.1028146744
        0.1714448929,       -0.0377590656,-0.1193039268,-0.0226449817,-6.5200963020,-2.0788135529,3.1028146744
        0.1740179062,       -0.0377590656,-0.1193039268,-0.0226449817,-6.6726841927,-1.9414843321,3.0722970963
        0.1765849590,       -0.0304348469,-0.1173508018,-0.0206918567,-6.6726841927,-1.9414843321,3.0722970963
        0.1792778969,       -0.0304348469,-0.1173508018,-0.0206918567,-6.1233677864,-2.0635547638,2.9960031509
        0.1820869446,       -0.0304348469,-0.1173508018,-0.0206918567,-6.1233677864,-2.0635547638,2.9960031509
        0.1847898960,       -0.0304348469,-0.1173508018,-0.0226449817,-6.4132847786,-1.6820849180,3.0265207291
        0.1874918938,       -0.0362942219,-0.1129562706,-0.0226449817,-6.4132847786,-1.6820849180,3.0265207291
        0.1901969910,       -0.0362942219,-0.1129562706,-0.0226449817,-6.7947545052,-1.3921679258,2.9349679947
        0.1928930283,       -0.0362942219,-0.1129562706,-0.0226449817,-6.7947545052,-1.3921679258,2.9349679947
        0.1955888271,       -0.0309231281,-0.1110031456,-0.0314340442,-6.3064732552,-1.6515673399,2.7823801041
        0.1983008385,       -0.0309231281,-0.1110031456,-0.0314340442,-6.3064732552,-1.6515673399,2.7823801041
        0.2010028362,       -0.0309231281,-0.1110031456,-0.0314340442,-6.2149205208,-1.7736376524,2.7366037369
        0.2037010193,       -0.0309231281,-0.1110031456,-0.0314340442,-6.2149205208,-1.7736376524,2.7366037369
        0.2064390182,       -0.0362942219,-0.1193039268,-0.0285043567,-6.3369908333,-1.3769091368,3.0112619400
        0.2090940475,       -0.0362942219,-0.1193039268,-0.0285043567,-6.3369908333,-1.3769091368,3.0112619400
        0.2116599083,       -0.0362942219,-0.1193039268,-0.0285043567,-6.2759556770,-1.5752733946,3.3011789322
        0.2142329216,       -0.0362942219,-0.1193039268,-0.0285043567,-6.2759556770,-1.5752733946,3.3011789322
        0.2168040276,       -0.0367825031,-0.1202804893,-0.0231332630,-6.3522496223,-1.8804491758,3.3316965103
        0.2194998264,       -0.0367825031,-0.1202804893,-0.0231332630,-6.3522496223,-1.8804491758,3.3316965103
        0.2221958637,       -0.0367825031,-0.1202804893,-0.0231332630,-5.9097447395,-2.4297657013,2.9044504166
        0.2248868942,       -0.0367825031,-0.1202804893,-0.0231332630,-5.9097447395,-2.4297657013,2.9044504166
        0.2275829315,       -0.0367825031,-0.1193039268,-0.0162973255,-6.0775914192,-2.1856250763,2.9044504166
        0.2302930355,       -0.0367825031,-0.1193039268,-0.0162973255,-6.0775914192,-2.1856250763,2.9044504166
        0.2329838276,       -0.0367825031,-0.1193039268,-0.0162973255,-6.7642369270,-2.1551074982,3.0417795181
        0.2356829643,       -0.0367825031,-0.1168625206,-0.0245981067,-6.7642369270,-2.1551074982,3.0417795181
        0.2383599281,       -0.0362942219,-0.1168625206,-0.0245981067,-7.0388951302,-1.8651903868,3.1791086197
        0.2409288883,       -0.0362942219,-0.1168625206,-0.0245981067,-7.0388951302,-1.8651903868,3.1791086197
        0.2434949875,       -0.0362942219,-0.1168625206,-0.0245981067,-7.0388951302,-1.8346728086,3.2096261978
        0.2461650372,       -0.0416653156,-0.1188156456,-0.0192270130,-6.7184605598,-1.8346728086,3.2096261978
        0.2488808632,       -0.0416653156,-0.1188156456,-0.0192270130,-6.7184605598,-1.9567431211,3.3316965103
        0.2514488697,       -0.0416653156,-0.1188156456,-0.0192270130,-6.0928502083,-1.9567431211,3.3316965103
        0.2540118694,       -0.0416653156,-0.1188156456,-0.0192270130,-6.0928502083,-1.9567431211,3.3927316666
        0.2565829754,       -0.0362942219,-0.1090500206,-0.0221567005,-6.4132847786,-2.1856250763,3.3927316666
        0.2593100071,       -0.0362942219,-0.1090500206,-0.0221567005,-6.4132847786,-2.1856250763,3.5758371353
        0.2618780136,       -0.0362942219,-0.1090500206,-0.0221567005,-6.6726841927,-2.0940723419,3.5758371353
        0.2644438744,       -0.0362942219,-0.1090500206,-0.0221567005,-6.6726841927,-2.0940723419,3.5758371353
        0.2670068741,       -0.0397121906,-0.1144211143,-0.0280160755,-7.1914830208,-1.9567431211,3.5148019791
        0.2697119713,       -0.0397121906,-0.1144211143,-0.0280160755,-7.1914830208,-1.9567431211,3.5148019791
        0.2724089622,       -0.0397121906,-0.1144211143,-0.0280160755,-6.9931187630,-2.0025196075,3.2706613541
        0.2751059532,       -0.0397121906,-0.1144211143,-0.0280160755,-6.9931187630,-2.0025196075,3.2706613541
        0.2778129578,       -0.0299465656,-0.1119797081,-0.0270395130,-6.8252720833,-1.6668261290,3.2401437759
        0.2805089951,       -0.0299465656,-0.1119797081,-0.0270395130,-6.8252720833,-1.6668261290,3.2401437759
        0.2832119465,       -0.0299465656,-0.1119797081,-0.0270395130,-6.4895787239,-1.3158739805,3.3011789322
        0.2859108448,       -0.0299465656,-0.1119797081,-0.0231332630,-6.4895787239,-1.3158739805,3.3011789322
        0.2886068821,       -0.0294582844,-0.1168625206,-0.0231332630,-6.3522496223,-1.5752733946,3.4537668228
        0.2913060188,       -0.0294582844,-0.1168625206,-0.0231332630,-6.3522496223,-1.5752733946,3.4537668228
        0.2940759659,       -0.0294582844,-0.1168625206,-0.0231332630,-6.5048375130,-1.6668261290,3.5300607681
        0.2966489792,       -0.0348293781,-0.1080734581,-0.0324106067,-6.5048375130,-1.6668261290,3.5300607681
        0.2994289398,       -0.0348293781,-0.1080734581,-0.0324106067,-6.4285435677,-1.6820849180,3.6216135025
        0.3020899296,       -0.0348293781,-0.1080734581,-0.0324106067,-6.4285435677,-1.6820849180,3.6216135025
        0.3048570156,       -0.0348293781,-0.1080734581,-0.0324106067,-5.9402623177,-1.9720019102,3.5300607681
        0.3079178333,       -0.0323879719,-0.1276047081,-0.0177621692,-5.9402623177,-1.9720019102,3.5300607681
        0.3105950356,       -0.0323879719,-0.1276047081,-0.0177621692,-6.1844029427,-1.7736376524,3.5148019791
        0.3131659031,       -0.0323879719,-0.1276047081,-0.0177621692,-6.1844029427,-1.7736376524,3.5148019791
        0.3157320023,       -0.0323879719,-0.1276047081,-0.0177621692,-5.8792271614,-2.0177783966,3.7131662369
        0.3183350563,       -0.0436184406,-0.1183273643,-0.0182504505,-5.8792271614,-2.0177783966,3.7131662369
        0.3210339546,       -0.0436184406,-0.1183273643,-0.0182504505,-6.2759556770,-1.9109667540,3.7894601822
        0.3237340450,       -0.0436184406,-0.1183273643,-0.0182504505,-6.2759556770,-1.9109667540,3.7894601822
        0.3264310360,       -0.0436184406,-0.1090500206,-0.0260629505,-6.3675084114,-1.4226855040,3.6368722916
        0.3291418552,       -0.0411770344,-0.1090500206,-0.0260629505,-6.3675084114,-1.4226855040,3.6368722916
        0.3318419456,       -0.0411770344,-0.1090500206,-0.0260629505,-5.9250035286,-1.7278612852,3.7131662369
        0.3345389366,       -0.0411770344,-0.1090500206,-0.0260629505,-5.9250035286,-1.7278612852,3.7131662369
        0.3372378349,       -0.0402004719,-0.1158859581,-0.0206918567,-5.6198277473,-2.2161426544,3.4995431900
        0.3398489952,       -0.0402004719,-0.1158859581,-0.0206918567,-5.6198277473,-2.2161426544,3.4995431900
        0.3424110413,       -0.0402004719,-0.1158859581,-0.0206918567,-5.2383580208,-2.2466602325,3.8504953384
        0.3449759483,       -0.0402004719,-0.1158859581,-0.0206918567,-5.2383580208,-2.2466602325,3.8504953384
        0.3475449085,       -0.0402004719,-0.1163742393,-0.0319223255,-4.9026646614,-1.9872606993,3.8047189713
        0.3501548767,       -0.0402004719,-0.1163742393,-0.0319223255,-4.9026646614,-1.9872606993,3.8047189713
        0.3527228832,       -0.0402004719,-0.1163742393,-0.0319223255,-5.3451695442,-1.8041552305,3.4690256119
        0.3552908897,       -0.0402004719,-0.1163742393,-0.0319223255,-5.3451695442,-1.8041552305,3.4690256119
        0.3579189777,       -0.0314114094,-0.1173508018,-0.0353402942,-5.3451695442,-1.9414843321,3.3622140884
        0.3605070114,       -0.0314114094,-0.1173508018,-0.0353402942,-5.5282750130,-1.9414843321,3.3622140884
        0.3630728722,       -0.0314114094,-0.1173508018,-0.0353402942,-5.5282750130,1.9647656679,3.9878244400
        0.3656389713,       -0.0314114094,-0.1173508018,-0.0353402942,-5.8181920052,-1.7126024961,3.9878244400
        0.3683869839,       -0.0382473469,-0.1061203331,-0.0299692005,-5.8181920052,-5.6188526154,4.1861886978
        0.3710830212,       -0.0382473469,-0.1061203331,-0.0299692005,-4.9942173958,-2.0635547638,4.1861886978
        0.3738808632,       -0.0382473469,-0.1061203331,-0.0299692005,-4.9942173958,-2.0635547638,4.0030832291
        0.3765828609,       -0.0382473469,-0.1061203331,-0.0304574817,-4.6127476692,-1.9414843321,4.0030832291
        0.3792948723,       -0.0397121906,-0.1110031456,-0.0304574817,-4.6127476692,-1.9414843321,4.0946359634
        0.3819940090,       -0.0397121906,-0.1110031456,-0.0304574817,-5.1010289192,-1.8957079649,4.0946359634
        0.3846900463,       -0.0397121906,-0.1110031456,-0.0304574817,-5.1010289192,-1.8957079649,3.6521310806
        0.3873858452,       -0.0372707844,-0.1193039268,-0.0206918567,-4.8416295052,-1.9567431211,3.6521310806
        0.3900878429,       -0.0372707844,-0.1193039268,-0.0206918567,-4.8416295052,-1.9567431211,3.9267892838
        0.3927860260,       -0.0372707844,-0.1193039268,-0.0206918567,-4.9179234505,-2.0482959747,3.9267892838
        0.3954808712,       -0.0372707844,-0.1193039268,-0.0206918567,-4.9179234505,-2.0482959747,4.1709299088
        0.3981649876,       -0.0323879719,-0.1153976768,-0.0319223255,-4.2923130989,-1.8804491758,4.1709299088
        0.4007308483,       -0.0323879719,-0.1153976768,-0.0319223255,-4.2923130989,-1.8804491758,4.0488595963
        0.4032979012,       -0.0323879719,-0.1153976768,-0.0319223255,-4.6280064583,-1.9872606993,4.0488595963
        0.4058609009,       -0.0323879719,-0.1153976768,-0.0319223255,-4.6280064583,-1.9872606993,4.0488595963
        0.4085199833,       -0.0358059406,-0.1158859581,-0.0221567005,-5.0094761848,-1.8957079649,4.2472238541
        0.4112148285,       -0.0358059406,-0.1158859581,-0.0221567005,-5.0094761848,-1.8957079649,4.2472238541
        0.4139130116,       -0.0358059406,-0.1158859581,-0.0221567005,-4.7500767708,-1.9720019102,4.2472238541
        0.4166049957,       -0.0358059406,-0.1158859581,-0.0221567005,-4.7500767708,-1.9720019102,4.2472238541
        0.4193189144,       -0.0299465656,-0.1212570518,-0.0245981067,-4.5517125130,-1.8804491758,3.9420480728
        0.4220180511,       -0.0299465656,-0.1212570518,-0.0245981067,-4.5517125130,-1.8804491758,3.9420480728
        0.4249799252,       -0.0299465656,-0.1212570518,-0.0245981067,-3.9413609505,-1.9872606993,4.0946359634
        0.4280929565,       -0.0289700031,-0.1134445518,-0.0114145130,-3.9413609505,-1.9872606993,4.1861886978
        0.4307990074,       -0.0289700031,-0.1134445518,-0.0114145130,-4.1397252083,-2.0177783966,4.1861886978
        0.4334938526,       -0.0289700031,-0.1134445518,-0.0114145130,-4.1397252083,-2.0177783966,4.3387765884
        0.4361848831,       -0.0289700031,-0.1134445518,-0.0114145130,-4.3838658333,-2.0482959747,4.3387765884
        0.4388959408,       -0.0338528156,-0.1232101768,-0.0226449817,-4.3838658333,-2.0482959747,4.4150705338
        0.4416999817,       -0.0338528156,-0.1232101768,-0.0226449817,-4.8111119270,-2.0940723419,4.4150705338
        0.4443969727,       -0.0338528156,-0.1232101768,-0.0226449817,-4.8111119270,-2.0940723419,4.2167062759
        0.4470989704,       -0.0338528156,-0.1232101768,-0.0216684192,-5.2993931770,-1.8651903868,4.2167062759
        0.4497039318,       -0.0406887531,-0.1041672081,-0.0216684192,-5.2993931770,-1.8651903868,4.1251535416
        0.4522628784,       -0.0406887531,-0.1041672081,-0.0216684192,-5.3909459114,-2.0788135529,4.1251535416
        0.4548308849,       -0.0406887531,-0.1041672081,-0.0216684192,-5.3909459114,-2.0788135529,4.1251535416
        0.4573988914,       -0.0406887531,-0.1041672081,-0.0358285755,-5.3909459114,-2.0788135529,4.0641183853
        0.4600138664,       -0.0436184406,-0.1095383018,-0.0358285755,-5.3909459114,-2.0788135529,4.0641183853
        0.4625849724,       -0.0436184406,-0.1095383018,-0.0358285755,-5.3909459114,-1.9872606993,3.9725656509
        0.4651508331,       -0.0436184406,-0.1095383018,-0.0358285755,-5.3909459114,-1.9872606993,3.9725656509
        0.4677209854,       -0.0436184406,-0.1080734581,-0.0255746692,-5.7571568489,-1.9262255430,3.7436838150
        0.4703409672,       -0.0406887531,-0.1080734581,-0.0255746692,-5.7571568489,-1.9262255430,3.7436838150
        0.4729099274,       -0.0406887531,-0.1080734581,-0.0255746692,-6.0623326302,-1.7583788633,3.6368722916
        0.4754788876,       -0.0406887531,-0.1080734581,-0.0255746692,-6.0623326302,-1.7583788633,3.6368722916
        0.4781990051,       -0.0406887531,-0.1027023643,-0.0265512317,-6.0775914192,-1.6973437071,3.8352365494
        0.4807660580,       -0.0318996906,-0.1027023643,-0.0265512317,-6.0775914192,-1.6973437071,3.8352365494
        0.4833350182,       -0.0318996906,-0.1027023643,-0.0265512317,-6.2454380989,-1.4074267149,3.4690256119
        0.4859039783,       -0.0318996906,-0.1027023643,-0.0265512317,-6.2454380989,-1.4074267149,3.4690256119
        0.4886100292,       -0.0402004719,-0.1051437706,-0.0226449817,-6.5963902473,-1.1327685118,3.1638498306
        0.4913098812,       -0.0402004719,-0.1051437706,-0.0226449817,-6.5963902473,-1.1327685118,3.1638498306
        0.4940068722,       -0.0402004719,-0.1051437706,-0.0226449817,-6.4438023567,-1.4837206602,2.9654855728
        0.4967088699,       -0.0402004719,-0.1051437706,-0.0226449817,-6.4438023567,-1.4837206602,2.9654855728
        0.4993329048,       -0.0372707844,-0.1100265831,-0.0236215442,-6.4438023567,-1.3769091368,3.0875558853
        0.5019040108,       -0.0372707844,-0.1100265831,-0.0236215442,-6.5506138802,-1.3769091368,3.0875558853
        0.5045878887,       -0.0372707844,-0.1100265831,-0.0236215442,-6.5506138802,-1.3769091368,3.2554025650
        0.5071589947,       -0.0372707844,-0.1100265831,-0.0236215442,-6.0165562630,-1.3463915586,3.2554025650
        0.5098810196,       -0.0304348469,-0.1134445518,-0.0265512317,-6.0165562630,-1.3463915586,3.1638498306
        0.5125808716,       -0.0304348469,-0.1134445518,-0.0265512317,-5.9860386848,-1.6363085508,3.1638498306
        0.5152759552,       -0.0304348469,-0.1134445518,-0.0265512317,-5.9860386848,-5.5425586700,3.1333322525
        0.5180208683,       -0.0304348469,-0.1134445518,-0.0245981067,-5.8334507942,-1.8346728086,3.1333322525
        0.5207219124,       -0.0289700031,-0.1105148643,-0.0245981067,-5.8334507942,2.0715770721,2.8891916275
        0.5234210491,       -0.0289700031,-0.1105148643,-0.0245981067,-6.0775914192,-1.6668261290,2.8891916275
        0.5261209011,       -0.0289700031,-0.1105148643,-0.0245981067,-6.0775914192,-1.6668261290,2.5840158463
        0.5288619995,       -0.0279934406,-0.0968429893,-0.0270395130,-5.6503453255,-1.8041552305,2.5840158463
        0.5315568447,       -0.0279934406,-0.0968429893,-0.0270395130,-5.6503453255,-1.8041552305,2.6297922134
        0.5342500210,       -0.0279934406,-0.0968429893,-0.0270395130,-4.6737828255,-1.8499315977,2.6297922134
        0.5369460583,       -0.0279934406,-0.0968429893,-0.0270395130,-4.6737828255,-1.8499315977,2.7366037369
        0.5396170616,       -0.0323879719,-0.1110031456,-0.0245981067,-4.8874058723,-1.6515673399,2.7366037369
        0.5421848297,       -0.0323879719,-0.1110031456,-0.0245981067,-4.8874058723,-1.6515673399,2.6908273697
        0.5449168682,       -0.0323879719,-0.1110031456,-0.0245981067,-4.9179234505,-1.6363085508,2.6908273697
        0.5474848747,       -0.0323879719,-0.1110031456,-0.0245981067,-4.9179234505,-1.6363085508,2.5992746353
        0.5505168438,       -0.0323879719,-0.1110031456,-0.0294809192,-4.9789586067,-1.5600146055,2.5992746353
        0.5532159805,       -0.0323879719,-0.1110031456,-0.0294809192,-4.9789586067,-1.5600146055,2.4161691666
        0.5559129715,       -0.0323879719,-0.1110031456,-0.0294809192,-5.0552525520,-1.6973437071,2.4161691666
        0.5586569309,       -0.0323879719,-0.1139328331,-0.0285043567,-5.0552525520,-1.6973437071,2.6297922134
        0.5613548756,       -0.0309231281,-0.1139328331,-0.0285043567,-5.5740513802,-1.7888964415,2.6297922134
        0.5640559196,       -0.0309231281,-0.1139328331,-0.0285043567,-5.5740513802,-1.7888964415,2.7823801041
        0.5667560101,       -0.0309231281,-0.1139328331,-0.0285043567,-5.8487095833,-1.8346728086,2.7823801041
        0.5695698261,       -0.0343410969,-0.1153976768,-0.0314340442,-5.8487095833,-1.8346728086,2.7213449478
        0.5722699165,       -0.0343410969,-0.1153976768,-0.0314340442,-6.1691441536,-1.4684618711,2.7213449478
        0.5749659538,       -0.0343410969,-0.1153976768,-0.0314340442,-6.1691441536,-1.4684618711,2.6450510025
        0.5776629448,       -0.0343410969,-0.1153976768,-0.0314340442,-6.4895787239,-1.5752733946,2.6450510025
        0.5802538395,       -0.0382473469,-0.1114914268,-0.0280160755,-6.4895787239,-1.5752733946,2.6450510025
        0.5828230381,       -0.0382473469,-0.1114914268,-0.0280160755,-5.8639683723,-1.5447558165,2.2788400650
        0.5853888988,       -0.0382473469,-0.1114914268,-0.0280160755,-5.8639683723,-1.5447558165,2.2788400650
        0.5880219936,       -0.0382473469,-0.1114914268,-0.0280160755,-5.5435338020,-1.5905321836,2.2635812759
        0.5905950069,       -0.0402004719,-0.1061203331,-0.0285043567,-5.5435338020,-1.5905321836,2.2635812759
        0.5931589603,       -0.0402004719,-0.1061203331,-0.0285043567,-5.5587925911,-1.6820849180,2.6908273697
        0.5957269669,       -0.0402004719,-0.1061203331,-0.0285043567,-5.5587925911,-1.6820849180,2.6908273697
        0.5983879566,       -0.0402004719,-0.1061203331,-0.0255746692,-6.0318150520,-1.1022509336,2.5840158463
        0.6010379791,       -0.0406887531,-0.1075851768,-0.0255746692,-6.0318150520,-1.1022509336,2.5840158463
        0.6036019325,       -0.0406887531,-0.1075851768,-0.0255746692,-5.5587925911,-0.9038866758,2.5840158463
        0.6061730385,       -0.0406887531,-0.1075851768,-0.0255746692,-5.5587925911,-0.9038866758,2.5840158463
        0.6089048386,       -0.0406887531,-0.1075851768,-0.0348520130,-5.0094761848,-1.6973437071,2.9349679947
        0.6114709377,       -0.0343410969,-0.1100265831,-0.0348520130,-5.0094761848,-1.6973437071,2.9349679947
        0.6140420437,       -0.0343410969,-0.1100265831,-0.0348520130,-5.2078404427,-1.8651903868,3.0875558853
        0.6166059971,       -0.0343410969,-0.1100265831,-0.0348520130,-5.2078404427,-1.8651903868,3.0875558853
        0.6193919182,       -0.0343410969,-0.1197922081,-0.0241098255,-5.3604283333,-1.8346728086,3.1028146744
        0.6220560074,       -0.0353176594,-0.1197922081,-0.0241098255,-5.3604283333,-1.8346728086,3.1028146744
        0.6252110004,       -0.0353176594,-0.1197922081,-0.0241098255,-5.4824986458,-1.4226855040,3.2096261978
        0.6279249191,       -0.0353176594,-0.1197922081,-0.0241098255,-5.4824986458,-1.4226855040,3.2096261978
        0.6306250095,       -0.0348293781,-0.1197922081,-0.0294809192,-5.3604283333,-1.7583788633,3.2554025650
        0.6334300041,       -0.0348293781,-0.1197922081,-0.0294809192,-5.3604283333,-1.7583788633,3.2554025650
        0.6361329556,       -0.0348293781,-0.1197922081,-0.0294809192,-5.3909459114,-2.0635547638,3.2859201431
        0.6388800144,       -0.0348293781,-0.1197922081,-0.0245981067,-5.3909459114,-2.0635547638,3.2859201431
        0.6415779591,       -0.0333645344,-0.1153976768,-0.0245981067,-5.6198277473,-1.7431200743,3.5300607681
        0.6442849636,       -0.0333645344,-0.1153976768,-0.0245981067,-5.6198277473,-1.7431200743,3.5300607681
        0.6469819546,       -0.0333645344,-0.1153976768,-0.0245981067,-6.0012974739,-1.5447558165,3.4232492447
        0.6497030258,       -0.0333645344,-0.1114914268,-0.0265512317,-6.0012974739,-1.5447558165,3.4232492447
        0.6524009705,       -0.0353176594,-0.1114914268,-0.0265512317,-5.9097447395,-1.4226855040,3.5148019791
        0.6550989151,       -0.0353176594,-0.1114914268,-0.0265512317,-5.9097447395,-1.4226855040,3.5148019791
        0.6578199863,       -0.0353176594,-0.1114914268,-0.0265512317,-5.2688755989,-1.5142382383,3.4842844009
        0.6603870392,       -0.0406887531,-0.1163742393,-0.0285043567,-5.2688755989,-1.5142382383,3.4842844009
        0.6629519463,       -0.0406887531,-0.1163742393,-0.0285043567,-5.4519810677,-1.5294970274,3.8657541275
        0.6655249596,       -0.0406887531,-0.1163742393,-0.0285043567,-5.4519810677,-1.5294970274,3.8657541275
        0.6682188511,       -0.0406887531,-0.1163742393,-0.0285043567,-5.4519810677,-1.7888964415,3.7589426041
        0.6707959175,       -0.0387356281,-0.1041672081,-0.0236215442,-5.3146519661,-1.7888964415,3.7589426041
        0.6733658314,       -0.0387356281,-0.1041672081,-0.0236215442,-5.3146519661,-5.6951465607,3.5910959244
        0.6759378910,       -0.0387356281,-0.1041672081,-0.0236215442,-5.3146519661,-1.9109667540,3.5910959244
        0.6786289215,       -0.0387356281,-0.1041672081,-0.0236215442,-5.3146519661,1.9952832460,3.6673898697
        0.6813268661,       -0.0382473469,-0.1139328331,-0.0343637317,-5.6045689583,-1.7431200743,3.6673898697
        0.6840200424,       -0.0382473469,-0.1139328331,-0.0343637317,-5.6045689583,-1.7431200743,3.5148019791
        0.6867249012,       -0.0382473469,-0.1139328331,-0.0343637317,-6.2149205208,-1.8041552305,3.5148019791
        0.6893990040,       -0.0382473469,-0.1139328331,-0.0236215442,-6.2149205208,-1.8041552305,3.5453195572
        0.6919660568,       -0.0309231281,-0.1110031456,-0.0236215442,-6.5811314583,-1.3616503477,3.5453195572
        0.6945359707,       -0.0309231281,-0.1110031456,-0.0236215442,-6.5811314583,-1.3616503477,3.5453195572
        0.6972110271,       -0.0309231281,-0.1110031456,-0.0236215442,-6.5963902473,-1.4074267149,3.6826486588
        0.6999218464,       -0.0309231281,-0.1085617393,-0.0275277942,-6.5963902473,-1.4074267149,3.6826486588
        0.7026188374,       -0.0289700031,-0.1085617393,-0.0275277942,-6.5811314583,-1.4684618711,3.3469552994
        0.7053179741,       -0.0289700031,-0.1085617393,-0.0275277942,-6.5811314583,-1.4684618711,3.3469552994
        0.7080638409,       -0.0289700031,-0.1085617393,-0.0275277942,-6.6879429817,-1.3769091368,3.4079904556
        0.7107648849,       -0.0353176594,-0.1149093956,-0.0255746692,-6.6879429817,-1.3769091368,3.4079904556
        0.7134678364,       -0.0353176594,-0.1149093956,-0.0255746692,-6.3217320442,-0.9954394102,3.6521310806
        0.7161669731,       -0.0353176594,-0.1149093956,-0.0255746692,-6.3217320442,-0.9954394102,3.6521310806
        0.7188818455,       -0.0353176594,-0.1149093956,-0.0255746692,-6.0470738411,-1.4532030821,3.6979074478
        0.7215888500,       -0.0318996906,-0.0992843956,-0.0250863880,-6.0470738411,-1.4532030821,3.6979074478
        0.7242879868,       -0.0318996906,-0.0992843956,-0.0250863880,-5.9250035286,-1.5447558165,3.3927316666
        0.7269868851,       -0.0318996906,-0.0992843956,-0.0250863880,-5.9250035286,-1.5447558165,3.3927316666
        0.7297048569,       -0.0318996906,-0.0992843956,-0.0275277942,-5.6656041145,-1.4684618711,3.1180734634
        0.7324080467,       -0.0411770344,-0.1075851768,-0.0275277942,-5.6656041145,-1.4684618711,-0.7881765366
        0.7352080345,       -0.0411770344,-0.1075851768,-0.0275277942,-5.5282750130,-1.0412157774,3.0570383072
        0.7382919788,       -0.0411770344,-0.1075851768,-0.0275277942,-5.5282750130,-1.0412157774,2.8739328384
        0.7408628464,       -0.0328762531,-0.1110031456,-0.0265512317,-5.0857701302,-1.1480273008,2.8739328384
        0.7434349060,       -0.0328762531,-0.1110031456,-0.0265512317,-5.0857701302,-1.1480273008,2.8739328384
        0.7459979057,       -0.0328762531,-0.1110031456,-0.0265512317,-5.3604283333,-1.3616503477,3.0265207291
        0.7486128807,       -0.0328762531,-0.1110031456,-0.0265512317,-5.3604283333,-1.3616503477,3.0265207291
        0.7513098717,       -0.0333645344,-0.1153976768,-0.0294809192,-5.6350865364,-1.2395800352,3.1333322525
        0.7540090084,       -0.0333645344,-0.1153976768,-0.0294809192,-5.6350865364,-1.2395800352,3.1333322525
        0.7567100525,       -0.0333645344,-0.1153976768,-0.0294809192,-5.6961216927,-1.3006151915,3.1638498306
        0.7594139576,       -0.0333645344,-0.1153976768,-0.0294809192,-5.6961216927,-1.3006151915,3.1638498306
        0.7622230053,       -0.0421535969,-0.1149093956,-0.0299692005,-5.8487095833,-1.3463915586,3.1943674088
        0.7649290562,       -0.0421535969,-0.1149093956,-0.0299692005,-5.8487095833,-1.3463915586,3.1943674088
        0.7676298618,       -0.0421535969,-0.1149093956,-0.0299692005,-5.8181920052,-1.2853564024,3.1943674088
        0.7702250481,       -0.0421535969,-0.1149093956,-0.0309457630,-5.8181920052,-1.2853564024,3.1943674088
        0.7727930546,       -0.0362942219,-0.1110031456,-0.0309457630,-6.5506138802,-0.8275927305,3.0417795181
        0.7753589153,       -0.0362942219,-0.1110031456,-0.0309457630,-6.5506138802,-0.8275927305,3.0417795181
        0.7779819965,       -0.0362942219,-0.1110031456,-0.0309457630,-6.6421666145,-0.6597460508,3.1028146744
        0.7805469036,       -0.0362942219,-0.1110031456,-0.0343637317,-6.6421666145,-0.6597460508,3.1028146744
        0.7831108570,       -0.0367825031,-0.1158859581,-0.0343637317,-6.5200963020,-0.5071581602,3.1333322525
        0.7856879234,       -0.0367825031,-0.1158859581,-0.0343637317,-6.5200963020,-0.5071581602,3.1333322525
        0.7883958817,       -0.0367825031,-0.1158859581,-0.0343637317,-6.4438023567,-1.1938036680,3.4842844009
        0.7909669876,       -0.0367825031,-0.1119797081,-0.0333871692,-6.4438023567,-1.1938036680,3.4842844009
        0.7935309410,       -0.0397121906,-0.1119797081,-0.0333871692,-6.7489781380,-0.9344042540,3.4079904556
        0.7961008549,       -0.0397121906,-0.1119797081,-0.0333871692,-6.7489781380,-0.9344042540,3.4079904556
        0.7991628647,       -0.0397121906,-0.1119797081,-0.0333871692,-6.8252720833,-0.7360399961,3.1791086197
        0.8029139042,       -0.0318996906,-0.1085617393,-0.0314340442,-6.8252720833,-0.7360399961,3.4995431900
        0.8064348698,       -0.0318996906,-0.1085617393,-0.0314340442,-6.3217320442,-1.0106981993,3.4995431900
        0.8095300198,       -0.0318996906,-0.1085617393,-0.0314340442,-6.3217320442,-0.9038866758,3.4385080338
        0.8122308254,       -0.0333645344,-0.1090500206,-0.0397348255,-6.0775914192,-0.9038866758,3.4385080338
        0.8149318695,       -0.0333645344,-0.1090500206,-0.0397348255,-6.0775914192,-0.9344042540,3.1180734634
        0.8176310062,       -0.0333645344,-0.1090500206,-0.0397348255,-5.7724156380,-0.9344042540,3.1180734634
        0.8203380108,       -0.0333645344,-0.1090500206,-0.0397348255,-5.7724156380,-1.2243212461,3.3774728775
        0.8230419159,       -0.0187160969,-0.1007492393,-0.0553598255,-5.2536168098,-1.2243212461,3.3774728775
        0.8257448673,       -0.0187160969,-0.1007492393,-0.0553598255,-5.2536168098,-1.2243212461,3.3164377213
        0.8285648823,       -0.0187160969,-0.1007492393,-0.0553598255,-5.3299107552,-0.9496630430,3.3164377213
        0.8312649727,       -0.0187160969,-0.0792648643,-0.0724496692,-5.3299107552,-0.8428515196,3.3774728775
        0.8339669704,       -0.0353176594,-0.0792648643,-0.0724496692,-4.9942173958,-0.8428515196,3.3774728775
        0.8366699219,       -0.0353176594,-0.0792648643,-0.0724496692,-4.9942173958,-0.3240526915,3.3164377213
        0.8393800259,       -0.0353176594,-0.0792648643,-0.0724496692,-4.0176548958,-0.3240526915,3.3164377213
        0.8420748711,       -0.0465481281,-0.0694992393,-0.0607309192,-4.0176548958,-0.3240526915,2.5687570572
        0.8447740078,       -0.0465481281,-0.0694992393,-0.0607309192,-3.7735142708,-0.3087939024,2.5687570572
        0.8474709988,       -0.0465481281,-0.0694992393,-0.0607309192,-3.7735142708,-0.3087939024,2.5229806900
        0.8501849174,       -0.0465481281,-0.0694992393,-0.0607309192,-3.0258336067,-0.5376757383,2.5229806900
        0.8528859615,       -0.0572903156,-0.0973312706,-0.0465707630,-3.0258336067,-0.6902636290,2.4772043228
        0.8557720184,       -0.0572903156,-0.0973312706,-0.0465707630,-2.6443638802,-0.6902636290,2.4772043228
        0.8585059643,       -0.0572903156,-0.0973312706,-0.0465707630,-2.6443638802,-0.9801806211,2.5382394791
        0.8613460064,       -0.0572903156,-0.1017258018,-0.0285043567,-2.5528111458,-0.9801806211,2.5382394791
        0.8640539646,       -0.0406887531,-0.1017258018,-0.0285043567,-2.5528111458,-0.5224169493,2.6297922134
        0.8667559624,       -0.0406887531,-0.1017258018,-0.0285043567,-3.4073033333,-0.5224169493,2.6297922134
        0.8694610596,       -0.0406887531,-0.1017258018,-0.0285043567,-3.4073033333,-0.1256884336,2.3551340103
        0.8721599579,       -0.0279934406,-0.1002609581,-0.0167856067,-3.1326451302,-0.1256884336,2.3551340103
        0.8748610020,       -0.0279934406,-0.1002609581,-0.0167856067,-3.1326451302,-0.2782763243,2.0804758072
        0.8775579929,       -0.0279934406,-0.1002609581,-0.0167856067,-2.4917759895,-0.2782763243,2.0804758072
        0.8802678585,       -0.0279934406,-0.1002609581,-0.0167856067,-2.4917759895,-0.3850878477,2.3703927994
        0.8829669952,       -0.0050442219,-0.1080734581,-0.0221567005,-1.3168492317,-0.3850878477,2.3703927994
        0.8856630325,       -0.0050442219,-0.1080734581,-0.0221567005,-1.3168492317,-0.5987108946,2.6450510025
        0.8883578777,       -0.0050442219,-0.1080734581,-0.0221567005,-0.4470982552,-0.5987108946,2.6450510025
        0.8909249306,       -0.0050442219,-0.1080734581,-0.0221567005,-0.4470982552,-0.5987108946,2.8128976822
        0.8936059475,       -0.0045559406,-0.0748703331,-0.0289926380,-0.4013218880,-0.4766405821,2.8128976822
        0.8961670399,       -0.0045559406,-0.0748703331,-0.0289926380,-0.4013218880,-0.4766405821,2.9502267838
        0.8987400532,       -0.0045559406,-0.0748703331,-0.0289926380,-0.9964146614,-0.6292284727,2.9502267838
        0.9013140202,       -0.0045559406,-0.0748703331,-0.0626840442,-0.9964146614,-0.6292284727,2.9502267838
        0.9038779736,       -0.0338528156,-0.0953781456,-0.0626840442,-1.7898716927,-0.8123339415,2.9960031509
        0.9064450264,       -0.0338528156,-0.0953781456,-0.0626840442,-1.7898716927,-0.8123339415,2.9960031509
        0.9091608524,       -0.0338528156,-0.0953781456,-0.0626840442,-3.2852330208,-0.3698290586,3.2859201431
        0.9117259979,       -0.0338528156,-0.0953781456,-0.0397348255,-3.2852330208,-0.3698290586,3.2859201431
        0.9142980576,       -0.0318996906,-0.0968429893,-0.0397348255,-3.7124791145,-0.0951708555,3.4232492447
        0.9168639183,       -0.0318996906,-0.0968429893,-0.0397348255,-3.7124791145,-0.0951708555,3.4232492447
        0.9195649624,       -0.0318996906,-0.0968429893,-0.0397348255,-3.3615269661,-0.0188769102,3.4842844009
        0.9221279621,       -0.0318996906,-0.1085617393,-0.0402231067,-3.3615269661,-0.0188769102,3.4842844009
        0.9246869087,       -0.0450832844,-0.1085617393,-0.0402231067,-2.9647984505,0.4388867617,3.4232492447
        0.9272470474,       -0.0450832844,-0.1085617393,-0.0402231067,-2.9647984505,0.4388867617,3.4232492447
        0.9300358295,       -0.0450832844,-0.1085617393,-0.0402231067,-2.7053990364,0.0268994570,3.8962717056
        0.9325969219,       -0.0616848469,-0.1617843956,-0.0231332630,-2.7053990364,0.0268994570,3.8962717056
        0.9351630211,       -0.0616848469,-0.1617843956,-0.0231332630,-3.2394566536,-0.9038866758,4.1098947525
        0.9377238750,       -0.0616848469,-0.1617843956,-0.0231332630,-3.2394566536,-0.9038866758,4.1098947525
        0.9403450489,       -0.0616848469,-0.1617843956,-0.0231332630,-3.2394566536,-0.9801806211,4.1098947525
        0.9429118633,       -0.0802395344,-0.1979172081,-0.0050668567,-3.6056675911,-0.9801806211,4.1098947525
        0.9454739094,       -0.0802395344,-0.1979172081,-0.0050668567,-3.6056675911,-0.9801806211,4.4303293228
        0.9480729103,       -0.0802395344,-0.1979172081,-0.0050668567,-4.8416295052,-0.0341356993,4.4303293228
        0.9506409168,       -0.0802395344,-0.1979172081,-0.0050668567,-4.8416295052,-0.0341356993,5.6815500259
        0.9532039165,       -0.0489895344,-0.1446945518,-0.0167856067,-7.4203648567,0.8813916445,5.6815500259
        0.9558789730,       -0.0489895344,-0.1446945518,-0.0167856067,-7.4203648567,0.8813916445,5.6815500259
        0.9585359097,       -0.0489895344,-0.1446945518,-0.0167856067,-8.5647735596,1.5527783632,6.9022531509
        0.9610989094,       -0.0489895344,-0.1446945518,-0.0167856067,-8.5647735596,1.5527783632,6.9022531509
        0.9636700153,       -0.0206692219,-0.1202804893,-0.0070199817,-8.4121856689,1.7664014101,7.6651926041
        0.9662280083,       -0.0206692219,-0.1202804893,-0.0070199817,-8.4121856689,1.7664014101,7.6651926041
        0.9688458443,       -0.0206692219,-0.1202804893,-0.0070199817,-7.4814000130,1.7358838320,8.0466623306
        0.9714088440,       -0.0206692219,-0.1202804893,-0.0070199817,-7.4814000130,1.7358838320,8.0466623306
        0.9741129875,       -0.0226223469,-0.1100265831,-0.0158090442,-6.1233677864,1.6138135195,7.8788156509
        0.9766900539,       -0.0226223469,-0.1100265831,-0.0158090442,-6.1233677864,1.6138135195,7.8788156509
        0.9794859886,       -0.0226223469,-0.1100265831,-0.0158090442,-4.3533482552,1.7206250429,8.7027902603
        0.9820489883,       -0.0226223469,-0.1100265831,-0.0206918567,-4.3533482552,1.7206250429,8.7027902603
        0.9846160412,       -0.0182278156,-0.1168625206,-0.0206918567,-3.3462681770,2.2241649628,9.6640939713
        0.9871759415,       -0.0182278156,-0.1168625206,-0.0206918567,-3.3462681770,2.2241649628,9.6640939713
        0.9897909164,       -0.0182278156,-0.1168625206,-0.0206918567,-2.6138463020,2.3309764862,10.6101388931
        0.9923510551,       -0.0182278156,-0.1168625206,-0.0148324817,-2.6138463020,2.3309764862,10.6101388931
        0.9949140549,       -0.0318996906,-0.1256515831,-0.0148324817,1.2924036980,2.1478710175,11.3425607681
        0.9974799156,       -0.0318996906,-0.1256515831,-0.0148324817,-2.2934117317,2.1478710175,11.3425607681
        1.0001358986,       -0.0318996906,-0.1256515831,-0.0148324817,-2.2934117317,1.6138135195,11.5256662369
        1.0027019978,       -0.0318996906,-0.1652023643,-0.0206918567,-3.2241978645,1.6138135195,11.5256662369
        1.0052618980,       -0.0528957844,-0.1652023643,-0.0206918567,-3.2241978645,1.6138135195,12.1665353775
        1.0078098774,       -0.0528957844,-0.1652023643,-0.0206918567,-4.6127476692,1.3849316835,12.1665353775
        1.0103769302,       -0.0528957844,-0.1652023643,-0.0206918567,-4.6127476692,1.3849316835,12.1665353775
        1.0129408836,       -0.0528957844,-0.1612961143,-0.0050668567,-4.9789586067,2.2394237518,12.5785226822
        1.0155029297,       -0.0499660969,-0.1612961143,-0.0050668567,-4.9789586067,2.2394237518,12.5785226822
        1.0182080269,       -0.0499660969,-0.1612961143,-0.0050668567,-6.3217320442,3.3075389862,13.3719797134
        1.0207729340,       -0.0499660969,-0.1612961143,-0.0050668567,-6.3217320442,3.3075389862,13.3719797134
        1.0233409405,       -0.0489895344,-0.1061203331,-0.0026254505,-7.0694127083,3.8110790253,14.2722482681
        1.0259058475,       -0.0489895344,-0.1061203331,-0.0026254505,-7.0694127083,3.8110790253,14.2722482681
        1.0286219120,       -0.0489895344,-0.1061203331,-0.0026254505,-7.1762242317,4.3909130096,15.0046701431
        1.0311968327,       -0.0489895344,-0.1061203331,-0.0026254505,-7.1762242317,4.3909130096,15.0046701431
        1.0337648392,       -0.0631496906,-0.1027023643,-0.0094613880,-6.8252720833,4.0552196503,15.3403635025
        1.0363290310,       -0.0631496906,-0.1027023643,-0.0094613880,-6.8252720833,4.0552196503,15.3403635025
        1.0390808582,       -0.0631496906,-0.1027023643,-0.0094613880,-5.6808629036,4.0552196503,15.3098459244
        1.0417459011,       -0.0631496906,-0.1027023643,-0.0094613880,-5.6808629036,4.0552196503,15.3098459244
        1.0444169044,       -0.0553371906,-0.1217453331,-0.0167856067,-4.4601597786,3.8873729706,15.8896799088
        1.0470809937,       -0.0553371906,-0.1217453331,-0.0167856067,-4.4601597786,3.8873729706,15.8896799088
        1.0497870445,       -0.0553371906,-0.1217453331,-0.0167856067,-4.0023961067,4.2841014862,16.7746887207
        1.0524909496,       -0.0553371906,-0.1217453331,-0.0167856067,-4.0023961067,4.2841014862,16.7746887207
        1.0551919937,       -0.0528957844,-0.1373703331,-0.0099496692,-4.6737828255,4.4061717987,17.7512512207
        1.0579059124,       -0.0528957844,-0.1373703331,-0.0099496692,-4.6737828255,4.4061717987,17.7512512207
        1.0606148243,       -0.0528957844,-0.1373703331,-0.0099496692,-6.4285435677,4.7571239471,19.0024719238
        1.0633230209,       -0.0528957844,-0.1520187706,-0.0177621692,-6.4285435677,4.7571239471,19.0024719238
        1.0660369396,       -0.0504543781,-0.1520187706,-0.0177621692,-6.8557896614,4.9860057831,21.0929260254
        1.0687499046,       -0.0504543781,-0.1520187706,-0.0177621692,-6.8557896614,4.9860057831,21.0929260254
        1.0714528561,       -0.0504543781,-0.1520187706,-0.0177621692,-7.4356236458,5.2759227753,22.9239807129
        1.0741639137,       -0.0514309406,-0.1652023643,-0.0245981067,-7.4356236458,5.2759227753,22.9239807129
        1.0768728256,       -0.0514309406,-0.1652023643,-0.0245981067,-7.7102818489,5.3979930878,25.2127990723
        1.0795848370,       -0.0514309406,-0.1652023643,-0.0245981067,-7.7102818489,5.3979930878,25.2127990723
        1.0823938847,       -0.0514309406,-0.1652023643,-0.0245981067,-8.1375274658,5.9473094940,27.5779113770
        1.0850958824,       -0.0426418781,-0.1720383018,-0.0177621692,-8.1375274658,5.9473094940,27.5779113770
        1.0878138542,       -0.0426418781,-0.1720383018,-0.0177621692,-8.7631378174,6.2219676971,30.3702697754
        1.0903799534,       -0.0426418781,-0.1720383018,-0.0177621692,-8.7631378174,6.2219676971,30.3702697754
        1.0929479599,       -0.0426418781,-0.1720383018,-0.0177621692,-8.8089141846,6.1456737518,33.1931457520
        1.0956020355,       -0.0528957844,-0.1759445518,-0.0299692005,-8.8089141846,6.1456737518,33.1931457520
        1.0981969833,       -0.0528957844,-0.1759445518,-0.0299692005,-8.8089141846,5.0775585175,36.5348205566
        1.1009058952,       -0.0528957844,-0.1759445518,-0.0299692005,-8.9462432861,5.0775585175,36.5348205566
        1.1036059856,       -0.0528957844,-0.3009445667,-0.0587777942,-12.8524932861,3.8568553925,40.1969299316
        1.1063029766,       -0.0572903156,-0.2418625206,-0.0587777942,-11.2655792236,3.8568553925,40.1969299316
        1.1090099812,       -0.0572903156,-0.2418625206,-0.0587777942,-11.2655792236,3.2922801971,42.5620422363
        1.1117088795,       -0.0572903156,-0.2418625206,-0.0587777942,-12.1658477783,3.2922801971,42.5620422363
        1.1145269871,       -0.0880520344,-0.2550461292,-0.0158090442,-12.1658477783,4.1925487518,44.2252502441
        1.1180939674,       -0.0880520344,-0.2550461292,-0.0158090442,-11.5707550049,4.1925487518,44.2252502441
        1.1206579208,       -0.0880520344,-0.2550461292,-0.0158090442,-14.8513946533,4.4977245331,47.5669250488
        1.1232278347,       -0.0880520344,-0.2550461292,-0.0158090442,-14.8513946533,4.4977245331,47.5669250488
        1.1257929802,       -0.0826809406,-0.1373703331,-0.0036020130,-16.7892608643,4.6808300018,49.9167785645
        1.1283700466,       -0.0826809406,-0.1373703331,-0.0036020130,-16.7892608643,4.6808300018,49.9167785645
        1.1309468746,       -0.0826809406,-0.1373703331,-0.0036020130,-16.7892608643,4.2230663300,51.4121398926
        1.1335158348,       -0.0826809406,-0.1373703331,-0.0309457630,-16.8502960205,4.2230663300,51.4121398926
        1.1360909939,       -0.1105129719,-0.0973312706,-0.0309457630,-16.8502960205,4.2230663300,53.5025939941
        1.1386909485,       -0.1105129719,-0.0973312706,-0.0309457630,-15.5380401611,4.1620311737,53.5025939941
        1.1412580013,       -0.1105129719,-0.0973312706,-0.0309457630,-15.5380401611,4.1620311737,54.9216613770
        1.1438300610,       -0.1105129719,-0.0973312706,-0.0436410755,-11.8759307861,4.1315135956,54.9216613770
        1.1463999748,       -0.1031887531,-0.0948898643,-0.0436410755,-11.8759307861,4.1315135956,54.9216613770
        1.1491270065,       -0.1031887531,-0.0948898643,-0.0436410755,-8.7021026611,4.9402294159,56.3559875488
        1.1516978741,       -0.1031887531,-0.0948898643,-0.0436410755,-8.7021026611,4.9402294159,56.3559875488
        1.1542618275,       -0.1031887531,-0.1017258018,-0.0631723255,-6.2912144661,4.7113475800,58.0039367676
        1.1568379402,       -0.0914700031,-0.1017258018,-0.0631723255,-6.2912144661,4.7113475800,58.0039367676
        1.1595649719,       -0.0914700031,-0.1017258018,-0.0631723255,-4.7805943489,4.1009960175,59.6976623535
        1.1621389389,       -0.0914700031,-0.1017258018,-0.0631723255,-4.7805943489,4.1009960175,59.6976623535
        1.1647109985,       -0.1324856281,-0.0826828331,-0.0685434192,-4.4754185677,3.8568553925,61.8796691895
        1.1672780514,       -0.1324856281,-0.0826828331,-0.0685434192,-4.4754185677,3.8568553925,61.8796691895
        1.1701169014,       -0.1324856281,-0.0826828331,-0.0685434192,-5.2993931770,3.5821971893,64.1532287598
        1.1728219986,       -0.1324856281,-0.0826828331,-0.0685434192,-5.2993931770,3.5821971893,64.1532287598
        1.1755218506,       -0.1827785969,-0.1075851768,-0.0665902942,-4.5211949348,2.9565868378,66.8998107910
        1.1782588959,       -0.1827785969,-0.1075851768,-0.0665902942,-4.5211949348,2.9565868378,66.8998107910
        1.1808269024,       -0.1827785969,-0.1075851768,-0.0665902942,-3.1173863411,2.4225292206,69.9363098145
        1.1833970547,       -0.1827785969,-0.1075851768,-0.0665902942,-3.1173863411,2.4225292206,69.9363098145
        1.1859738827,       -0.1944973469,-0.1119797081,-0.0563363880,-1.8661656380,1.8426953554,72.6523742676
        1.1885888577,       -0.1944973469,-0.1119797081,-0.0563363880,-1.8661656380,1.8426953554,72.6523742676
        1.1912908554,       -0.1944973469,-0.1119797081,-0.0563363880,-0.3555455208,0.7288037539,74.7580871582
        1.1939978600,       -0.1944973469,-0.1119797081,-0.0563363880,-0.3555455208,0.7288037539,74.7580871582
        1.1967010498,       -0.2018215656,-0.0890304893,-0.0333871692,2.3757777214,-0.1409472227,76.9095764160
        1.1994090080,       -0.2018215656,-0.0890304893,-0.0333871692,2.3757777214,-0.1409472227,76.9095764160
        1.2021079063,       -0.2018215656,-0.0890304893,-0.0333871692,7.1975550652,-0.1867235899,80.6479797363
        1.2048158646,       -0.2018215656,-0.0445968956,-0.0328988880,7.1975550652,-0.1867235899,80.6479797363
        1.2075250149,       -0.2267239094,-0.0445968956,-0.0328988880,12.1871795654,-1.3463915586,85.5765686035
        1.2102818489,       -0.2267239094,-0.0445968956,-0.0328988880,12.1871795654,-1.3463915586,85.5765686035
        1.2130980492,       -0.2267239094,-0.0445968956,-0.0328988880,17.0547332764,-4.1540088654,89.1929016113
        1.2158100605,       -0.3688137531,-0.1427414268,-0.0055551380,17.0547332764,-4.1540088654,89.1929016113
        1.2185268402,       -0.3688137531,-0.1427414268,-0.0055551380,21.5865936279,-4.8559131622,91.7563781738
        1.2212328911,       -0.3688137531,-0.1427414268,-0.0055551380,21.5865936279,-4.8559131622,91.7563781738
        1.2239480019,       -0.3688137531,-0.1427414268,-0.0055551380,25.8437957764,-4.1845264435,95.4642639160
        1.2266919613,       -0.4567043781,-0.1778976768,-0.0475473255,25.8437957764,-4.1845264435,95.4642639160
        1.2296409607,       -0.4567043781,-0.1778976768,-0.0475473255,29.2312469482,-4.3676319122,99.0653381348
        1.2322130203,       -0.4567043781,-0.1778976768,-0.0475473255,29.2312469482,-4.3676319122,99.0653381348
        1.2347929478,       -0.4567043781,-0.1778976768,0.0144643933,32.1151580811,-4.3981494904,101.8729553223
        1.2373650074,       -0.5231106281,-0.1525070518,0.0144643933,32.1151580811,-4.3981494904,101.8729553223
        1.2400889397,       -0.5231106281,-0.1525070518,0.0144643933,34.5870819092,-4.2303028107,104.2228088379
        1.2427999973,       -0.5231106281,-0.1525070518,0.0144643933,34.5870819092,-4.2303028107,104.2228088379
        1.2455079556,       -0.5030910969,-0.1974289268,0.0549917370,34.9532928467,-3.9556446075,106.0843811035
        1.2482519150,       -0.5030910969,-0.1974289268,0.0549917370,34.9532928467,-3.9556446075,106.0843811035
        1.2509598732,       -0.5030910969,-0.1974289268,0.0549917370,31.5353240967,-4.9016895294,106.7099914551
        1.2536690235,       -0.5030910969,-0.1974289268,0.0549917370,31.5353240967,-4.9016895294,106.7099914551
        1.2563769817,       -0.4288723469,-0.1144211143,0.1008901745,26.5762176514,-6.6106739044,107.3508605957
        1.2590408325,       -0.4288723469,-0.1144211143,0.1008901745,26.5762176514,-6.6106739044,107.3508605957
        1.2616150379,       -0.4288723469,-0.1144211143,0.1008901745,22.6699676514,-8.2281055450,108.7699279785
        1.2641909122,       -0.4288723469,-0.1144211143,0.1008901745,22.9446258545,-8.2281055450,108.7699279785
        1.2667598724,       -0.4430325031,0.0662429482,0.1345815808,22.9446258545,-12.1343555450,108.7699279785
        1.2693419456,       -0.4430325031,0.0662429482,0.1345815808,20.2743377686,-10.4253711700,108.7699279785
        1.2719209194,       -0.4430325031,0.0662429482,0.1345815808,20.2743377686,-10.4253711700,107.7475891113
        1.2744939327,       -0.4430325031,0.0662429482,0.1345815808,20.1064910889,-12.2106494904,107.7475891113
        1.2771790028,       -0.4674465656,0.1140945107,0.1106557995,20.1064910889,-12.2106494904,106.9388732910
        1.2799148560,       -0.4674465656,0.1140945107,0.1106557995,23.7533416748,-11.1577930450,106.9388732910
        1.2824828625,       -0.4674465656,0.1140945107,0.1106557995,23.7533416748,-11.1577930450,106.9388732910
        1.2850618362,       -0.4674465656,0.1140945107,0.0637807995,30.4977264404,-10.2270069122,107.7475891113
        1.2876360416,       -0.4054348469,0.1658523232,0.0637807995,30.4977264404,-10.2270069122,107.7475891113
        1.2904229164,       -0.4054348469,0.1658523232,0.0637807995,37.0132293701,-11.4477100372,108.3579406738
        1.2931349277,       -0.4054348469,0.1658523232,0.0637807995,37.0132293701,-11.4477100372,108.3579406738
        1.2958369255,       -0.4054348469,0.0130202919,0.1135854870,40.8126678467,-12.8667774200,105.9317932129
        1.2985608578,       -0.3780910969,0.0130202919,0.1135854870,40.8126678467,-12.8667774200,105.9317932129
        1.3012690544,       -0.3780910969,0.0130202919,0.1135854870,43.0099334717,-11.7071094513,100.4844055176
        1.3039720058,       -0.3780910969,0.0130202919,0.1135854870,43.0099334717,-11.7071094513,100.4844055176
        1.3066740036,       -0.3204739094,0.0174148232,0.0925893933,46.1379852295,-10.6847705841,96.1051330566
        1.3093919754,       -0.3204739094,0.0174148232,0.0925893933,46.1379852295,-10.6847705841,96.1051330566
        1.3120968342,       -0.3204739094,0.0174148232,0.0925893933,48.6099090576,-11.2951221466,93.2212219238
        1.3148038387,       -0.3204739094,0.0174148232,0.0925893933,48.6099090576,-11.2951221466,93.2212219238
        1.3175079823,       -0.2496731281,0.0657546669,0.0554800183,47.9690399170,-11.6460742950,90.2610168457
        1.3202319145,       -0.2496731281,0.0657546669,0.0554800183,47.9690399170,-11.6460742950,90.2610168457
        1.3229348660,       -0.2496731281,0.0657546669,0.0554800183,46.0922088623,-11.5545215607,86.9956359863
        1.3256409168,       -0.2496731281,0.0657546669,0.0398550183,46.0922088623,-11.5545215607,86.9956359863
        1.3283619881,       -0.2213528156,0.0374343544,0.0398550183,44.0627899170,-11.7071094513,83.3182678223
        1.3310680389,       -0.2213528156,0.0374343544,0.0398550183,44.0627899170,-11.7071094513,83.3182678223
        1.3337750435,       -0.2213528156,0.0374343544,0.0398550183,41.9570770264,-11.5697803497,79.2746887207
        1.3364889622,       -0.1935207844,0.0271804482,0.0208120495,41.9570770264,-11.5697803497,79.2746887207
        1.3392150402,       -0.1935207844,0.0271804482,0.0208120495,39.0731658936,-10.6084766388,75.1548156738
        1.3420369625,       -0.1935207844,0.0271804482,0.0208120495,39.0731658936,-10.6084766388,75.1548156738
        1.3448309898,       -0.1935207844,0.0271804482,0.0208120495,36.9521942139,-10.4864063263,70.9891662598
        1.3479468822,       -0.1490871906,0.0052077919,-0.0187387317,36.9521942139,-10.4864063263,67.2355041504
        1.3506679535,       -0.1490871906,0.0052077919,-0.0187387317,34.1445770264,-11.0814990997,67.2355041504
        1.3533768654,       -0.1490871906,0.0052077919,-0.0187387317,34.1445770264,-11.0814990997,63.1461486816
        1.3560948372,       -0.1490871906,-0.0167648643,-0.0514535755,30.1620330811,-11.4782276154,63.1461486816
        1.3588080406,       -0.1334621906,-0.0167648643,-0.0514535755,30.1620330811,-11.4782276154,59.1483459473
        1.3615109921,       -0.1334621906,-0.0167648643,-0.0514535755,25.6606903076,-11.4782276154,59.1483459473
        1.3642220497,       -0.1334621906,-0.0167648643,-0.0514535755,25.6606903076,-11.4782276154,55.4557189941
        1.3669240475,       -0.1163723469,-0.0504562706,-0.0661020130,20.0912322998,-11.3408985138,55.4557189941
        1.3696768284,       -0.1163723469,-0.0504562706,-0.0661020130,20.0912322998,-11.3408985138,52.0224914551
        1.3723850250,       -0.1163723469,-0.0504562706,-0.0661020130,13.8046112061,-11.3256397247,52.0224914551
        1.3750970364,       -0.1163723469,-0.0504562706,-0.0661020130,13.8046112061,-11.3256397247,47.9178771973
        1.3778219223,       -0.1144192219,-0.1197922081,-0.0953988880,6.6177210808,-10.4406299591,47.9178771973
        1.3803949356,       -0.1144192219,-0.1197922081,-0.0953988880,6.6177210808,-10.4406299591,47.9178771973
        1.3829698563,       -0.1144192219,-0.1197922081,-0.0953988880,-1.5304722786,-10.1201953888,44.2252502441
        1.3855509758,       -0.1144192219,-0.1197922081,-0.0953988880,-1.5304722786,-10.1201953888,44.2252502441
        1.3881368637,       -0.1139309406,-0.1300461143,-0.1076059192,-9.8922882080,-9.5861377716,39.9375305176
        1.3907120228,       -0.1139309406,-0.1300461143,-0.1076059192,-9.8922882080,-9.5861377716,39.9375305176
        1.3932878971,       -0.1139309406,-0.1300461143,-0.1076059192,-18.6813507080,-9.5403614044,35.4667053223
        1.3958630562,       -0.1139309406,-0.1300461143,-0.1076059192,-18.6813507080,-9.5403614044,35.4667053223
        1.3985939026,       -0.0777981281,-0.1129562706,-0.1071176380,-27.1957550049,-9.4335498810,30.6296691895
        1.4011669159,       -0.0777981281,-0.1129562706,-0.1071176380,-27.1957550049,-9.4335498810,30.6296691895
        1.4037380219,       -0.0777981281,-0.1129562706,-0.1071176380,-33.6502227783,-8.9605274200,25.3806457520
        1.4064309597,       -0.0777981281,-0.1129562706,-0.0773324817,-33.6502227783,-8.9605274200,25.3806457520
        1.4092109203,       -0.0680325031,-0.0782883018,-0.0773324817,-37.0376739502,-7.9687061310,20.8793029785
        1.4119219780,       -0.0680325031,-0.0782883018,-0.0773324817,-37.0376739502,-7.9687061310,20.8793029785
        1.4146318436,       -0.0680325031,-0.0782883018,-0.0773324817,-39.1128692627,-7.4193897247,16.1643371582
        1.4173419476,       -0.0162746906,-0.0997726768,-0.0875863880,-39.1128692627,-7.4193897247,16.1643371582
        1.4200978279,       -0.0162746906,-0.0997726768,-0.0875863880,-41.5084991455,-7.4804248810,10.2134103775
        1.4227979183,       -0.0162746906,-0.0997726768,-0.0875863880,-41.5084991455,-7.4804248810,10.2134103775
        1.4255020618,       -0.0162746906,-0.0997726768,-0.0875863880,-44.0872344971,-7.3430957794,4.0183420181
        1.4282419682,        0.0598971844,-0.1403000206,-0.0836801380,-44.0872344971,-7.3430957794,4.0183420181
        1.4308099747,        0.0598971844,-0.1403000206,-0.0836801380,-46.7422637939,-6.4733448029,-2.6497488022
        1.4333808422,        0.0598971844,-0.1403000206,-0.0836801380,-46.7422637939,-6.4733448029,-2.6497488022
        1.4359560013,        0.0598971844,-0.1403000206,-0.0836801380,-48.5733184814,-5.9850635529,-9.3636159897
        1.4385800362,        0.1306979656,-0.1261398643,-0.1051645130,-48.5733184814,-5.9850635529,-9.3636159897
        1.4412889481,        0.1306979656,-0.1261398643,-0.1051645130,-50.2517852783,-5.7714405060,-16.0164489746
        1.4439959526,        0.1306979656,-0.1261398643,-0.1051645130,-50.2517852783,-5.7714405060,-16.0164489746
        1.4467029572,        0.1306979656,-0.1261398643,-0.0880746692,-50.2517852783,-5.1458301544,-23.1728210449
        1.4494168758,        0.1873385906,-0.0948898643,-0.0880746692,-52.0675811768,-5.1458301544,-23.1728210449
        1.4521219730,        0.1873385906,-0.0948898643,-0.0880746692,-52.0675811768,-3.7877979279,-30.1308288574
        1.4548339844,        0.1873385906,-0.0948898643,-0.0880746692,-52.9678497314,-3.7877979279,-30.1308288574
        1.4575488567,        0.2268893719,-0.0987961143,-0.1017465442,-52.9678497314,-3.2232227325,-37.8212585449
        1.4602880478,        0.2268893719,-0.0987961143,-0.1017465442,-52.8152618408,-3.2232227325,-37.8212585449
        1.4629988670,        0.2268893719,-0.0987961143,-0.1017465442,-52.8305206299,-2.6128711700,-44.8250427246
        1.4658389091,        0.2268893719,-0.0987961143,-0.1017465442,-52.8305206299,-2.6128711700,-44.8250427246
        1.4688658714,        0.2522799969,-0.0778000206,-0.0792856067,-52.6016387939,-2.0330371857,-51.3405456543
        1.4716908932,        0.2522799969,-0.0778000206,-0.0792856067,-52.6016387939,-2.0330371857,-51.3405456543
        1.4744019508,        0.2522799969,-0.0778000206,-0.0792856067,-51.0147247314,-1.4684618711,-57.9323425293
        1.4771108627,        0.2522799969,0.0471999794,-0.0695199817,-51.0147247314,-1.4684618711,-57.9323425293
        1.4797220230,        0.2771823406,-0.0475265831,-0.0695199817,-48.8174591064,-1.3006151915,-64.4173278809
        1.4822969437,        0.2771823406,-0.0475265831,-0.0695199817,-48.8174591064,-1.3006151915,-64.4173278809
        1.4848730564,        0.2771823406,-0.0475265831,-0.0695199817,-48.8174591064,-0.8733690977,-70.1088562012
        1.4874498844,        0.2771823406,-0.0436203331,-0.0631723255,-47.4594268799,-0.8733690977,-70.1088562012
        1.4901518822,        0.2620456219,-0.0436203331,-0.0631723255,-47.4594268799,-0.8581103086,-75.0069274902
        1.4928669930,        0.2620456219,-0.0436203331,-0.0631723255,-46.8032989502,-0.8581103086,-75.0069274902
        1.4955730438,        0.2620456219,-0.0436203331,-0.0631723255,-46.8032989502,-0.9801806211,-79.8439636230
        1.4982759953,        0.2639987469,-0.0192062706,-0.0841684192,-46.7575225830,-0.9801806211,-79.8439636230
        1.5008530617,        0.2639987469,-0.0192062706,-0.0841684192,-46.7575225830,-0.9801806211,-84.7420349121
        1.5034258366,        0.2639987469,-0.0192062706,-0.0841684192,-46.4218292236,-0.3850878477,-84.7420349121
        1.5060069561,        0.2639987469,-0.0192062706,-0.0841684192,-46.4218292236,-0.3850878477,-88.6482849121
        1.5086379051,        0.2605807781,-0.0284836143,-0.0968637317,-46.1624298096,-0.3698290586,-88.6482849121
        1.5112168789,        0.2605807781,-0.0284836143,-0.0968637317,-46.1624298096,-0.3698290586,-92.5545349121
        1.5137979984,        0.2605807781,-0.0284836143,-0.0968637317,-46.1624298096,-0.0646532774,-92.2341003418
        1.5163719654,        0.2605807781,-0.0284836143,-0.0968637317,-46.1624298096,-0.0646532774,-92.2341003418
        1.5190088749,        0.2654635906,-0.0084640831,-0.1266488880,-47.5052032471,0.4846631289,-95.9267272949
        1.5215840340,        0.2654635906,-0.0084640831,-0.1266488880,-47.5052032471,0.4846631289,-95.9267272949
        1.5241599083,        0.2654635906,-0.0084640831,-0.1266488880,-48.9853057861,0.7440625429,-99.6498718262
        1.5267379284,        0.2654635906,-0.0084640831,-0.1266488880,-48.9853057861,0.7440625429,-99.6498718262
        1.5294020176,        0.2693698406,-0.0016281456,-0.1412973255,-50.7248077393,1.6595898867,-102.0607604980
        1.5319788456,        0.2693698406,-0.0016281456,-0.1412973255,-50.7248077393,1.6595898867,-102.0607604980
        1.5346589088,        0.2693698406,-0.0016281456,-0.1412973255,-52.6321563721,2.6971874237,-103.5408630371
        1.5372309685,        0.2693698406,-0.0016281456,-0.1412973255,-52.6321563721,2.6971874237,-103.5408630371
        1.5399289131,        0.2708346844,0.0359695107,-0.1325082630,-54.8751983643,4.5129833221,-105.6618347168
        1.5426318645,        0.2708346844,0.0359695107,-0.1325082630,-54.8751983643,4.5129833221,-105.6618347168
        1.5453410149,        0.2708346844,0.0359695107,-0.1325082630,-55.5618438721,6.2067089081,-106.6231384277
        1.5480899811,        0.2708346844,0.0613601357,-0.1227426380,-55.5618438721,6.2067089081,-106.6231384277
        1.5507988930,        0.2864596844,0.0613601357,-0.1227426380,-55.6991729736,7.1985301971,-107.2182312012
        1.5535049438,        0.2864596844,0.0613601357,-0.1227426380,-55.6991729736,7.1985301971,-107.2182312012
        1.5562100410,        0.2864596844,0.0613601357,-0.1227426380,-55.6839141846,8.9685497284,-107.5844421387
        1.5589349270,        0.2845065594,0.0930984169,-0.1383676380,-55.6839141846,8.9685497284,-107.5844421387
        1.5616550446,        0.2845065594,0.0930984169,-0.1383676380,-54.9209747314,11.1810741425,-107.4318542480
        1.5643639565,        0.2845065594,0.0930984169,-0.1383676380,-54.9209747314,11.1810741425,-107.4318542480
        1.5670690536,        0.2845065594,0.0930984169,-0.1383676380,-54.9362335205,13.0426464081,-106.6536560059
        1.5697939396,        0.2874362469,0.1272781044,-0.1461801380,-54.9362335205,13.0426464081,-106.6536560059
        1.5724990368,        0.2874362469,0.1272781044,-0.1461801380,-55.2108917236,14.3549022675,-105.5550231934
        1.5752120018,        0.2874362469,0.1272781044,-0.1461801380,-55.2108917236,14.3549022675,-105.5550231934
        1.5779299736,        0.2874362469,0.1272781044,-0.1369027942,-55.3482208252,15.6061229706,-104.2732849121
        1.5805089474,        0.2708346844,0.1404616982,-0.1369027942,-55.3482208252,15.6061229706,-104.2732849121
        1.5830919743,        0.2708346844,0.1404616982,-0.1369027942,-54.5242462158,17.5897655487,-103.0983581543
        1.5857598782,        0.2708346844,0.1404616982,-0.1369027942,-54.5242462158,17.5897655487,-103.0983581543
        1.5887238979,        0.2576510906,0.1736648232,-0.1207895130,-53.0899200439,19.3750438690,-101.4046325684
        1.5914418697,        0.2576510906,0.1736648232,-0.1207895130,-53.0899200439,19.3750438690,-101.4046325684
        1.5941469669,        0.2576510906,0.1736648232,-0.1207895130,-50.8926544189,20.5041942596,-99.3599548340
        1.5968589783,        0.2576510906,0.1736648232,-0.1207895130,-50.8926544189,20.5041942596,-99.3599548340
        1.5996899605,        0.2659518719,0.1951491982,-0.1203012317,-49.0768585205,21.6180858612,-97.2237243652
        1.6023998260,        0.2659518719,0.1951491982,-0.1203012317,-49.0768585205,21.6180858612,-97.2237243652
        1.6051189899,        0.2659518719,0.1951491982,-0.1203012317,-47.9782257080,22.9456005096,-94.6297302246
        1.6078350544,        0.2659518719,0.1951491982,-0.1203012317,-47.9782257080,22.9456005096,-94.6297302246
        1.6105458736,        0.2659518719,0.2093093544,-0.1134652942,-45.9030303955,23.8306102753,-92.1425476074
        1.6132488251,        0.2659518719,0.2093093544,-0.1134652942,-45.9030303955,23.8306102753,-92.1425476074
        1.6159589291,        0.2659518719,0.2093093544,-0.1134652942,-45.0790557861,24.2731151581,-88.9992370605
        1.6186490059,        0.2659518719,0.1839187294,-0.0968637317,-45.0790557861,24.2731151581,-88.9992370605
        1.6212229729,        0.2840182781,0.1839187294,-0.0968637317,-44.8196563721,24.1968212128,-85.5202331543
        1.6237959862,        0.2840182781,0.1839187294,-0.0968637317,-44.8196563721,24.1968212128,-85.5202331543
        1.6263780594,        0.2840182781,0.1839187294,-0.0968637317,-48.7259063721,23.4949169159,-82.0564880371
        1.6289579868,        0.2840182781,0.2263991982,-0.0919809192,-46.2692413330,23.4949169159,-82.0564880371
        1.6315429211,        0.2854831219,0.2263991982,-0.0919809192,-46.2692413330,23.4949169159,-78.0434265137
        1.6341178417,        0.2854831219,0.2263991982,-0.0919809192,-48.4054718018,23.1287059784,-78.0434265137
        1.6366958618,        0.2854831219,0.2263991982,-0.0919809192,-48.4054718018,23.1287059784,-73.0538024902
        1.6393709183,        0.3050143719,0.2630202770,-0.0978402942,-50.0229034424,23.6017284393,-73.0538024902
        1.6419470310,        0.3050143719,0.2630202770,-0.0978402942,-50.0229034424,23.6017284393,-69.1475524902
        1.6445250511,        0.3050143719,0.2630202770,-0.0978402942,-51.1062774658,22.7624950409,-67.9268493652
        1.6471068859,        0.3050143719,0.2630202770,-0.0978402942,-51.1062774658,22.7624950409,-64.0205993652
        1.6499378681,        0.2747409344,0.3098952770,-0.0719613880,-53.3188018799,21.7248973846,-63.6086120605
        1.6526498795,        0.2747409344,0.3098952770,-0.0719613880,-53.3188018799,21.7248973846,-55.7961120605
        1.6553640366,        0.2747409344,0.3098952770,-0.0719613880,-53.9901885986,21.8317089081,-58.7563171387
        1.6580820084,        0.2747409344,0.3098952770,-0.0719613880,-53.9901885986,21.8317089081,-54.8500671387
        1.6607918739,        0.2644870281,0.4173171520,-0.0910043567,-53.3645782471,23.0676708221,-53.3699645996
        1.6635968685,        0.2644870281,0.4173171520,-0.0910043567,-53.3645782471,23.0676708221,-45.5574645996
        1.6663069725,        0.2644870281,0.4173171520,-0.0910043567,-50.9842071533,23.5712108612,-47.2054138184
        1.6690649986,        0.2644870281,0.4744460583,-0.0890512317,-50.9842071533,23.5712108612,-43.2991638184
        1.6717748642,        0.2625339031,0.4744460583,-0.0890512317,-47.6272735596,21.6180858612,-40.4305114746
        1.6744940281,        0.2625339031,0.4744460583,-0.0890512317,-47.6272735596,21.6180858612,-32.6180114746
        1.6771948338,        0.2625339031,0.4744460583,-0.0890512317,-45.6894073486,20.0006542206,-33.8692321777
        1.6798188686,        0.1917331219,0.4226882458,-0.0397348255,-45.6894073486,20.0006542206,-33.8692321777
        1.6823990345,        0.1917331219,0.4226882458,-0.0397348255,-44.8043975830,20.5194530487,-27.8114929199
        1.6849758625,        0.1917331219,0.4226882458,-0.0397348255,-44.8043975830,20.5194530487,-27.8114929199
        1.6875510216,        0.1917331219,0.4226882458,-0.0397348255,-44.0567169189,21.4654979706,-21.7079772949
        1.6903128624,        0.1346042156,0.3079421520,-0.0490121692,-44.0567169189,21.4654979706,-21.7079772949
        1.6930239201,        0.1346042156,0.3079421520,-0.0490121692,-44.7433624268,21.2366161346,-16.1842956543
        1.6957418919,        0.1346042156,0.3079421520,-0.0490121692,-44.7433624268,21.2366161346,-16.1842956543
        1.6984949112,        0.1346042156,0.3079421520,-0.0490121692,-47.7798614502,19.8022899628,-10.4317312241
        1.7012019157,        0.1365573406,0.2532546520,-0.0475473255,-47.7798614502,19.8022899628,-10.4317312241
        1.7039599419,        0.1365573406,0.2532546520,-0.0475473255,-51.0452423096,18.8104686737,-4.3129568100
        1.7068419456,        0.1365573406,0.2532546520,-0.0475473255,-51.0452423096,18.8104686737,-4.3129568100
        1.7096829414,        0.1365573406,0.2654616833,-0.0324106067,-54.4326934814,18.1543407440,1.3785715103
        1.7123918533,        0.1453464031,0.2654616833,-0.0324106067,-54.4326934814,18.1543407440,1.3785715103
        1.7150969505,        0.1453464031,0.2654616833,-0.0324106067,-56.0806427002,17.0099315643,5.6815500259
        1.7178208828,        0.1453464031,0.2654616833,-0.0324106067,-56.0806427002,17.0099315643,5.6815500259
        1.7205300331,        0.1463229656,0.2571609020,-0.0216684192,-55.6991729736,16.7963085175,10.1828927994
        1.7232358456,        0.1463229656,0.2571609020,-0.0216684192,-55.6991729736,16.7963085175,10.1828927994
        1.7259500027,        0.1463229656,0.2571609020,-0.0216684192,-53.9901885986,16.1706981659,14.5163888931
        1.7287378311,        0.1463229656,0.2571609020,-0.0216684192,-53.9901885986,16.1706981659,14.5163888931
        1.7313230038,        0.1658542156,0.1858718544,-0.0031137317,-52.9678497314,15.3772411346,18.1022033691
        1.7338988781,        0.1658542156,0.1858718544,-0.0031137317,-52.9678497314,15.3772411346,18.1022033691
        1.7364759445,        0.1658542156,0.1858718544,-0.0031137317,-53.7307891846,13.8971385956,21.1692199707
        1.7390868664,        0.1658542156,0.1858718544,-0.0031137317,-53.7307891846,13.8971385956,21.1692199707
        1.7416620255,        0.1941745281,0.1663406044,0.0056753308,-55.0125274658,12.5848827362,24.1599426270
        1.7442400455,        0.1941745281,0.1663406044,0.0056753308,-55.0125274658,12.5848827362,24.1599426270
        1.7468218803,        0.1941745281,0.1663406044,0.0056753308,-56.2942657471,9.1821727753,29.7446594238
        1.7494440079,        0.1941745281,0.1663406044,0.2791128159,-56.2942657471,9.1821727753,29.7446594238
        1.7520248890,       -0.1197903156,0.4602859020,0.2791128159,-61.5890655518,0.4388867617,42.1653137207
        1.7546000481,       -0.1197903156,0.4602859020,0.2791128159,-61.5890655518,0.4388867617,42.1653137207
        1.7571778297,       -0.1197903156,0.4602859020,0.2791128159,-69.1269073486,-12.8057422638,62.9935607910
        1.7599189281,       -0.1197903156,0.7571609020,0.6799917221,-69.1269073486,-12.8057422638,62.9935607910
        1.7624979019,       -0.8356106281,0.7571609020,0.6799917221,-73.0331573486,-29.1326465607,84.6152648926
        1.7650718689,       -0.8356106281,0.7571609020,0.6799917221,-75.7797393799,-29.1326465607,84.6152648926
        1.7676508427,       -0.8356106281,0.7571609020,0.6799917221,-75.7797393799,-38.0742950439,97.9209289551
        1.7704420090,       -1.2257473469,0.5808913708,0.5388784409,-74.7421417236,-38.0742950439,97.9209289551
        1.7731568813,       -1.2257473469,0.5808913708,0.5388784409,-74.7421417236,-33.0388946533,99.8435363770
        1.7758638859,       -1.2257473469,0.5808913708,0.5388784409,-58.0795440674,-33.0388946533,99.8435363770
        1.7785530090,       -1.2257473469,0.5808913708,0.5388784409,-58.0795440674,-21.3201465607,91.2986145020
        1.7811338902,       -0.6603176594,-0.0304367393,-0.0123910755,-31.7428741455,-20.9691944122,91.2986145020
        1.7837109566,       -0.6603176594,-0.0304367393,-0.0123910755,-31.7428741455,-20.9691944122,80.1749572754
        1.7862868309,       -0.6603176594,-0.0304367393,-0.0123910755,-9.2056427002,-9.2809619904,80.1749572754
        1.7889380455,       -0.6603176594,-0.0304367393,-0.0123910755,-9.2056427002,-9.2809619904,68.6850891113
        1.7916388512,        0.1175143719,-0.5079758167,-0.4440317154,7.9147181511,-2.4602832794,68.6850891113
        1.7944579124,        0.1175143719,-0.5079758167,-0.4440317154,7.9147181511,-2.4602832794,61.5287170410
        1.7971658707,        0.1175143719,-0.5079758167,-0.4440317154,13.6367645264,-2.2924365997,61.5287170410
        1.7998800278,        0.1175143719,-0.5079758167,-0.4489145279,13.6367645264,-2.2924365997,60.3690490723
        1.8025898933,        0.3753268719,-0.5524094105,-0.4489145279,7.1060023308,-4.6728076935,60.3690490723
        1.8052949905,        0.3753268719,-0.5524094105,-0.4489145279,7.1060023308,-4.6728076935,65.2976379395
        1.8080508709,        0.3753268719,-0.5524094105,-0.4489145279,-7.0999302864,-6.3054981232,65.2976379395
        1.8107519150,        0.2503268719,-0.2335617393,-0.2448129505,-7.0999302864,-6.3054981232,72.2251281738
        1.8134560585,        0.2776706219,-0.2335617393,-0.2448129505,-25.1663360596,-5.8324756622,72.2251281738
        1.8161649704,        0.2776706219,-0.2335617393,-0.2448129505,-25.1663360596,-5.8324756622,77.2757873535
        1.8188779354,        0.2776706219,-0.2335617393,-0.2448129505,-45.6436309814,-4.3065967560,77.2757873535
        1.8215768337,        0.3138034344,0.0970046669,-0.0490121692,-45.6436309814,-4.3065967560,80.2054748535
        1.8243629932,        0.3138034344,0.0970046669,-0.0490121692,-65.4800567627,-5.4815235138,80.2054748535
        1.8270719051,        0.3138034344,0.0970046669,-0.0490121692,-65.4800567627,-5.4815235138,81.2583312988
        1.8298430443,        0.3138034344,0.0970046669,-0.0490121692,-81.8374786377,-10.6542530060,81.2583312988
        1.8328049183,        0.4378268719,0.2386062294,0.0711050183,-81.8374786377,-10.6542530060,82.4942932129
        1.8353819847,        0.4378268719,0.2386062294,0.0711050183,-96.5011749268,-16.6967334747,82.4942932129
        1.8380360603,        0.4378268719,0.2386062294,0.0711050183,-96.5011749268,-16.6967334747,82.1585998535
        1.8407418728,        0.4378268719,0.1682937294,0.0789175183,-109.4101104736,-22.7239551544,82.1585998535
        1.8434510231,        0.5418307781,0.1682937294,0.0789175183,-109.4101104736,-22.7239551544,79.7324523926
        1.8461630344,        0.5418307781,0.1682937294,0.0789175183,-119.7250518799,-28.1866016388,79.7324523926
        1.8488819599,        0.5418307781,0.1682937294,0.0789175183,-119.7250518799,-28.1866016388,75.8719787598
        1.8515939713,        0.5291354656,0.2820632458,0.0305776745,-120.8389434814,-32.9778594971,75.8719787598
        1.8543078899,        0.5291354656,0.2820632458,0.0305776745,-120.8389434814,-32.9778594971,71.5079650879
        1.8570120335,        0.5291354656,0.2820632458,0.0305776745,-110.7681427002,-36.7620391846,71.5079650879
        1.8597629070,        0.5291354656,0.2820632458,0.0305776745,-110.7681427002,-36.7620391846,67.0371398926
        1.8623368740,        0.3450534344,0.5979812145,-0.0787973255,-91.3894805908,-39.8748321533,67.0371398926
        1.8649129868,        0.3450534344,0.5979812145,-0.0787973255,-91.3894805908,-39.8748321533,67.0371398926
        1.8674979210,        0.3450534344,0.5979812145,-0.0787973255,-64.9765167236,-40.8513946533,62.2153625488
        1.8700759411,        0.3450534344,0.5979812145,-0.0787973255,-64.9765167236,-40.8513946533,62.2153625488
        1.8726530075,       -0.0533840656,0.7654616833,-0.0714731067,-34.1537628174,-39.9358673096,56.3559875488
        1.8752348423,       -0.0533840656,0.7654616833,-0.0714731067,-34.1537628174,-39.9358673096,56.3559875488
        1.8779170513,       -0.0533840656,0.7654616833,-0.0714731067,-8.3206329346,-40.1647491455,50.1609191895
        1.8804960251,       -0.0533840656,0.7654616833,-0.1964731067,-8.3206329346,-40.1647491455,50.1609191895
        1.8830690384,       -0.4420559406,0.4729812145,-0.0934457630,8.9065399170,-39.3255157471,41.6770324707
        1.8856420517,       -0.4420559406,0.4729812145,-0.0934457630,8.9065399170,-39.3255157471,41.6770324707
        1.8883910179,       -0.4420559406,0.4729812145,-0.0934457630,22.3953094482,-36.1516876221,31.9571838379
        1.8911018372,       -0.4420559406,0.0970046669,-0.1622934192,22.3953094482,-36.1516876221,31.9571838379
        1.8938119411,       -0.5304348469,0.0970046669,-0.1622934192,29.5059051514,-34.8089141846,25.4264221191
        1.8965229988,       -0.5304348469,0.0970046669,-0.1622934192,29.5059051514,-34.8089141846,25.4264221191
        1.8992769718,       -0.5304348469,0.0970046669,-0.1622934192,31.6421356201,-33.8781280518,21.9474182129
        1.9019908905,       -0.4288723469,-0.0475265831,-0.1412973255,31.6421356201,-33.8781280518,21.9474182129
        1.9046988487,       -0.4288723469,-0.0475265831,-0.1412973255,28.0105438232,-32.7947540283,20.3147277832
        1.9074099064,       -0.4288723469,-0.0475265831,-0.1412973255,28.0105438232,-32.7947540283,20.3147277832
        1.9100248814,       -0.4288723469,-0.0475265831,-0.1412973255,15.9561004639,-31.5282764435,19.3992004395
        1.9126009941,       -0.2062160969,-0.0338547081,-0.0978402942,15.9561004639,-31.5282764435,19.3992004395
        1.9151799679,       -0.2062160969,-0.0338547081,-0.0978402942,1.2161097527,-29.5598926544,18.8193664551
        1.9177899361,       -0.2062160969,-0.0338547081,-0.0978402942,1.2161097527,-29.5598926544,18.8193664551
        1.9205038548,       -0.2062160969,-0.0338547081,-0.0978402942,-9.1140899658,-28.0034961700,17.7665100098
        1.9233200550,        0.1072604656,0.1472976357,-0.0455942005,-9.1140899658,-28.0034961700,17.7665100098
        1.9260299206,        0.1072604656,0.1472976357,-0.0455942005,-16.2094268799,-27.2252979279,15.8896799088
        1.9287550449,        0.1072604656,0.1472976357,-0.0455942005,-16.2094268799,-27.2252979279,15.8896799088
        1.9314670563,        0.1072604656,0.1941726357,0.1057729870,-20.8328399658,-24.7075977325,13.0668039322
        1.9341709614,        0.2586276531,0.1941726357,0.1057729870,-20.8328399658,-24.7075977325,13.0668039322
        1.9368839264,        0.2586276531,0.1941726357,0.1057729870,-21.0617218018,-21.9915332794,9.6030588150
        1.9396069050,        0.2586276531,0.1941726357,0.1057729870,-21.0617218018,-21.9915332794,9.6030588150
        1.9423129559,        0.1790378094,0.1453445107,0.1970815808,-19.8105010986,-22.1441211700,5.5899972916
        1.9451639652,        0.1790378094,0.1453445107,0.1970815808,-19.8105010986,-22.1441211700,5.5899972916
        1.9482550621,        0.1790378094,0.1453445107,0.1970815808,-15.8584747314,-23.4258594513,1.7142648697
        1.9508349895,        0.1790378094,0.1453445107,0.1970815808,-15.8584747314,-23.4258594513,1.7142648697
        1.9534058571,       -0.0084621906,0.1443679482,0.1897573620,-10.3805694580,-24.1582813263,-2.2987966537
        1.9559769630,       -0.0084621906,0.1443679482,0.1897573620,-10.3805694580,-24.1582813263,-2.2987966537
        1.9585959911,       -0.0084621906,0.1443679482,0.1897573620,-5.1010289192,-23.5326709747,-5.7320241928
        1.9613049030,       -0.0084621906,0.1443679482,0.1292104870,-5.1010289192,-23.5326709747,-5.7320241928
        1.9640078545,       -0.1305325031,0.1546218544,0.1292104870,0.2090296745,-23.3800830841,-9.5009450912
        1.9667210579,       -0.1305325031,0.1546218544,0.1292104870,0.2090296745,-23.3800830841,-9.5009450912
        1.9694800377,       -0.1305325031,0.1546218544,0.1292104870,4.2983851433,-22.5255908966,-12.8273611069
        1.9721980095,       -0.2555325031,0.1668288857,0.0427847058,4.2983851433,-22.5255908966,-12.8273611069
        1.9748990536,       -0.2027981281,0.1668288857,0.0427847058,8.4182586670,-20.8471240997,-15.5739431381
        1.9776070118,       -0.2027981281,0.1668288857,0.0427847058,8.4182586670,-20.8471240997,-15.5739431381
        1.9802129269,       -0.2027981281,0.1668288857,0.0427847058,12.3245086670,-19.4127979279,-17.3439636230
        1.9827878475,       -0.1388332844,0.1809890419,0.0183706433,12.2634735107,-19.4127979279,-17.3439636230
        1.9853680134,       -0.1388332844,0.1809890419,0.0183706433,12.2634735107,-19.4127979279,-19.3123474121
        1.9881219864,       -0.1388332844,0.1809890419,0.0183706433,14.2776336670,-17.7343311310,-19.3123474121
        1.9907078743,       -0.1388332844,0.1809890419,0.0183706433,14.2776336670,-13.8280811310,-21.7690124512
        1.9932889938,       -0.0494778156,0.2137038857,0.0193472058,13.4536590576,-16.8950977325,-21.7690124512
        1.9958648682,       -0.0494778156,0.2137038857,0.0193472058,13.4536590576,-16.8950977325,-23.2948913574
        1.9986000061,       -0.0494778156,0.2137038857,0.0193472058,11.0122528076,-15.7812061310,-23.2948913574
        2.0011839867,       -0.0494778156,0.2137038857,0.0193472058,11.0122528076,-15.7812061310,-27.2011413574
        2.0037610531,        0.0076510906,0.1824538857,-0.0128793567,8.4487762451,-15.4149951935,-25.1564636230
        2.0063378811,        0.0076510906,0.1824538857,-0.0128793567,8.4487762451,-15.4149951935,-25.1564636230
        2.0090818405,        0.0076510906,0.1824538857,-0.0128793567,4.5730433464,-16.1474170685,-27.9030456543
        2.0117900372,        0.0076510906,0.1824538857,0.0266714245,4.5730433464,-16.1474170685,-27.9030456543
        2.0145030022,        0.0125339031,0.1585281044,0.0266714245,1.4602503777,-16.2847461700,-29.6883239746
        2.0172090530,        0.0125339031,0.1585281044,0.0266714245,1.4602503777,-16.2847461700,-29.6883239746
        2.0199239254,        0.0125339031,0.1585281044,0.0266714245,0.1785120964,-15.8269824982,-31.4125671387
        2.0226318836,        0.0125339031,0.1443679482,0.0217886120,0.1785120964,-15.8269824982,-31.4125671387
        2.0253398418,        0.0320651531,0.1443679482,0.0217886120,-1.0421910286,-15.9337940216,-33.2588806152
        2.0280749798,        0.0320651531,0.1443679482,0.0217886120,-1.0421910286,-15.9337940216,-33.2588806152
        2.0306520462,        0.0320651531,0.1443679482,0.0217886120,-1.0574498177,-16.5441455841,-35.2882995605
        2.0332250595,        0.0052096844,0.1487624794,0.0379018933,-1.0574498177,-16.5441455841,-35.2882995605
        2.0358059406,        0.0052096844,0.1487624794,0.0379018933,-0.2487339973,-16.0711231232,-37.0583190918
        2.0383739471,        0.0052096844,0.1487624794,0.0379018933,-0.2487339973,-16.0711231232,-37.0583190918
        2.0409410000,        0.0052096844,0.1487624794,0.0379018933,1.6280970573,-15.7659473419,-38.6757507324
        2.0435140133,       -0.0299465656,0.1272781044,0.0213003308,1.6280970573,-15.7659473419,-38.6757507324
        2.0460839272,       -0.0299465656,0.1272781044,0.0213003308,3.8101038933,-16.1779346466,-40.1558532715
        2.0488169193,       -0.0299465656,0.1272781044,0.0213003308,3.8101038933,-16.1779346466,-40.1558532715
        2.0515079498,       -0.0299465656,0.1272781044,0.0213003308,7.2585902214,-15.9185352325,-40.9950866699
        2.0540838242,       -0.0553371906,0.0833327919,0.0276479870,7.2585902214,-15.9185352325,-40.9950866699
        2.0566608906,       -0.0553371906,0.0833327919,0.0276479870,10.5087127686,-14.8809375763,-42.0937194824
        2.0592789650,       -0.0553371906,0.0833327919,0.0276479870,10.5087127686,-14.8809375763,-42.0937194824
        2.0618438721,       -0.0553371906,0.0833327919,0.0276479870,14.4149627686,-13.7060108185,-42.2463073730
        2.0645229816,       -0.0533840656,0.0589187294,0.0510854870,13.1484832764,-13.7060108185,-42.2463073730
        2.0670988560,       -0.0533840656,0.0589187294,0.0510854870,16.1392059326,-13.0193653107,-42.0937194824
        2.0700469017,       -0.0533840656,0.0589187294,0.0510854870,16.1392059326,-13.0193653107,-42.0937194824
        2.0726208687,       -0.0533840656,0.0589187294,0.0652456433,16.1392059326,-12.2259082794,-42.5667419434
        2.0751960278,       -0.0172512531,0.0032546669,0.0652456433,18.1228485107,-12.2259082794,-42.5667419434
        2.0778129101,       -0.0172512531,0.0032546669,0.0652456433,18.1228485107,-12.2259082794,-43.3296813965
        2.0805258751,       -0.0172512531,0.0032546669,0.0652456433,19.8165740967,-11.9359912872,-43.3296813965
        2.0832388401,       -0.0172512531,-0.0001633018,0.0740347058,19.8165740967,-11.9359912872,-43.4059753418
        2.0859498978,        0.0203464031,-0.0001633018,0.0740347058,20.7931365967,-11.9207324982,-43.4059753418
        2.0886659622,        0.0203464031,-0.0001633018,0.0740347058,20.7931365967,-11.9207324982,-42.5820007324
        2.0913829803,        0.0203464031,-0.0001633018,0.0740347058,21.1746063232,-12.5310840607,-42.5820007324
        2.0940890312,        0.0330417156,-0.0153000206,0.0422964245,21.1746063232,-12.5310840607,-42.2157897949
        2.0967969894,        0.0330417156,-0.0153000206,0.0422964245,23.6617889404,-13.0956592560,-42.2157897949
        2.0994460583,        0.0330417156,-0.0153000206,0.0422964245,23.6617889404,-13.0956592560,-42.7193298340
        2.1020188332,        0.0330417156,-0.0153000206,0.0422964245,24.5315399170,-14.0874805450,-42.7193298340
        2.1045939922,       -0.0367825031,-0.0182297081,0.0408315808,24.5315399170,-14.0874805450,-42.7193298340
        2.1071710587,       -0.0367825031,-0.0182297081,0.0408315808,24.8977508545,-14.1637744904,-42.9939880371
        2.1098070145,       -0.0367825031,-0.0182297081,0.0408315808,24.8977508545,-14.1637744904,-42.9939880371
        2.1123859882,       -0.0367825031,-0.0182297081,0.0408315808,26.7440643311,-13.9196338654,-42.5972595215
        2.1150729656,       -0.0983059406,-0.0509445518,-0.0070199817,26.7440643311,-13.9196338654,-42.5972595215
        2.1176588535,       -0.0983059406,-0.0509445518,-0.0070199817,28.3920135498,-12.9583301544,-41.2239685059
        2.1203279495,       -0.0983059406,-0.0509445518,-0.0070199817,28.3920135498,-12.9583301544,-41.2239685059
        2.1229050159,       -0.0983059406,-0.0509445518,0.0339956433,28.0410614014,-13.0651416779,-39.4081726074
        2.1254830360,       -0.0602200031,-0.0089523643,0.0339956433,28.0410614014,-13.0651416779,-39.4081726074
        2.1282098293,       -0.0602200031,-0.0089523643,0.0339956433,26.3625946045,-14.1332569122,-37.8822937012
        2.1309030056,       -0.0602200031,-0.0089523643,0.0339956433,26.3625946045,-14.1332569122,-37.8822937012
        2.1335999966,       -0.0602200031,-0.0094406456,0.0393667370,25.9506072998,-14.0264453888,-36.9667663574
        2.1362969875,       -0.0343410969,-0.0094406456,0.0393667370,25.9506072998,-14.0264453888,-36.9667663574
        2.1389918327,       -0.0343410969,-0.0094406456,0.0393667370,27.6748504639,-12.8210010529,-36.2953796387
        2.1416678429,       -0.0343410969,-0.0094406456,0.0393667370,27.6748504639,-12.8210010529,-36.2953796387
        2.1443400383,       -0.0011379719,-0.0597336143,0.0393667370,29.8873748779,-11.6002979279,-35.6697692871
        2.1470119953,       -0.0011379719,-0.0597336143,0.0393667370,29.8873748779,-11.6002979279,-35.6697692871
        2.1497609615,       -0.0011379719,-0.0597336143,0.0393667370,28.7429656982,-10.1354541779,-34.4185485840
        2.1523368359,       -0.0011379719,-0.0597336143,0.0393667370,28.7429656982,-10.1354541779,-34.4185485840
        2.1549139023,        0.0413424969,-0.0431320518,0.0618276745,25.2639617920,-8.1670703888,-33.3504333496
        2.1574869156,        0.0413424969,-0.0431320518,0.0618276745,25.2639617920,-8.1670703888,-33.3504333496
        2.1600730419,        0.0413424969,-0.0431320518,0.0618276745,20.4574432373,-6.8395557404,-32.1297302246
        2.1626529694,        0.0413424969,-0.0431320518,0.0618276745,20.4574432373,-6.8395557404,-32.1297302246
        2.1652228832,        0.0696628094,-0.0182297081,0.0798940808,20.4574432373,-6.0918750763,-31.0463562012
        2.1678199768,        0.0696628094,-0.0182297081,0.0798940808,17.0852508545,-6.0918750763,-31.0463562012
        2.1705260277,        0.0696628094,-0.0182297081,0.0798940808,17.0852508545,-4.6422901154,-30.0697937012
        2.1732239723,        0.0696628094,-0.0182297081,0.0798940808,15.8035125732,-4.6422901154,-30.0697937012
        2.1759319305,        0.0818698406,0.0403640419,0.1160268933,15.8035125732,-3.2842578888,-29.0321960449
        2.1787929535,        0.0818698406,0.0403640419,0.1160268933,15.4220428467,-3.2842578888,-29.0321960449
        2.1814990044,        0.0818698406,0.0403640419,0.1160268933,15.4220428467,-3.0553760529,-28.5133972168
        2.1844439507,        0.0677096844,0.0413406044,0.1018667370,15.2694549561,-3.0553760529,-28.5133972168
        2.1871550083,        0.0677096844,0.0413406044,0.1018667370,17.3904266357,-3.0553760529,-28.3455505371
        2.1902730465,        0.0677096844,0.0413406044,0.1018667370,17.3904266357,-3.0553760529,-28.3455505371
        2.1929800510,        0.0677096844,0.0413406044,0.1018667370,18.3822479248,-3.1469287872,-28.4523620605
        2.1956870556,        0.0110690594,-0.0113937706,0.0964956433,18.3822479248,-3.1469287872,-28.4523620605
        2.1983768940,        0.0110690594,-0.0113937706,0.0964956433,16.3223114014,-3.7420215607,-27.9488220215
        2.2009508610,        0.0110690594,-0.0113937706,0.0964956433,16.3223114014,-3.7420215607,-27.9488220215
        2.2035319805,        0.0110690594,-0.0113937706,-0.0285043567,13.9724578857,-4.1387500763,-26.7891540527
        2.2061090469,       -0.0113918781,-0.1002609581,0.0296011120,13.9724578857,-4.1387500763,-26.7891540527
        2.2087459564,       -0.0113918781,-0.1002609581,0.0296011120,10.0662078857,-3.6046924591,-25.5837097168
        2.2114539146,       -0.0113918781,-0.1002609581,0.0296011120,10.9817352295,-3.6046924591,-25.5837097168
        2.2141699791,       -0.0113918781,-0.1124679893,0.0300893933,7.0754847527,-2.7349414825,-24.1799011230
        2.2168779373,        0.0174167156,-0.1124679893,0.0300893933,6.6482386589,-2.7349414825,-24.1799011230
        2.2195188999,        0.0174167156,-0.1124679893,0.0300893933,6.6482386589,-2.7349414825,-22.1504821777
        2.2220900059,        0.0174167156,-0.1124679893,0.0300893933,2.9250941277,-2.3992481232,-22.1504821777
        2.2246680260,        0.0174167156,-0.0680343956,-0.0387582630,2.9250941277,-2.3992481232,-19.8769226074
        2.2272398472,        0.0335299969,-0.0680343956,-0.0387582630,0.7888636589,-2.4602832794,-19.8769226074
        2.2298209667,        0.0335299969,-0.0680343956,-0.0387582630,0.7888636589,-2.4602832794,-19.8769226074
        2.2323958874,        0.0335299969,-0.0680343956,-0.0387582630,-3.3310093880,-2.6586475372,-17.7406921387
        2.2349679470,       -0.0030910969,-0.0836593956,-0.0397348255,-3.3310093880,-2.6586475372,-17.7406921387
        2.2375359535,       -0.0030910969,-0.0836593956,-0.0397348255,-5.8334507942,-1.3006151915,-15.3298025131
        2.2402849197,       -0.0030910969,-0.0836593956,-0.0397348255,-5.8334507942,-1.3006151915,-15.3298025131
        2.2429678440,       -0.0030910969,-0.0836593956,-0.0397348255,-5.1315464973,0.3778516054,-13.3919363022
        2.2455439568,       -0.0026028156,-0.0445968956,-0.0099496692,-5.1315464973,0.3778516054,-13.3919363022
        2.2482080460,       -0.0026028156,-0.0445968956,-0.0099496692,-4.7500767708,1.8884717226,-11.1031179428
        2.2507908344,       -0.0026028156,-0.0445968956,-0.0099496692,-4.7500767708,1.8884717226,-11.1031179428
        2.2533638477,       -0.0026028156,-0.0445968956,-0.0099496692,-3.0105748177,2.4225292206,-8.5701589584
        2.2559330463,        0.0257174969,0.0574538857,0.0208120495,-3.0105748177,2.4225292206,-8.5701589584
        2.2585530281,        0.0257174969,0.0574538857,0.0208120495,-0.0198521614,1.5832959414,-6.6322927475
        2.2612619400,        0.0257174969,0.0574538857,0.0208120495,-0.0198521614,1.5832959414,-6.6322927475
        2.2639548779,        0.0257174969,0.0574538857,0.0208120495,4.6645960808,1.1407910585,-5.8998708725
        2.2666668892,        0.0149753094,0.0227859169,0.0227651745,4.6645960808,1.1407910585,-5.8998708725
        2.2693810463,        0.0149753094,0.0227859169,0.0227651745,10.1119842529,2.2394237518,-3.8399343491
        2.2720830441,        0.0149753094,0.0227859169,0.0227651745,10.1119842529,2.2394237518,-3.8399343491
        2.2747929096,        0.0149753094,-0.0655929893,0.0427847058,14.5065155029,3.3227977753,-0.3304128647
        2.2774939537,        0.0115573406,-0.0655929893,0.0427847058,14.5065155029,3.3227977753,-0.3304128647
        2.2802059650,        0.0115573406,-0.0655929893,0.0427847058,16.1849822998,2.6819286346,2.9654855728
        2.2829089165,        0.0115573406,-0.0655929893,0.0427847058,16.1849822998,2.6819286346,2.9654855728
        2.2856130600,        0.0139987469,-0.1725265831,0.0525503308,16.4901580811,0.5762158632,5.6815500259
        2.2883310318,        0.0139987469,-0.1725265831,0.0525503308,16.4901580811,0.5762158632,5.6815500259
        2.2910308838,        0.0139987469,-0.1725265831,0.0525503308,14.9032440186,-0.5376757383,7.5583810806
        2.2937309742,        0.0139987469,-0.1725265831,0.0525503308,14.9032440186,-0.5376757383,7.5583810806
        2.2964370251,       -0.0275051594,-0.2882492542,0.0584097058,11.7294158936,-1.0717333555,8.8553781509
        2.2990920544,       -0.0275051594,-0.2882492542,0.0584097058,11.7294158936,-1.0717333555,8.8553781509
        2.3016619682,       -0.0275051594,-0.2882492542,0.0584097058,7.8994593620,-1.0259569883,11.1441965103
        2.3043990135,       -0.0275051594,-0.2882492542,0.0584097058,7.8994593620,-1.0259569883,11.1441965103
        2.3070929050,       -0.0441067219,-0.3644211292,0.0608511120,3.9016566277,-1.1327685118,12.8684396744
        2.3101029396,       -0.0441067219,-0.3644211292,0.0608511120,3.9016566277,-1.1327685118,12.8684396744
        2.3128080368,       -0.0441067219,-0.3644211292,0.0608511120,-3.7887730598,-0.9649218321,14.8063058853
        2.3155088425,       -0.0441067219,-0.1691086143,0.0593862683,-3.7887730598,-0.9649218321,14.8063058853
        2.3182618618,       -0.0543606281,-0.1691086143,0.0593862683,-10.2432403564,-0.0036181211,16.8052062988
        2.3209638596,       -0.0543606281,-0.1691086143,0.0593862683,-10.2432403564,-0.0036181211,16.8052062988
        2.3236749172,       -0.0543606281,-0.1691086143,0.0593862683,-11.4334259033,-0.9801806211,18.9414367676
        2.3263750076,       -0.0655910969,0.0179031044,0.0261831433,-11.4334259033,-0.9801806211,18.9414367676
        2.3290870190,       -0.0655910969,0.0179031044,0.0261831433,-9.0377960205,-1.5447558165,19.7501525879
        2.3317940235,       -0.0655910969,0.0179031044,0.0261831433,-9.0377960205,-1.5447558165,19.7501525879
        2.3344979286,       -0.0655910969,0.0179031044,0.0261831433,-2.9037632942,-1.5447558165,19.5212707520
        2.3371989727,       -0.0421535969,0.0218093544,-0.0104379505,-2.9037632942,-1.5447558165,19.5212707520
        2.3398170471,       -0.0421535969,0.0218093544,-0.0104379505,4.9087367058,-2.0177783966,18.6515197754
        2.3423919678,       -0.0421535969,0.0218093544,-0.0104379505,4.9087367058,-2.0177783966,18.6515197754
        2.3449678421,       -0.0421535969,0.0218093544,-0.0182504505,12.7212371826,-2.3534717560,18.8041076660
        2.3475408554,       -0.0133450031,0.0047195107,-0.0182504505,11.2411346436,-2.3534717560,18.8041076660
        2.3501598835,       -0.0133450031,0.0047195107,-0.0182504505,11.2411346436,-2.3534717560,18.6515197754
        2.3527419567,       -0.0133450031,0.0047195107,-0.0182504505,14.0487518311,-3.0553760529,18.6515197754
        2.3553149700,       -0.0133450031,0.0047195107,-0.0221567005,14.0487518311,-3.0553760529,18.0716857910
        2.3579599857,       -0.0485012531,-0.0445968956,-0.0221567005,15.4525604248,-3.0095996857,18.0716857910
        2.3605539799,       -0.0485012531,-0.0445968956,-0.0221567005,15.4525604248,-3.0095996857,21.9779357910
        2.3631310463,       -0.0485012531,-0.0445968956,-0.0221567005,15.6051483154,-2.3076953888,19.0329895020
        2.3657100201,       -0.0485012531,-0.0704758018,-0.0123910755,15.6051483154,-2.3076953888,19.0329895020
        2.3684179783,       -0.0704739094,-0.0704758018,-0.0123910755,14.0945281982,-1.5752733946,21.1234436035
        2.3712320328,       -0.0704739094,-0.0704758018,-0.0123910755,14.0945281982,-1.5752733946,21.1234436035
        2.3739399910,       -0.0704739094,-0.0704758018,-0.0123910755,10.8291473389,-2.5213184357,21.6117248535
        2.3766429424,       -0.0670559406,-0.1027023643,0.0227651745,10.8291473389,-2.5213184357,21.6117248535
        2.3793630600,       -0.0670559406,-0.1027023643,0.0227651745,8.8912811279,-3.4826221466,20.8335266113
        2.3820788860,       -0.0670559406,-0.1027023643,0.0227651745,8.8912811279,-3.4826221466,20.8335266113
        2.3847799301,       -0.0670559406,-0.1027023643,0.0227651745,8.0062713623,-3.2079639435,20.4673156738
        2.3874869347,       -0.1124660969,-0.0987961143,0.0276479870,8.0062713623,-3.2079639435,20.4673156738
        2.3900749683,       -0.1124660969,-0.0987961143,0.0276479870,5.8395228386,-3.9098682404,20.2842102051
        2.3926470280,       -0.1124660969,-0.0987961143,0.0276479870,5.8395228386,-3.9098682404,20.2842102051
        2.3952238560,       -0.1124660969,-0.0987961143,0.0276479870,5.9158167839,-3.9709033966,19.4449768066
        2.3978109360,       -0.1788723469,-0.2179367393,0.0398550183,5.9158167839,-3.9709033966,19.4449768066
        2.4003829956,       -0.1788723469,-0.2179367393,0.0398550183,8.8302459717,-1.7126024961,17.8580627441
        2.4029679298,       -0.1788723469,-0.2179367393,0.0398550183,8.8302459717,-1.7126024961,17.8580627441
        2.4055428505,       -0.1788723469,-0.2179367393,0.0603628308,10.0509490967,0.6372510195,18.4226379395
        2.4082078934,       -0.2262356281,-0.0362961143,0.0603628308,10.0509490967,0.6372510195,18.4226379395
        2.4107909203,       -0.2262356281,-0.0362961143,0.0603628308,15.6814422607,3.0176219940,19.1703186035
        2.4133629799,       -0.2262356281,-0.0362961143,0.0603628308,15.6814422607,3.0176219940,19.1703186035
        2.4159400463,       -0.2262356281,0.0887038857,0.0466909558,19.7860565186,3.8568553925,17.0188293457
        2.4186339378,       -0.2770168781,0.1023757607,0.0466909558,19.7860565186,3.8568553925,17.0188293457
        2.4213080406,       -0.2770168781,0.1023757607,0.0466909558,24.4399871826,4.7723827362,14.9283761978
        2.4243340492,       -0.2770168781,0.1023757607,0.0466909558,24.4399871826,4.7723827362,14.9283761978
        2.4270238876,       -0.2980129719,0.0437820107,0.0169057995,31.4895477295,5.2911815643,13.4787912369
        2.4300539494,       -0.2980129719,0.0437820107,0.0169057995,31.4895477295,5.2911815643,13.4787912369
        2.4326319695,       -0.2980129719,0.0437820107,0.0169057995,40.6753387451,7.9156932831,12.6700754166
        2.4353089333,       -0.2980129719,0.0437820107,0.0169057995,40.6753387451,7.9156932831,12.6700754166
        2.4380660057,       -0.3331692219,0.0242507607,0.0159292370,42.9946746826,11.1810741425,11.1899728775
        2.4407329559,       -0.3331692219,0.0242507607,0.0159292370,42.9946746826,11.1810741425,11.1899728775
        2.4434058666,       -0.3331692219,0.0242507607,0.0159292370,41.6061248779,12.2644481659,10.1676340103
        2.4462699890,       -0.3331692219,0.1492507607,-0.0880746692,41.6061248779,12.2644481659,10.1676340103
        2.4489710331,       -0.4103176594,0.0686843544,-0.0880746692,41.2399139404,14.1717967987,9.4657297134
        2.4516470432,       -0.4103176594,0.0686843544,-0.0880746692,41.2399139404,14.1717967987,9.4657297134
        2.4543130398,       -0.4103176594,0.0686843544,-0.0880746692,41.3162078857,17.4829540253,9.2826242447
        2.4570789337,       -0.5128567219,-0.0006515831,-0.0397348255,41.3162078857,17.4829540253,9.2826242447
        2.4596960545,       -0.5128567219,-0.0006515831,-0.0397348255,41.9418182373,21.5875682831,9.3436594009
        2.4622659683,       -0.5128567219,-0.0006515831,-0.0397348255,41.9418182373,21.5875682831,9.3436594009
        2.4648399353,       -0.5128567219,-0.0006515831,-0.0397348255,41.9875946045,24.1968212128,9.6793527603
        2.4674220085,       -0.5182278156,-0.0475265831,0.0007925183,41.9875946045,24.1968212128,9.6793527603
        2.4700200558,       -0.5182278156,-0.0475265831,0.0007925183,41.9875946045,24.2273387909,10.3965158463
        2.4725968838,       -0.5182278156,-0.0475265831,0.0007925183,40.3701629639,24.2273387909,10.3965158463
        2.4751689434,       -0.5182278156,-0.0475265831,0.0007925183,40.3701629639,24.2273387909,11.2967844009
        2.4778988361,       -0.5626614094,-0.0099289268,0.0242300183,42.3080291748,21.9080028534,11.2967844009
        2.4804809093,       -0.5626614094,-0.0099289268,0.0242300183,42.3080291748,21.9080028534,10.5948801041
        2.4830558300,       -0.5626614094,-0.0099289268,0.0242300183,49.7085418701,18.0933055878,10.5948801041
        2.4856300354,       -0.5626614094,-0.0099289268,0.0242300183,49.7085418701,18.0933055878,10.5948801041
        2.4883790016,       -0.5963528156,-0.1100265831,0.0974722058,62.0834197998,13.0426464081,9.6793527603
        2.4910869598,       -0.5963528156,-0.1100265831,0.0974722058,62.0834197998,13.0426464081,9.6793527603
        2.4937949181,       -0.5963528156,-0.1100265831,0.0974722058,74.8245086670,8.8159618378,9.2826242447
        2.4965019226,       -0.5963528156,-0.1100265831,0.0940542370,74.8245086670,8.8159618378,13.1888742447
        2.4992089272,       -0.7008450031,-0.2535812855,0.0940542370,84.4985809326,6.4508495331,11.1899728775
        2.5020408630,       -0.7008450031,-0.2535812855,0.0940542370,84.4985809326,6.4508495331,15.0504465103
        2.5047500134,       -0.7008450031,-0.2535812855,0.0940542370,90.6631317139,4.3909130096,15.0504465103
        2.5074558258,       -0.6437160969,-0.4381515980,0.0906362683,90.6631317139,4.3909130096,15.0504465103
        2.5100548267,       -0.6437160969,-0.4381515980,0.0906362683,95.5764617920,1.9647656679,18.2395324707
        2.5126218796,       -0.6437160969,-0.4381515980,0.0906362683,95.5764617920,1.9647656679,18.2395324707
        2.5151958466,       -0.6437160969,-0.4381515980,0.0906362683,95.1492156982,-1.1785448790,21.7490539551
        2.5177969933,       -0.5133450031,-0.6969406605,0.0261831433,95.1492156982,-1.1785448790,21.7490539551
        2.5205049515,       -0.5133450031,-0.6969406605,0.0261831433,87.8097381592,-3.1316699982,26.4487609863
        2.5232160091,       -0.5133450031,-0.6969406605,0.0261831433,87.8097381592,-3.1316699982,26.4487609863
        2.5259208679,       -0.5133450031,-0.6969406605,0.0261831433,72.0779266357,-2.4908008575,32.5370178223
        2.5287768841,       -0.4152004719,-0.9059250355,-0.1002817005,72.0779266357,-2.4908008575,32.5370178223
        2.5314660072,       -0.4152004719,-0.9059250355,-0.1002817005,51.8905487061,1.7969189882,41.1887512207
        2.5341579914,       -0.4152004719,-0.9059250355,-0.1002817005,51.8905487061,1.7969189882,41.1887512207
        2.5368559361,       -0.4152004719,-0.9059250355,-0.1876840442,29.3533172607,5.4742870331,56.6306457520
        2.5395660400,       -0.2853176594,-0.7545578480,-0.1876840442,29.3533172607,5.4742870331,56.6306457520
        2.5422689915,       -0.2853176594,-0.7545578480,-0.1876840442,-1.4389195442,1.9647656679,78.8627014160
        2.5451219082,       -0.2853176594,-0.7545578480,-0.1876840442,-1.4389195442,1.9647656679,78.8627014160
        2.5478279591,       -0.4796535969,-0.0309250206,-0.0138559192,-33.8180694580,-5.4967823029,104.5432434082
        2.5510149002,       -0.4796535969,-0.0309250206,-0.0138559192,-33.8180694580,-5.4967823029,135.7932434082
        2.5535879135,       -0.4796535969,-0.0309250206,-0.0138559192,-62.3367462158,-11.9207324982,134.7403869629
        2.5561668873,       -0.4796535969,-0.0309250206,-0.0138559192,-62.3367462158,-11.9207324982,134.7403869629
        2.5587420464,       -0.7877590656,0.8719069958,0.3377065659,-86.9186553955,-20.5419483185,166.1429748535
        2.5613138676,       -0.7877590656,0.8719069958,0.3377065659,-86.9186553955,-20.5419483185,166.1429748535
        2.5638928413,       -0.7877590656,0.8719069958,0.3377065659,-96.6995391846,-29.1784229279,194.0970764160
        2.5665738583,       -0.7877590656,0.8719069958,0.3377065659,-96.6995391846,-29.1784229279,194.0970764160
        2.5691878796,       -0.9869778156,1.1873366833,0.4817495346,-87.1780548096,-32.3369903564,217.4582824707
        2.5717618465,       -0.9869778156,1.1873366833,0.4817495346,-87.1780548096,-32.3369903564,217.4582824707
        2.5743329525,       -0.9869778156,1.1873366833,0.4817495346,-63.3590850830,-28.7664356232,235.5857238770
        2.5769109726,       -0.9869778156,1.1873366833,0.4817495346,-63.3590850830,-28.7664356232,235.5857238770
        2.5794880390,       -1.2081692219,1.0730788708,0.4353628159,-34.1232452393,-26.3860645294,246.4347229004
        2.5820560455,       -1.2081692219,1.0730788708,0.4353628159,-34.1232452393,-26.3860645294,246.4347229004
        2.5846350193,       -1.2081692219,1.0730788708,0.4353628159,-7.1304478645,-28.3391895294,252.4009094238
        2.5872049332,       -1.2081692219,1.0730788708,0.4436635971,-7.1304478645,-28.3391895294,252.4009094238
        2.5898389816,       -1.2169582844,1.0887038708,0.4436635971,-7.1304478645,-32.8710479736,262.6548156738
        2.5924098492,       -1.2169582844,1.0887038708,0.4436635971,17.3293914795,-32.8710479736,262.6548156738
        2.5949840546,       -1.2169582844,1.0887038708,0.4436635971,17.3293914795,-32.8710479736,276.3419494629
        2.5975589752,       -1.2169582844,0.7137038708,0.4309682846,35.8993377686,-34.4732208252,276.3419494629
        2.6002888680,       -1.1398098469,0.7483718395,0.4309682846,35.8993377686,-34.4732208252,283.5593566895
        2.6028628349,       -1.1398098469,0.7483718395,0.4309682846,49.1134490967,-32.1844024658,283.5593566895
        2.6054430008,       -1.1398098469,0.7483718395,0.4309682846,49.1134490967,-32.1844024658,287.4656066895
        2.6081869602,       -1.0148098469,0.4456374645,0.3552846909,57.2921600342,-29.0410938263,285.7413635254
        2.6107599735,       -1.0270168781,0.4456374645,0.3552846909,57.2921600342,-29.0410938263,285.7413635254
        2.6133420467,       -1.0270168781,0.4456374645,0.3552846909,56.2240447998,-24.0667285919,287.0536193848
        2.6159179211,       -1.0270168781,0.4456374645,0.3552846909,56.2240447998,-24.0667285919,287.0536193848
        2.6184940338,       -0.9117825031,0.3665359020,0.2791128159,47.4807586670,-17.0324268341,288.1980285645
        2.6210689545,       -0.9117825031,0.3665359020,0.2791128159,47.4807586670,-17.0324268341,288.1980285645
        2.6236460209,       -0.9117825031,0.3665359020,0.2791128159,35.3042449951,-11.4019336700,286.6416320801
        2.6262199879,       -0.9117825031,0.3665359020,0.2791128159,35.3042449951,-11.4019336700,286.6416320801
        2.6290009022,       -0.8522121906,0.2176101357,0.1585073620,22.1816864014,-7.9381885529,283.5898742676
        2.6317069530,       -0.8522121906,0.2176101357,0.1585073620,22.1816864014,-7.9381885529,283.5898742676
        2.6344170570,       -0.8522121906,0.2176101357,0.1585073620,10.1577606201,-5.3747119904,281.0721740723
        2.6371200085,       -0.8522121906,0.2176101357,0.1585073620,10.1577606201,-5.3747119904,281.0721740723
        2.6397709846,       -0.7355129719,0.0652663857,0.0945425183,-4.0786900520,-2.7196826935,277.2422180176
        2.6423439980,       -0.7355129719,0.0652663857,0.0945425183,-4.0786900520,-2.7196826935,277.2422180176
        2.6449120045,       -0.7355129719,0.0652663857,0.0945425183,-19.0323028564,-1.1480273008,270.8182678223
        2.6474900246,       -0.7355129719,0.0652663857,0.0945425183,-19.0323028564,-1.1480273008,270.8182678223
        2.6501929760,       -0.5060207844,-0.0670578331,0.0320425183,-32.4752960205,-0.8581103086,261.4035949707
        2.6529040337,       -0.5060207844,-0.0670578331,0.0320425183,-32.4752960205,-0.8581103086,261.4035949707
        2.6556110382,       -0.5060207844,-0.0670578331,0.0320425183,-44.2398223877,-1.8041552305,249.5017395020
        2.6583240032,       -0.5060207844,-0.1852218956,-0.0578012317,-44.2398223877,-1.8041552305,249.5017395020
        2.6610379219,       -0.1915676594,-0.1852218956,-0.0578012317,-52.6168975830,-2.9638233185,236.1502990723
        2.6637389660,       -0.1915676594,-0.1852218956,-0.0578012317,-52.6168975830,-2.9638233185,236.1502990723
        2.6665189266,       -0.1915676594,-0.1852218956,-0.0578012317,-56.9961700439,-4.6117725372,222.9514465332
        2.6696758270,        0.0999362469,-0.2609055042,-0.1212777942,-56.9961700439,-4.6117725372,222.9514465332
        2.6723799706,        0.0999362469,-0.2609055042,-0.1212777942,-57.6522979736,-7.2668018341,208.7912902832
        2.6750869751,        0.0999362469,-0.2609055042,-0.1212777942,-57.6522979736,-7.2668018341,208.7912902832
        2.6778030396,        0.0999362469,-0.2609055042,-0.1212777942,-54.6768341064,-9.2351856232,192.6322326660
        2.6805059910,        0.3606784344,-0.3746750355,-0.1456918567,-54.6768341064,-9.2351856232,192.6322326660
        2.6832180023,        0.3606784344,-0.3746750355,-0.1456918567,-49.2294464111,-11.5392627716,175.0693664551
        2.6859278679,        0.3606784344,-0.3746750355,-0.1456918567,-49.2294464111,-11.5392627716,175.0693664551
        2.6886448860,        0.3606784344,-0.5289719105,-0.1637582630,-43.6142120361,-13.1872119904,157.7048645020
        2.6912260056,        0.5789401531,-0.5289719105,-0.1637582630,-43.6142120361,-13.1872119904,157.7048645020
        2.6939089298,        0.5789401531,-0.5289719105,-0.1637582630,-41.2338409424,-12.8820362091,140.2335510254
        2.6964979172,        0.5789401531,-0.5289719105,-0.1637582630,-41.2338409424,-12.8820362091,140.2335510254
        2.6990840435,        0.5789401531,-0.6676437855,-0.1520395130,-42.9123077393,-12.2411670685,123.0979309082
        2.7016630173,        0.6516940594,-0.6676437855,-0.1520395130,-42.9123077393,-12.2411670685,123.0979309082
        2.7042510509,        0.6516940594,-0.6676437855,-0.1520395130,-46.8185577393,-11.6155567169,106.6642150879
        2.7068228722,        0.6516940594,-0.6676437855,-0.1520395130,-46.2082061768,-11.6155567169,106.6642150879
        2.7094469070,        0.6570651531,-0.7403976917,-0.1642465442,-46.2082061768,-11.6155567169,91.4512023926
        2.7120249271,        0.6570651531,-0.7403976917,-0.1642465442,-50.3585968018,-11.5240039825,91.4512023926
        2.7146029472,        0.6570651531,-0.7403976917,-0.1642465442,-50.3585968018,-11.5240039825,77.1537170410
        2.7171790600,        0.6570651531,-0.7403976917,-0.1642465442,-55.3329620361,-10.8068408966,77.1537170410
        2.7199008465,        0.6971042156,-0.7452805042,-0.1515512317,-55.3329620361,-10.8068408966,62.7646789551
        2.7224810123,        0.6971042156,-0.7452805042,-0.1515512317,-62.1383819580,-11.4171924591,62.7646789551
        2.7250640392,        0.6971042156,-0.7452805042,-0.1515512317,-62.1383819580,-11.4171924591,62.7646789551
        2.7276380062,        0.6971042156,-0.7452805042,-0.1515512317,-67.4179229736,-12.6073780060,47.4295959473
        2.7304248810,        0.7713229656,-0.7057297230,-0.1544809192,-67.4179229736,-12.6073780060,47.4295959473
        2.7331299782,        0.7713229656,-0.7057297230,-0.1544809192,-68.8217315674,-13.3703174591,31.6367492676
        2.7358398438,        0.7713229656,-0.7057297230,-0.1544809192,-68.8217315674,-13.3703174591,16.0117492676
        2.7386908531,        0.7713229656,-0.7057297230,-0.1857309192,-66.8228302002,-12.4547901154,16.4389953613
        2.7412698269,        0.7864596844,-0.6251633167,-0.1857309192,-66.8228302002,-12.4547901154,16.4389953613
        2.7438440323,        0.7864596844,-0.6251633167,-0.1857309192,-62.1231231689,-11.0967578888,1.0123605728
        2.7464170456,        0.7864596844,-0.6251633167,-0.1857309192,-62.1231231689,-11.0967578888,1.0123605728
        2.7490918636,        0.7864596844,-0.6251633167,-0.2130746692,-57.8964385986,-8.6553516388,-15.3145437241
        2.7517960072,        0.8035495281,-0.6056320667,-0.2130746692,-57.8964385986,-8.6553516388,-15.3145437241
        2.7545080185,        0.8035495281,-0.6056320667,-0.2130746692,-55.5923614502,-5.5578174591,-31.1226501465
        2.7573258877,        0.8035495281,-0.6056320667,-0.2130746692,-55.5923614502,-5.5578174591,-31.1226501465
        2.7600839138,        0.8274753094,-0.6251633167,-0.2301645130,-54.1275177002,-2.9485645294,-46.5187683105
        2.7627990246,        0.8274753094,-0.6251633167,-0.2301645130,-54.1275177002,-2.9485645294,-46.5187683105
        2.7655060291,        0.8274753094,-0.6251633167,-0.2301645130,-53.7155303955,-0.6597460508,-61.6097106934
        2.7682149410,        0.8274753094,-0.6251633167,-0.2301645130,-53.7155303955,-0.6597460508,-61.6097106934
        2.7709228992,        0.8020846844,-0.5958664417,-0.2555551529,-53.7765655518,2.4377880096,-76.4565124512
        2.7736258507,        0.8020846844,-0.5958664417,-0.2555551529,-53.7765655518,2.4377880096,-76.4565124512
        2.7763400078,        0.8020846844,-0.5958664417,-0.2555551529,-53.3645782471,6.1609325409,-89.9910583496
        2.7790880203,        0.8020846844,-0.5958664417,-0.2467660755,-53.3645782471,6.1609325409,-89.9910583496
        2.7817959785,        0.7459323406,-0.5392258167,-0.2467660755,-51.7929229736,9.2279491425,-102.4727478027
        2.7846519947,        0.7459323406,-0.5392258167,-0.2467660755,-51.7929229736,9.2279491425,-102.4727478027
        2.7877948284,        0.7459323406,-0.5392258167,-0.2467660755,-49.8550567627,12.4017772675,-114.8323669434
        2.7903850079,        0.7185885906,-0.4762375355,-0.2252817005,-49.8550567627,12.4017772675,-114.8323669434
        2.7929680347,        0.7185885906,-0.4762375355,-0.2252817005,-47.2000274658,15.6518993378,-125.9865417480
        2.7955470085,        0.7185885906,-0.4762375355,-0.2252817005,-47.2000274658,15.6518993378,-125.9865417480
        2.7981438637,        0.7185885906,-0.4762375355,-0.2252817005,-42.9886016846,19.1156444550,-137.1101989746
        2.8008499146,        0.6975924969,-0.3912765980,-0.2037973255,-42.9886016846,19.1156444550,-137.1101989746
        2.8035619259,        0.6975924969,-0.3912765980,-0.2037973255,-38.3346710205,22.9150829315,-147.9591979980
        2.8062658310,        0.6975924969,-0.3912765980,-0.2037973255,-38.3346710205,22.9150829315,-147.9591979980
        2.8089890480,        0.6975924969,-0.3912765980,-0.2037973255,-32.5821075439,26.4551219940,-157.9079284668
        2.8116939068,        0.6971042156,-0.3165695667,-0.1803598255,-32.5821075439,26.4551219940,-157.9079284668
        2.8144040108,        0.6971042156,-0.3165695667,-0.1803598255,-25.3952178955,29.4916210175,-167.4599304199
        2.8171238899,        0.6971042156,-0.3165695667,-0.1803598255,-25.3952178955,29.4916210175,-167.4599304199
        2.8197989464,        0.6971042156,-0.1915695518,-0.1837777942,-17.7047882080,31.9788036346,-175.7912292480
        2.8224890232,        0.7073581219,-0.2560226917,-0.1837777942,-17.7047882080,31.9788036346,-175.7912292480
        2.8250749111,        0.7073581219,-0.2560226917,-0.1837777942,-10.8078155518,35.3815155029,-183.7257995605
        2.8276519775,        0.7073581219,-0.2560226917,-0.1837777942,-10.8078155518,35.3815155029,-183.7257995605
        2.8303239346,        0.5823581219,-0.1735031456,-0.1251840442,-3.1326451302,38.3722381592,-190.3481140137
        2.8329019547,        0.6707370281,-0.1735031456,-0.1251840442,-3.1326451302,38.3722381592,-190.3481140137
        2.8354799747,        0.6707370281,-0.1735031456,-0.1251840442,5.6106410027,40.2795867920,-196.7415466309
        2.8382010460,        0.6707370281,-0.1735031456,-0.1251840442,5.6106410027,40.2795867920,-196.7415466309
        2.8407788277,        0.6634128094,-0.1266281456,-0.1256723255,14.2471160889,42.3852996826,-202.5246276855
        2.8433568478,        0.6634128094,-0.1266281456,-0.1256723255,14.2471160889,42.3852996826,-202.5246276855
        2.8459360600,        0.6634128094,-0.1266281456,-0.1256723255,20.1522674561,43.7280731201,-206.4461364746
        2.8485589027,        0.6634128094,-0.1266281456,-0.1256723255,20.1522674561,43.7280731201,-206.4461364746
        2.8512718678,        0.6302096844,-0.0763351768,-0.1115121692,25.0961151123,45.2234344482,-209.1316833496
        2.8540470600,        0.6302096844,-0.0763351768,-0.1115121692,25.0961151123,45.2234344482,-209.1316833496
        2.8566248417,        0.6302096844,-0.0763351768,-0.1115121692,25.0961151123,45.9558563232,-211.2831726074
        2.8594169617,        0.6302096844,-0.0763351768,-0.1115121692,26.1031951904,45.9558563232,-211.2831726074
        2.8620889187,        0.6057956219,-0.0192062706,-0.1398324817,22.1969451904,46.3068084717,-212.0613708496
        2.8650009632,        0.6057956219,-0.0192062706,-0.1398324817,22.0748748779,46.3068084717,-212.0613708496
