time, acceleration x, acceleration y, acceleration z, gyro x gyro y, gyro z
        0.0000000000,        0.0182738900,-0.0295165628,-0.0372951701,-6.9983911514,5.6734256744,-22.6875038147
        0.0025520325,        0.0182738900,-0.0295165628,-0.0372951701,-6.8000268936,5.4750614166,-22.3365516663
        0.0051069260,        0.0182738900,-0.0295165628,-0.0304592326,-6.8000268936,5.4750614166,-22.3365516663
        0.0077021122,        0.0119262338,-0.0329345316,-0.0304592326,-6.9526147842,5.2614383698,-22.3670692444
        0.0102589130,        0.0119262338,-0.0329345316,-0.0304592326,-6.9526147842,5.2614383698,-22.3670692444
        0.0128109455,        0.0119262338,-0.0329345316,-0.0304592326,-6.9526147842,5.4140262604,-22.7943153381
        0.0153710842,        0.0119262338,-0.0329345316,-0.0372951701,-7.2730493546,5.4140262604,-22.7943153381
        0.0179641247,        0.0070434213,-0.0314696878,-0.0372951701,-7.2730493546,5.4140262604,-23.0231971741
        0.0205249786,        0.0070434213,-0.0314696878,-0.0372951701,-7.1814966202,5.4598026276,-23.0231971741
        0.0230801105,        0.0070434213,-0.0314696878,-0.0372951701,-7.1814966202,5.4598026276,-23.0079383850
        0.0256330967,        0.0070434213,-0.0295165628,-0.0236232951,-6.5711450577,5.2004032135,-23.0079383850
        0.0284819603,        0.0089965463,-0.0295165628,-0.0236232951,-6.5711450577,5.2004032135,-22.6569862366
        0.0310380459,        0.0089965463,-0.0295165628,-0.0236232951,-6.8763208389,5.4292850494,-22.6569862366
        0.0335960388,        0.0089965463,-0.0295165628,-0.0236232951,-6.8763208389,5.4292850494,-22.6569862366
        0.0361640453,        0.0089965463,-0.0270751566,-0.0358303264,-7.0746850967,5.2614383698,-22.4433631897
        0.0389239788,        0.0148559213,-0.0270751566,-0.0358303264,-7.0746850967,5.2614383698,-22.4433631897
        0.0414938927,        0.0148559213,-0.0270751566,-0.0358303264,-6.7542505264,5.1241092682,-22.6875038147
        0.0440549850,        0.0148559213,-0.0270751566,-0.0358303264,-6.7542505264,5.1241092682,-22.6875038147
        0.0466179848,        0.0089965463,-0.0339110941,-0.0329006389,-6.4948511124,5.5360965729,-22.6875038147
        0.0491909981,        0.0089965463,-0.0339110941,-0.0329006389,-6.4948511124,5.5360965729,-22.6875038147
        0.0519149303,        0.0089965463,-0.0339110941,-0.0329006389,-6.3270044327,5.5208377838,-22.9011268616
        0.0544769764,        0.0089965463,-0.0339110941,-0.0329006389,-6.3270044327,5.5208377838,-22.9011268616
        0.0570409298,        0.0158324838,-0.0343993753,-0.0343654826,-6.2049341202,4.8952274323,-23.2215614319
        0.0596120358,        0.0158324838,-0.0343993753,-0.0343654826,-6.2049341202,4.8952274323,-23.2215614319
        0.0621850491,        0.0158324838,-0.0343993753,-0.0343654826,-6.7389917374,5.2156620026,-23.0537147522
        0.0647470951,        0.0158324838,-0.0343993753,-0.0343654826,-6.7389917374,5.2156620026,-23.0537147522
        0.0673079491,        0.0046020150,-0.0358642191,-0.0289943889,-6.2354516983,5.0783329010,-22.8095741272
        0.0699100494,        0.0046020150,-0.0358642191,-0.0289943889,-6.2354516983,5.0783329010,-22.8095741272
        0.0724740028,        0.0046020150,-0.0358642191,-0.0289943889,-6.2354516983,4.9257450104,-22.8400917053
        0.0750360489,        0.0046020150,-0.0358642191,-0.0289943889,-6.3880395889,4.9257450104,-22.8400917053
        0.0776081085,        0.0089965463,-0.0324462503,-0.0412014201,-6.3880395889,4.9257450104,-22.8553504944
        0.0801799297,        0.0089965463,-0.0324462503,-0.0412014201,-6.5101099014,5.1088504791,-22.8553504944
        0.0827450752,        0.0089965463,-0.0324462503,-0.0412014201,-6.5101099014,5.1088504791,-22.7027626038
        0.0853860378,        0.0089965463,-0.0324462503,-0.0412014201,-6.9373559952,5.2004032135,-22.7027626038
        0.0880250931,        0.0070434213,-0.0319579691,-0.0363186076,-6.9373559952,5.2004032135,-22.7027626038
        0.0906059742,        0.0070434213,-0.0319579691,-0.0363186076,-7.4103784561,5.1241092682,-22.7637977600
        0.0931799412,        0.0070434213,-0.0319579691,-0.0363186076,-7.4103784561,5.1241092682,-22.7637977600
        0.0958819389,        0.0070434213,-0.0319579691,-0.0363186076,-7.0441675186,5.1851444244,-22.9011268616
        0.0992169380,        0.0163207650,-0.0329345316,-0.0319240764,-7.0441675186,5.1851444244,-22.8248329163
        0.1017830372,        0.0163207650,-0.0329345316,-0.0319240764,-7.1509790421,5.0325565338,-22.8248329163
        0.1043510437,        0.0163207650,-0.0329345316,-0.0319240764,-7.1509790421,5.0325565338,-22.8248329163
        0.1069080830,        0.0109496713,-0.0358642191,-0.0343654826,-7.0899438858,5.1393680573,-22.8706092834
        0.1095240116,        0.0109496713,-0.0358642191,-0.0343654826,-7.0899438858,5.1393680573,-22.8706092834
        0.1120800972,        0.0109496713,-0.0358642191,-0.0343654826,-7.0746850967,5.4750614166,-23.0079383850
        0.1147499084,        0.0109496713,-0.0358642191,-0.0343654826,-7.0746850967,5.4750614166,-23.0079383850
        0.1173169613,        0.0133910775,-0.0319579691,-0.0309475139,-6.9526147842,5.4445438385,-22.7943153381
        0.1199080944,        0.0133910775,-0.0319579691,-0.0309475139,-6.9526147842,5.4445438385,-22.7943153381
        0.1224660873,        0.0133910775,-0.0319579691,-0.0309475139,-7.0441675186,5.2766971588,-22.7332801819
        0.1250379086,        0.0133910775,-0.0319579691,-0.0309475139,-7.0441675186,5.2766971588,-22.7332801819
        0.1275980473,        0.0133910775,-0.0353759378,-0.0324123576,-6.9068384171,5.3072147369,-22.9316444397
        0.1301670074,        0.0133910775,-0.0353759378,-0.0324123576,-6.9068384171,5.3072147369,-22.9316444397
        0.1327230930,        0.0133910775,-0.0353759378,-0.0324123576,-7.1662378311,4.9562625885,-22.9316444397
        0.1352910995,        0.0133910775,-0.0353759378,-0.0324123576,-7.1662378311,4.9562625885,-22.9316444397
        0.1379339695,        0.0158324838,-0.0329345316,-0.0265529826,-3.2599878311,4.8494510651,-22.7943153381
        0.1404991150,        0.0158324838,-0.0329345316,-0.0265529826,-6.8152856827,4.8494510651,-22.7943153381
        0.1430699825,        0.0158324838,-0.0329345316,-0.0265529826,-6.8152856827,4.8494510651,-22.5959510803
        0.1456410885,        0.0158324838,-0.0329345316,-0.0265529826,-6.6016626358,4.7884159088,-22.5959510803
        0.1483049393,        0.0124145150,-0.0353759378,-0.0377834514,-6.6016626358,4.7884159088,-22.8858680725
        0.1508779526,        0.0124145150,-0.0353759378,-0.0377834514,-6.4490747452,4.7273807526,-22.8858680725
        0.1534450054,        0.0124145150,-0.0353759378,-0.0377834514,-6.4490747452,4.7273807526,-22.8858680725
        0.1560130119,        0.0124145150,-0.0353759378,-0.0377834514,-6.2354516983,4.6510868073,-22.9316444397
        0.1591150761,        0.0119262338,-0.0363525003,-0.0319240764,-10.1417016983,4.7578983307,-22.7943153381
        0.1628150940,        0.0119262338,-0.0363525003,-0.0319240764,-7.0594263077,4.7578983307,-22.7943153381
        0.1661939621,        0.0119262338,-0.0363525003,-0.0319240764,-7.7613306046,5.3835086823,-22.7485389709
        0.1688470840,        0.0114379525,-0.0353759378,-0.0358303264,-7.7613306046,5.3835086823,-22.7485389709
        0.1714119911,        0.0114379525,-0.0353759378,-0.0358303264,-7.7918481827,5.3987674713,-22.7332801819
        0.1739799976,        0.0114379525,-0.0353759378,-0.0358303264,-7.7918481827,5.3987674713,-22.7332801819
        0.1765470505,        0.0114379525,-0.0353759378,-0.0358303264,-7.6545190811,5.1241092682,-22.8095741272
        0.1793770790,        0.0070434213,-0.0295165628,-0.0353420451,-7.6545190811,5.1241092682,-22.8095741272
        0.1820809841,        0.0070434213,-0.0295165628,-0.0353420451,-7.3340845108,5.2614383698,-22.9774208069
        0.1847789288,        0.0070434213,-0.0295165628,-0.0353420451,-7.3340845108,5.2614383698,-22.9774208069
        0.1874799728,        0.0070434213,-0.0300048441,-0.0285061076,-7.1052026749,5.0020389557,-23.1605262756
        0.1900711060,        0.0109496713,-0.0300048441,-0.0285061076,-7.1052026749,5.0020389557,-23.1605262756
        0.1926379204,        0.0109496713,-0.0300048441,-0.0285061076,-7.1967554092,5.5513553619,-23.1452674866
        0.1952080727,        0.0109496713,-0.0300048441,-0.0285061076,-7.1967554092,5.5513553619,-23.1452674866
        0.1978850365,        0.0119262338,-0.0309814066,-0.0377834514,-7.1967554092,4.9257450104,-22.9316444397
        0.2004630566,        0.0119262338,-0.0309814066,-0.0377834514,-7.1967554092,4.9257450104,-22.9316444397
        0.2030420303,        0.0119262338,-0.0309814066,-0.0377834514,-7.1967554092,5.0935916901,-23.0842323303
        0.2056069374,        0.0119262338,-0.0309814066,-0.0377834514,-6.5101099014,5.0935916901,-23.0842323303
        0.2082428932,        0.0060668588,-0.0329345316,-0.0221584514,-6.5101099014,8.9998416901,-22.7943153381
        0.2109498978,        0.0060668588,-0.0329345316,-0.0221584514,-7.1509790421,5.5055789948,-22.7943153381
        0.2136929035,        0.0060668588,-0.0329345316,-0.0221584514,-7.1509790421,5.5055789948,-22.9011268616
        0.2164978981,        0.0060668588,-0.0329345316,-0.0221584514,-7.2730493546,5.2919559479,-22.9011268616
        0.2191390991,        0.0119262338,-0.0329345316,-0.0431545451,-7.2730493546,5.2919559479,-23.5114784241
        0.2217009068,        0.0119262338,-0.0329345316,-0.0431545451,-6.5253686905,5.2461795807,-23.5114784241
        0.2242689133,        0.0119262338,-0.0329345316,-0.0431545451,-6.5253686905,5.2461795807,-23.5114784241
        0.2268331051,        0.0119262338,-0.0329345316,-0.0431545451,-6.6779565811,5.1393680573,-23.1910438538
        0.2294950485,        0.0124145150,-0.0319579691,-0.0270412639,-6.6779565811,5.1393680573,-23.1910438538
        0.2321949005,        0.0124145150,-0.0319579691,-0.0270412639,-6.6169214249,5.0783329010,-23.4046669006
        0.2348930836,        0.0124145150,-0.0319579691,-0.0270412639,-6.6169214249,5.0783329010,-23.4046669006
        0.2375869751,        0.0124145150,-0.0319579691,-0.0324123576,-6.8610620499,5.0325565338,-23.1757850647
        0.2402899265,        0.0143676400,-0.0329345316,-0.0324123576,-6.8610620499,5.0325565338,-23.1757850647
        0.2430949211,        0.0143676400,-0.0329345316,-0.0324123576,-7.1662378311,5.4750614166,-23.2063026428
        0.2457959652,        0.0143676400,-0.0329345316,-0.0324123576,-7.1662378311,5.4750614166,-23.2063026428
        0.2484569550,        0.0163207650,-0.0319579691,-0.0358303264,-6.9526147842,5.7039432526,-23.2978553772
        0.2510199547,        0.0163207650,-0.0319579691,-0.0358303264,-6.9526147842,5.7039432526,-23.2978553772
        0.2535820007,        0.0163207650,-0.0319579691,-0.0358303264,-6.8915796280,5.2766971588,-23.2825965881
        0.2561440468,        0.0163207650,-0.0319579691,-0.0358303264,-6.8915796280,5.2766971588,-23.2825965881
        0.2588610649,        0.0109496713,-0.0339110941,-0.0343654826,-7.1509790421,5.1393680573,-23.3741493225
        0.2614309788,        0.0109496713,-0.0339110941,-0.0343654826,-7.1509790421,5.1393680573,-23.3741493225
        0.2639949322,        0.0109496713,-0.0339110941,-0.0343654826,-7.1052026749,4.9562625885,-23.4962196350
        0.2665591240,        0.0109496713,-0.0339110941,-0.0343654826,-7.1052026749,4.9562625885,-23.4962196350
        0.2692480087,        0.0094848275,-0.0363525003,-0.0309475139,-6.8305444717,5.1088504791,-23.6640663147
        0.2718119621,        0.0094848275,-0.0363525003,-0.0309475139,-6.8305444717,5.1088504791,-23.6640663147
        0.2743809223,        0.0094848275,-0.0363525003,-0.0309475139,-6.9678735733,5.0172977448,-23.7708778381
        0.2769439220,        0.0094848275,-0.0363525003,-0.0309475139,-6.9678735733,5.0172977448,-23.7708778381
        0.2796239853,        0.0104613900,-0.0304931253,-0.0294826701,-7.1814966202,5.0783329010,-23.5725135803
        0.2823159695,        0.0104613900,-0.0304931253,-0.0294826701,-7.1814966202,5.0783329010,-23.5725135803
        0.2850160599,        0.0104613900,-0.0304931253,-0.0294826701,-7.2272729874,5.3377323151,-23.2978553772
        0.2875869274,        0.0104613900,-0.0304931253,-0.0294826701,-7.2272729874,5.3377323151,-23.2978553772
        0.2902889252,        0.0099731088,-0.0348876566,-0.0275295451,-7.2272729874,5.6123905182,-23.4657020569
        0.2930390835,        0.0099731088,-0.0348876566,-0.0275295451,-7.1052026749,5.6123905182,-23.4657020569
        0.2957069874,        0.0099731088,-0.0348876566,-0.0275295451,-7.1052026749,5.0478153229,-23.8013954163
        0.2984850407,        0.0099731088,-0.0319579691,-0.0377834514,-7.1357202530,5.0478153229,-23.8013954163
        0.3010520935,        0.0124145150,-0.0319579691,-0.0377834514,-7.1357202530,5.2004032135,-23.4504432678
        0.3036139011,        0.0124145150,-0.0319579691,-0.0377834514,-7.1967554092,5.2004032135,-23.4504432678
        0.3062810898,        0.0124145150,-0.0319579691,-0.0377834514,-7.1967554092,5.2004032135,-23.3131141663
        0.3088529110,        0.0124145150,-0.0392821878,-0.0172756389,-7.2730493546,5.2004032135,-23.3131141663
        0.3114180565,        0.0094848275,-0.0392821878,-0.0172756389,-7.2730493546,5.2004032135,-23.4046669006
        0.3139820099,        0.0094848275,-0.0392821878,-0.0172756389,-7.3340845108,5.2004032135,-23.4046669006
        0.3165419102,        0.0094848275,-0.0392821878,-0.0172756389,-7.3340845108,5.2004032135,-23.4046669006
        0.3191490173,        0.0119262338,-0.0363525003,-0.0392482951,-7.5629663467,5.3072147369,-23.4657020569
        0.3217170238,        0.0119262338,-0.0363525003,-0.0392482951,-7.5629663467,5.3072147369,-23.4657020569
        0.3242781162,        0.0119262338,-0.0363525003,-0.0392482951,-6.9373559952,5.0630741119,-23.4962196350
        0.3268380165,        0.0119262338,-0.0363525003,-0.0392482951,-6.9373559952,5.0630741119,-23.4962196350
        0.3294129372,        0.0065551400,-0.0353759378,-0.0314357951,-6.9373559952,5.0172977448,-23.1452674866
        0.3319759369,        0.0065551400,-0.0353759378,-0.0314357951,-6.9373559952,5.0172977448,-23.1452674866
        0.3345379829,        0.0065551400,-0.0353759378,-0.0314357951,-7.5934839249,5.2156620026,-23.0994911194
        0.3371040821,        0.0065551400,-0.0353759378,-0.0314357951,-7.5934839249,5.2156620026,-23.0994911194
        0.3397140503,        0.0133910775,-0.0441650003,-0.0294826701,-7.6850366592,5.3682498932,-23.0842323303
        0.3422789574,        0.0133910775,-0.0441650003,-0.0294826701,-7.6850366592,5.3682498932,-23.0842323303
        0.3448359966,        0.0133910775,-0.0441650003,-0.0294826701,-7.6850366592,5.4292850494,-23.3131141663
        0.3473980427,        0.0133910775,-0.0441650003,-0.0294826701,-7.1052026749,5.4292850494,-23.3131141663
        0.3501060009,        0.0070434213,-0.0397704691,-0.0338772014,-7.1052026749,5.0783329010,-23.6030311584
        0.3526670933,        0.0070434213,-0.0397704691,-0.0338772014,-7.2272729874,5.0783329010,-23.6030311584
        0.3552429676,        0.0070434213,-0.0397704691,-0.0338772014,-7.2272729874,5.0783329010,-23.2673377991
        0.3579230309,        0.0070434213,-0.0397704691,-0.0338772014,-7.2730493546,5.0020389557,-23.2673377991
        0.3606390953,        0.0129027963,-0.0348876566,-0.0490139201,-7.2730493546,5.0020389557,-23.0537147522
        0.3633430004,        0.0129027963,-0.0348876566,-0.0490139201,-7.4561548233,5.1851444244,-23.0537147522
        0.3660390377,        0.0129027963,-0.0348876566,-0.0490139201,-7.4561548233,5.1851444244,-23.4199256897
        0.3688321114,        0.0129027963,-0.0348876566,-0.0329006389,-7.5934839249,5.0478153229,-23.4199256897
        0.3713989258,        0.0148559213,-0.0334228128,-0.0329006389,-7.5934839249,5.0478153229,-23.4351844788
        0.3739640713,        0.0148559213,-0.0334228128,-0.0329006389,-6.9373559952,4.9867801666,-23.4351844788
        0.3765380383,        0.0148559213,-0.0334228128,-0.0329006389,-6.9373559952,4.9867801666,-23.4351844788
        0.3792150021,        0.0148559213,-0.0441650003,-0.0314357951,-6.7084741592,4.9257450104,-23.2825965881
        0.3819129467,        0.0050902963,-0.0441650003,-0.0314357951,-6.7084741592,4.9257450104,-23.2825965881
        0.3846130371,        0.0050902963,-0.0441650003,-0.0314357951,-7.0746850967,5.1698856354,-23.0994911194
        0.3874850273,        0.0050902963,-0.0441650003,-0.0314357951,-7.0746850967,5.1698856354,-23.2368202209
        0.3903150558,        0.0148559213,-0.0319579691,-0.0416897014,-7.3951196671,5.1698856354,-23.2368202209
        0.3935389519,        0.0148559213,-0.0319579691,-0.0416897014,-7.3951196671,5.5818729401,-22.9163856506
        0.3961050510,        0.0148559213,-0.0319579691,-0.0416897014,-7.0746850967,5.5818729401,-22.9163856506
        0.3987519741,        0.0148559213,-0.0319579691,-0.0416897014,-7.0746850967,5.5818729401,-23.0537147522
        0.4013099670,        0.0187621713,-0.0348876566,-0.0333889201,-6.8458032608,5.1698856354,-23.0537147522
        0.4038701057,        0.0187621713,-0.0348876566,-0.0333889201,-6.8458032608,5.1698856354,-23.0537147522
        0.4064331055,        0.0187621713,-0.0348876566,-0.0333889201,-7.5934839249,5.5208377838,-23.0079383850
        0.4089980125,        0.0187621713,-0.0348876566,-0.0333889201,-7.5934839249,5.5208377838,-23.0079383850
        0.4115641117,        0.0099731088,-0.0319579691,-0.0333889201,-7.4866724014,5.2309207916,-22.8706092834
        0.4141290188,        0.0099731088,-0.0319579691,-0.0333889201,-7.4866724014,5.2309207916,-22.8706092834
        0.4166879654,        0.0099731088,-0.0319579691,-0.0333889201,-7.5019311905,4.9562625885,-23.1452674866
        0.4193050861,        0.0099731088,-0.0319579691,-0.0309475139,-7.5019311905,4.9562625885,-23.1452674866
        0.4218640327,        0.0124145150,-0.0441650003,-0.0309475139,-7.4561548233,5.0478153229,-23.0079383850
        0.4244270325,        0.0124145150,-0.0441650003,-0.0309475139,-7.4561548233,5.0478153229,-23.0079383850
        0.4269890785,        0.0124145150,-0.0441650003,-0.0309475139,-6.8610620499,4.9257450104,-23.2215614319
        0.4295580387,        0.0124145150,-0.0441650003,-0.0329006389,-6.8610620499,4.9257450104,-23.2215614319
        0.4321200848,        0.0060668588,-0.0392821878,-0.0329006389,-6.9068384171,4.8647098541,-22.9926795959
        0.4347820282,        0.0060668588,-0.0392821878,-0.0329006389,-6.9068384171,4.8647098541,-22.9926795959
        0.4373519421,        0.0060668588,-0.0392821878,-0.0329006389,-7.0899438858,5.2461795807,-23.0537147522
        0.4400179386,        0.0060668588,-0.0334228128,-0.0402248576,-7.0899438858,5.2461795807,-23.0537147522
        0.4425890446,        0.0129027963,-0.0334228128,-0.0402248576,-7.0899438858,4.6663455963,-23.1147499084
        0.4451580048,        0.0129027963,-0.0334228128,-0.0402248576,-6.9526147842,4.6663455963,-23.1147499084
        0.4478209019,        0.0129027963,-0.0334228128,-0.0402248576,-6.9526147842,4.6663455963,-23.2063026428
        0.4505200386,        0.0104613900,-0.0363525003,-0.0324123576,-6.7237329483,4.7273807526,-23.2063026428
        0.4532170296,        0.0104613900,-0.0363525003,-0.0324123576,-6.7237329483,4.7273807526,-23.3436317444
        0.4559121132,        0.0104613900,-0.0363525003,-0.0324123576,-7.1662378311,5.2309207916,-23.3436317444
        0.4586250782,        0.0104613900,-0.0363525003,-0.0324123576,-7.1662378311,9.1371707916,-23.1757850647
        0.4613230228,        0.0129027963,-0.0383056253,-0.0280178264,-7.3798608780,5.2919559479,-23.1757850647
        0.4640209675,        0.0129027963,-0.0383056253,-0.0280178264,-7.3798608780,1.3857059479,-22.9163856506
        0.4667170048,        0.0129027963,-0.0383056253,-0.0280178264,-7.3035669327,4.9562625885,-22.9163856506
        0.4693470001,        0.0129027963,-0.0383056253,-0.0280178264,-7.3035669327,4.9562625885,-22.7332801819
        0.4719109535,        0.0094848275,-0.0353759378,-0.0382717326,-6.4795923233,4.9410037994,-22.7332801819
        0.4744811058,        0.0094848275,-0.0353759378,-0.0382717326,-6.4795923233,4.9410037994,-22.7332801819
        0.4770460129,        0.0094848275,-0.0353759378,-0.0382717326,-6.8458032608,4.9257450104,-22.7485389709
        0.4796190262,        0.0094848275,-0.0353759378,-0.0382717326,-6.8458032608,4.9257450104,-22.7485389709
        0.4821839333,        0.0085082650,-0.0329345316,-0.0372951701,-7.2883081436,5.2766971588,-22.9621620178
        0.4847490788,        0.0085082650,-0.0329345316,-0.0372951701,-7.2883081436,5.2766971588,-22.9621620178
        0.4873158932,        0.0085082650,-0.0329345316,-0.0372951701,-6.9373559952,5.0630741119,-23.0689735413
        0.4900341034,        0.0085082650,-0.0329345316,-0.0441311076,-6.9373559952,5.0630741119,-23.0689735413
        0.4927320480,        0.0114379525,-0.0402587503,-0.0441311076,-6.9373559952,4.4984989166,-23.2978553772
        0.4954268932,        0.0114379525,-0.0402587503,-0.0441311076,-6.9373559952,4.4984989166,-23.2978553772
        0.4982719421,        0.0114379525,-0.0402587503,-0.0441311076,-7.1814966202,5.1393680573,-22.8248329163
        0.5009739399,        0.0129027963,-0.0407470316,-0.0309475139,-7.1814966202,5.1393680573,-22.8248329163
        0.5037128925,        0.0129027963,-0.0407470316,-0.0309475139,-6.7542505264,5.0630741119,-23.0384559631
        0.5064508915,        0.0129027963,-0.0407470316,-0.0309475139,-6.7542505264,5.0630741119,-23.0384559631
        0.5092000961,        0.0129027963,-0.0407470316,-0.0309475139,-6.9983911514,5.2461795807,-22.9926795959
        0.5118999481,        0.0148559213,-0.0343993753,-0.0260647014,-6.9983911514,5.2461795807,-22.9926795959
        0.5145959854,        0.0148559213,-0.0343993753,-0.0260647014,-6.9831323624,4.8647098541,-22.8400917053
        0.5173039436,        0.0148559213,-0.0343993753,-0.0260647014,-6.9831323624,4.8647098541,-22.8400917053
        0.5199000835,        0.0148559213,-0.0343993753,-0.0260647014,-6.9983911514,4.9104862213,-22.8706092834
        0.5224630833,        0.0099731088,-0.0383056253,-0.0441311076,-6.9983911514,4.9104862213,-22.8706092834
        0.5250310898,        0.0099731088,-0.0383056253,-0.0441311076,-7.2120141983,5.0935916901,-22.5196571350
        0.5275940895,        0.0099731088,-0.0383056253,-0.0441311076,-7.2120141983,5.0935916901,-22.5196571350
        0.5303020477,        0.0099731088,-0.0383056253,-0.0304592326,-7.3951196671,5.4445438385,-22.6875038147
        0.5330040455,        0.0109496713,-0.0387939066,-0.0304592326,-7.3951196671,5.4445438385,-22.6875038147
        0.5357010365,        0.0109496713,-0.0387939066,-0.0304592326,-7.5324487686,5.2919559479,-22.5349159241
        0.5383861065,        0.0109496713,-0.0387939066,-0.0304592326,-7.5324487686,5.2919559479,-22.5349159241
        0.5409510136,        0.0109496713,-0.0373290628,-0.0329006389,-7.1357202530,5.0478153229,-22.5196571350
        0.5435190201,        0.0070434213,-0.0373290628,-0.0329006389,-7.1357202530,5.0478153229,-22.5196571350
        0.5460920334,        0.0070434213,-0.0373290628,-0.0329006389,-7.1357202530,5.0935916901,-22.3975868225
        0.5486810207,        0.0070434213,-0.0373290628,-0.0329006389,-7.4103784561,5.0935916901,-22.3975868225
        0.5512518883,        0.0070434213,-0.0368407816,-0.0382717326,-7.4103784561,8.9998416901,-22.3975868225
        0.5538148880,        0.0163207650,-0.0368407816,-0.0382717326,-7.1967554092,5.3224735260,-22.3975868225
        0.5563800335,        0.0163207650,-0.0368407816,-0.0382717326,-7.1967554092,5.3224735260,-22.7027626038
        0.5591189861,        0.0163207650,-0.0368407816,-0.0382717326,-7.2120141983,5.1851444244,-22.7027626038
        0.5619199276,        0.0085082650,-0.0319579691,-0.0372951701,-7.2120141983,5.1851444244,-22.6112098694
        0.5646159649,        0.0085082650,-0.0319579691,-0.0372951701,-7.2577905655,5.1241092682,-22.6112098694
        0.5673179626,        0.0085082650,-0.0319579691,-0.0372951701,-7.2577905655,5.1241092682,-22.7637977600
        0.5699160099,        0.0085082650,-0.0319579691,-0.0372951701,-7.0746850967,4.9562625885,-22.7637977600
        0.5724880695,        0.0114379525,-0.0412353128,-0.0397365764,-7.0746850967,4.9562625885,-22.7637977600
        0.5750539303,        0.0114379525,-0.0412353128,-0.0397365764,-7.1967554092,5.1546268463,-22.6417274475
        0.5776228905,        0.0114379525,-0.0412353128,-0.0397365764,-7.1967554092,5.1546268463,-22.6417274475
        0.5803699493,        0.0114379525,-0.0412353128,-0.0397365764,-7.3951196671,5.1088504791,-22.7332801819
        0.5830659866,        0.0099731088,-0.0343993753,-0.0377834514,-7.3951196671,5.1088504791,-22.7332801819
        0.5857610703,        0.0099731088,-0.0343993753,-0.0377834514,-7.3493432999,5.0325565338,-22.6112098694
        0.5884559155,        0.0099731088,-0.0343993753,-0.0377834514,-7.3493432999,5.0325565338,-22.6112098694
        0.5910239220,        0.0099731088,-0.0343993753,-0.0387600139,-7.1052026749,4.8494510651,-22.6264686584
        0.5937340260,        0.0138793588,-0.0363525003,-0.0387600139,-7.1052026749,4.8494510651,-22.6264686584
        0.5963001251,        0.0138793588,-0.0363525003,-0.0387600139,-7.4866724014,5.5055789948,-22.8400917053
        0.5990610123,        0.0138793588,-0.0363525003,-0.0387600139,-7.4866724014,5.5055789948,-22.8400917053
        0.6016199589,        0.0138793588,-0.0329345316,-0.0309475139,-7.1509790421,5.4445438385,-22.7485389709
        0.6042969227,        0.0138793588,-0.0329345316,-0.0309475139,-7.1509790421,5.4445438385,-22.7485389709
        0.6079320908,        0.0138793588,-0.0329345316,-0.0309475139,-7.5019311905,5.3529911041,-22.4586219788
        0.6104989052,        0.0138793588,-0.0329345316,-0.0309475139,-7.5019311905,5.3529911041,-22.4586219788
        0.6130580902,        0.0216918588,-0.0378173441,-0.0358303264,-7.0746850967,5.0630741119,-22.3823280334
        0.6156229973,        0.0216918588,-0.0378173441,-0.0358303264,-7.0746850967,5.0630741119,-22.3823280334
        0.6182029247,        0.0216918588,-0.0378173441,-0.0358303264,-7.0899438858,5.0325565338,-22.3670692444
        0.6207671165,        0.0216918588,-0.0378173441,-0.0358303264,-7.0899438858,5.0325565338,-22.3670692444
        0.6233270168,        0.0114379525,-0.0397704691,-0.0299709514,-7.2120141983,5.2766971588,-22.5959510803
        0.6259930134,        0.0114379525,-0.0397704691,-0.0299709514,-7.2120141983,5.2766971588,-22.5959510803
        0.6285870075,        0.0114379525,-0.0397704691,-0.0299709514,-7.2120141983,5.1546268463,-22.7180213928
        0.6311480999,        0.0114379525,-0.0397704691,-0.0299709514,-7.2120141983,5.1546268463,-22.7180213928
        0.6337089539,        0.0143676400,-0.0392821878,-0.0299709514,-7.2272729874,5.1546268463,-22.5501747131
        0.6362769604,        0.0143676400,-0.0392821878,-0.0299709514,-7.2272729874,5.1546268463,-22.5501747131
        0.6388430595,        0.0143676400,-0.0392821878,-0.0299709514,-7.5477075577,5.0172977448,-22.4433631897
        0.6413989067,        0.0143676400,-0.0392821878,-0.0402248576,-7.5477075577,5.0172977448,-22.4433631897
        0.6439630985,        0.0104613900,-0.0324462503,-0.0402248576,-7.5477075577,5.0172977448,-22.4433631897
        0.6465249062,        0.0104613900,-0.0324462503,-0.0402248576,-7.7460718155,5.0172977448,-22.4433631897
        0.6491670609,        0.0104613900,-0.0324462503,-0.0402248576,-7.7460718155,5.0172977448,-22.6417274475
        0.6517291069,        0.0104613900,-0.0324462503,-0.0348537639,-7.7155542374,4.9104862213,-22.6417274475
        0.6542949677,        0.0021606088,-0.0407470316,-0.0348537639,-7.7155542374,4.9104862213,-22.6417274475
        0.6568651199,        0.0021606088,-0.0407470316,-0.0348537639,-7.7002954483,5.1393680573,-22.6112098694
        0.6595981121,        0.0021606088,-0.0407470316,-0.0348537639,-7.7002954483,5.1393680573,-22.6112098694
        0.6621620655,        0.0021606088,-0.0295165628,-0.0372951701,-7.7765893936,5.0935916901,-22.6722450256
        0.6647269726,        0.0138793588,-0.0295165628,-0.0372951701,-7.7765893936,5.0935916901,-22.6722450256
        0.6672949791,        0.0138793588,-0.0295165628,-0.0372951701,-7.3646020889,5.0783329010,-22.8706092834
        0.6700010300,        0.0138793588,-0.0295165628,-0.0372951701,-7.3646020889,5.0783329010,-22.8706092834
        0.6725649834,        0.0138793588,-0.0334228128,-0.0372951701,-7.3951196671,5.1698856354,-22.5959510803
        0.6751289368,        0.0138793588,-0.0334228128,-0.0372951701,-7.3951196671,5.1698856354,-22.5959510803
        0.6777260303,        0.0138793588,-0.0334228128,-0.0372951701,-7.4103784561,5.3377323151,-22.4891395569
        0.6802890301,        0.0138793588,-0.0334228128,-0.0372951701,-7.4103784561,5.3377323151,-22.4891395569
        0.6828489304,        0.0070434213,-0.0358642191,-0.0358303264,-7.6697778702,4.9410037994,-22.6264686584
        0.6854131222,        0.0070434213,-0.0358642191,-0.0358303264,-7.6697778702,4.9410037994,-22.6264686584
        0.6881389618,        0.0070434213,-0.0358642191,-0.0358303264,-7.2272729874,4.7121219635,-22.9011268616
        0.6907019615,        0.0070434213,-0.0358642191,-0.0358303264,-7.2272729874,4.7121219635,-22.9011268616
        0.6932630539,        0.0080199838,-0.0348876566,-0.0216701701,-7.9139184952,5.0172977448,-22.7332801819
        0.6959860325,        0.0080199838,-0.0348876566,-0.0216701701,-7.9139184952,5.0172977448,-22.7332801819
        0.6987080574,        0.0080199838,-0.0348876566,-0.0216701701,-7.3798608780,5.5055789948,-22.6722450256
        0.7012751102,        0.0080199838,-0.0348876566,-0.0216701701,-7.3798608780,5.5055789948,-22.6722450256
        0.7046980858,        0.0138793588,-0.0343993753,-0.0363186076,-6.9373559952,4.8494510651,-22.8095741272
        0.7072629929,        0.0138793588,-0.0343993753,-0.0363186076,-6.9373559952,4.8494510651,-22.8095741272
        0.7098810673,        0.0138793588,-0.0343993753,-0.0363186076,-6.8763208389,4.7578983307,-22.6112098694
        0.7124509811,        0.0138793588,-0.0319579691,-0.0421779826,-6.8763208389,4.7578983307,-22.6112098694
        0.7150158882,        0.0172973275,-0.0319579691,-0.0421779826,-7.1662378311,5.0325565338,-22.9469032288
        0.7175810337,        0.0172973275,-0.0319579691,-0.0421779826,-7.1662378311,5.0325565338,-22.9469032288
        0.7201519012,        0.0172973275,-0.0319579691,-0.0421779826,-7.1662378311,5.3072147369,-22.8858680725
        0.7227149010,        0.0172973275,-0.0358642191,-0.0382717326,-6.8152856827,5.3072147369,-22.8858680725
        0.7252779007,        0.0129027963,-0.0358642191,-0.0382717326,-6.8152856827,5.3072147369,-22.5654335022
        0.7279160023,        0.0129027963,-0.0358642191,-0.0382717326,-6.8000268936,5.2309207916,-22.5654335022
        0.7304749489,        0.0129027963,-0.0358642191,-0.0382717326,-6.8000268936,5.2309207916,-22.5654335022
        0.7330420017,        0.0129027963,-0.0353759378,-0.0343654826,-6.8305444717,5.1088504791,-22.5654335022
        0.7356019020,        0.0143676400,-0.0353759378,-0.0343654826,-6.8305444717,5.1088504791,-22.5654335022
        0.7381980419,        0.0143676400,-0.0353759378,-0.0343654826,-6.5864038467,4.9562625885,-22.7180213928
        0.7407650948,        0.0143676400,-0.0353759378,-0.0343654826,-6.5864038467,4.9562625885,-22.7180213928
        0.7433218956,        0.0109496713,-0.0329345316,-0.0319240764,-6.7847681046,5.0478153229,-22.9163856506
        0.7458879948,        0.0109496713,-0.0329345316,-0.0319240764,-6.7847681046,5.0478153229,-22.9163856506
        0.7485001087,        0.0109496713,-0.0329345316,-0.0319240764,-7.2120141983,5.0783329010,-22.6722450256
        0.7511699200,        0.0109496713,-0.0329345316,-0.0319240764,-7.2120141983,5.0783329010,-22.6722450256
        0.7537369728,        0.0055785775,-0.0353759378,-0.0319240764,-6.9678735733,5.1698856354,-22.5501747131
        0.7562971115,        0.0055785775,-0.0353759378,-0.0319240764,-6.9678735733,5.1698856354,-22.5501747131
        0.7590179443,        0.0055785775,-0.0353759378,-0.0319240764,-6.6932153702,4.9715213776,-22.7637977600
        0.7615849972,        0.0055785775,-0.0353759378,-0.0319240764,-6.6932153702,4.9715213776,-22.7637977600
        0.7641479969,        0.0119262338,-0.0422118753,-0.0382717326,-7.1357202530,5.3529911041,-22.6722450256
        0.7667119503,        0.0119262338,-0.0422118753,-0.0382717326,-7.1357202530,5.3529911041,-22.6722450256
        0.7694170475,        0.0119262338,-0.0422118753,-0.0382717326,-6.5711450577,5.1546268463,-22.7332801819
        0.7721130848,        0.0119262338,-0.0422118753,-0.0382717326,-6.5711450577,5.1546268463,-22.7332801819
        0.7748119831,        0.0143676400,-0.0383056253,-0.0314357951,-6.8458032608,5.0935916901,-22.3975868225
        0.7775111198,        0.0143676400,-0.0383056253,-0.0314357951,-6.8458032608,5.0935916901,-22.3975868225
        0.7802200317,        0.0143676400,-0.0383056253,-0.0314357951,-10.7520532608,5.1088504791,-22.5349159241
        0.7829248905,        0.0143676400,-0.0383056253,-0.0280178264,-7.5324487686,5.1088504791,-22.5349159241
        0.7856209278,        0.0094848275,-0.0363525003,-0.0280178264,-7.5324487686,5.0325565338,-22.7485389709
        0.7883689404,        0.0094848275,-0.0363525003,-0.0280178264,-7.6240015030,5.0325565338,-22.7485389709
        0.7910649776,        0.0094848275,-0.0363525003,-0.0280178264,-7.6240015030,5.2156620026,-22.7637977600
        0.7937641144,        0.0124145150,-0.0392821878,-0.0294826701,-7.0899438858,5.2156620026,-22.7637977600
        0.7964611053,        0.0124145150,-0.0392821878,-0.0294826701,-3.1836938858,4.9104862213,-22.8095741272
        0.7991700172,        0.0124145150,-0.0392821878,-0.0294826701,-6.5253686905,4.9104862213,-22.8095741272
        0.8018670082,        0.0124145150,-0.0392821878,-0.0294826701,-6.5253686905,4.7426395416,-22.8858680725
        0.8045740128,        0.0133910775,-0.0314696878,-0.0363186076,-6.4490747452,4.7426395416,-22.8858680725
        0.8072741032,        0.0133910775,-0.0314696878,-0.0363186076,-6.4490747452,4.7884159088,-22.9774208069
        0.8098790646,        0.0133910775,-0.0314696878,-0.0363186076,-6.1133813858,4.7884159088,-22.9774208069
        0.8124430180,        0.0133910775,-0.0314696878,-0.0363186076,-6.1133813858,4.8036746979,-23.1147499084
        0.8153119087,        0.0133910775,-0.0373290628,-0.0363186076,-6.1744165421,4.8036746979,-23.1147499084
        0.8179500103,        0.0133910775,-0.0373290628,-0.0363186076,-6.1744165421,4.8036746979,-22.9774208069
        0.8206100464,        0.0133910775,-0.0373290628,-0.0363186076,-6.5711450577,4.9104862213,-22.9774208069
        0.8232700825,        0.0133910775,-0.0373290628,-0.0289943889,-6.5711450577,8.8167362213,-22.7790565491
        0.8260669708,        0.0104613900,-0.0392821878,-0.0289943889,-6.8458032608,5.3224735260,-22.7790565491
        0.8287570477,        0.0104613900,-0.0392821878,-0.0289943889,-6.8458032608,1.4162235260,-22.6417274475
        0.8314180374,        0.0104613900,-0.0392821878,-0.0289943889,-6.8610620499,4.9867801666,-22.6417274475
        0.8340799809,        0.0099731088,-0.0348876566,-0.0329006389,-6.8610620499,8.8930301666,-22.7637977600
        0.8368530273,        0.0099731088,-0.0348876566,-0.0329006389,-7.1967554092,5.2919559479,-22.7637977600
        0.8395650387,        0.0099731088,-0.0348876566,-0.0329006389,-7.1967554092,5.2919559479,-23.3436317444
        0.8422210217,        0.0099731088,-0.0348876566,-0.0329006389,-6.4948511124,5.0020389557,-23.3436317444
        0.8449120522,        0.0099731088,-0.0304931253,-0.0319240764,-6.4948511124,5.0020389557,-22.8553504944
        0.8476109505,        0.0099731088,-0.0304931253,-0.0319240764,-6.6779565811,5.0020389557,-22.8553504944
        0.8501780033,        0.0099731088,-0.0304931253,-0.0319240764,-6.6779565811,5.0020389557,-22.8553504944
        0.8527460098,        0.0099731088,-0.0304931253,-0.0319240764,-6.6779565811,5.4903202057,-22.5349159241
        0.8553140163,        0.0158324838,-0.0378173441,-0.0426662639,-6.6779565811,5.4903202057,-22.5349159241
        0.8580529690,        0.0158324838,-0.0378173441,-0.0426662639,-6.6932153702,5.4140262604,-22.6417274475
        0.8606231213,        0.0158324838,-0.0378173441,-0.0426662639,-6.6932153702,5.4140262604,-22.6417274475
        0.8631870747,        0.0158324838,-0.0378173441,-0.0426662639,-6.6932153702,5.0325565338,-22.6417274475
        0.8657550812,       -0.0002807975,-0.0373290628,-0.0309475139,-6.6932153702,5.0325565338,-22.6417274475
        0.8684918880,       -0.0002807975,-0.0373290628,-0.0309475139,-6.9068384171,4.8341922760,-22.6112098694
        0.8711850643,       -0.0002807975,-0.0373290628,-0.0309475139,-6.9068384171,4.8341922760,-22.6112098694
        0.8738830090,       -0.0002807975,-0.0373290628,-0.0343654826,-7.1204614639,4.9867801666,-22.7180213928
        0.8765850067,        0.0021606088,-0.0353759378,-0.0343654826,-7.1204614639,4.9867801666,-22.7180213928
        0.8793959618,        0.0021606088,-0.0353759378,-0.0343654826,-6.8152856827,4.9867801666,-22.7332801819
        0.8820960522,        0.0021606088,-0.0353759378,-0.0343654826,-6.8152856827,4.9867801666,-22.7332801819
        0.8847930431,        0.0129027963,-0.0334228128,-0.0343654826,-6.7542505264,5.0935916901,-22.5959510803
        0.8874928951,        0.0129027963,-0.0334228128,-0.0343654826,-6.7542505264,5.0935916901,-22.5959510803
        0.8900809288,        0.0129027963,-0.0334228128,-0.0343654826,-6.9678735733,5.3072147369,-22.6875038147
        0.8926470280,        0.0129027963,-0.0334228128,-0.0343654826,-6.9678735733,5.3072147369,-22.6875038147
        0.8952169418,        0.0163207650,-0.0353759378,-0.0358303264,-6.9220972061,4.8189334869,-22.8706092834
        0.8977890015,        0.0163207650,-0.0353759378,-0.0358303264,-6.9220972061,4.8189334869,-22.8706092834
        0.9004900455,        0.0163207650,-0.0353759378,-0.0358303264,-7.2425317764,5.2614383698,-22.7180213928
        0.9032700062,        0.0163207650,-0.0353759378,-0.0358303264,-7.2425317764,5.2614383698,-22.7180213928
        0.9058339596,        0.0114379525,-0.0363525003,-0.0338772014,-6.8458032608,4.8647098541,-22.6722450256
        0.9085180759,        0.0114379525,-0.0363525003,-0.0338772014,-6.8458032608,4.8647098541,-22.6722450256
        0.9111790657,        0.0114379525,-0.0363525003,-0.0338772014,-7.0594263077,5.3377323151,-22.6722450256
        0.9139640331,        0.0114379525,-0.0363525003,-0.0363186076,-7.0594263077,5.3377323151,-22.6722450256
        0.9170160294,        0.0158324838,-0.0339110941,-0.0363186076,-6.6474390030,5.1546268463,-22.7332801819
        0.9197709560,        0.0158324838,-0.0339110941,-0.0363186076,-6.6474390030,5.1546268463,-22.7332801819
        0.9224779606,        0.0158324838,-0.0339110941,-0.0363186076,-6.2659692764,5.0325565338,-22.6875038147
        0.9251699448,        0.0158324838,-0.0309814066,-0.0387600139,-6.2659692764,5.0325565338,-22.6875038147
        0.9279110432,        0.0158324838,-0.0309814066,-0.0387600139,-6.2354516983,4.6816043854,-22.6875038147
        0.9304850101,        0.0158324838,-0.0309814066,-0.0387600139,-6.2354516983,4.6816043854,-22.6875038147
        0.9330499172,        0.0158324838,-0.0309814066,-0.0387600139,-6.2507104874,4.8494510651,-22.6264686584
        0.9356191158,        0.0099731088,-0.0309814066,-0.0397365764,-6.2507104874,4.8494510651,-22.6264686584
        0.9382190704,        0.0099731088,-0.0309814066,-0.0397365764,-6.0218286514,4.8647098541,-22.6569862366
        0.9409179688,        0.0099731088,-0.0309814066,-0.0397365764,-6.0218286514,4.8647098541,-22.6569862366
        0.9437389374,        0.0099731088,-0.0309814066,-0.0397365764,-6.5101099014,5.1546268463,-22.7637977600
        0.9464399815,        0.0104613900,-0.0363525003,-0.0368068889,-6.5101099014,5.1546268463,-22.7637977600
        0.9491150379,        0.0104613900,-0.0363525003,-0.0368068889,-6.9220972061,5.0172977448,-22.4738807678
        0.9516870975,        0.0104613900,-0.0363525003,-0.0368068889,-6.9220972061,5.0172977448,-22.4738807678
        0.9542529583,        0.0104613900,-0.0363525003,-0.0368068889,-6.9220972061,5.1088504791,-22.0618934631
        0.9568219185,        0.0109496713,-0.0358642191,-0.0329006389,-7.0289087296,5.1088504791,-22.0618934631
        0.9594459534,        0.0109496713,-0.0358642191,-0.0329006389,-7.0289087296,5.1088504791,-21.9093055725
        0.9620149136,        0.0109496713,-0.0358642191,-0.0329006389,-6.9831323624,5.0020389557,-21.9093055725
        0.9645829201,        0.0109496713,-0.0358642191,-0.0333889201,-6.9831323624,5.0020389557,-22.1381874084
        0.9671521187,        0.0124145150,-0.0314696878,-0.0333889201,-6.8000268936,5.3987674713,-22.1381874084
        0.9699630737,        0.0124145150,-0.0314696878,-0.0333889201,-6.8000268936,5.3987674713,-22.3518104553
        0.9726679325,        0.0124145150,-0.0314696878,-0.0333889201,-6.7084741592,5.3835086823,-22.3518104553
        0.9753661156,        0.0124145150,-0.0397704691,-0.0250881389,-6.7084741592,5.3835086823,-22.1229286194
        0.9780700207,        0.0168090463,-0.0397704691,-0.0250881389,-6.0370874405,5.1088504791,-22.1229286194
        0.9806420803,        0.0168090463,-0.0397704691,-0.0250881389,-6.0370874405,5.1088504791,-22.1229286194
        0.9832088947,        0.0168090463,-0.0397704691,-0.0250881389,-5.3809595108,5.0478153229,-21.9855995178
        0.9857749939,        0.0094848275,-0.0402587503,-0.0270412639,-5.3809595108,5.0478153229,-21.9855995178
        0.9884169102,        0.0094848275,-0.0402587503,-0.0270412639,-5.6251001358,5.0020389557,-21.7567176819
        0.9911160469,        0.0094848275,-0.0402587503,-0.0270412639,-5.6251001358,5.0020389557,-21.7567176819
        0.9938199520,        0.0094848275,-0.0402587503,-0.0270412639,-5.5793237686,5.0325565338,-21.4515419006
        0.9965109825,        0.0143676400,-0.0383056253,-0.0343654826,-5.5793237686,5.0325565338,-21.4515419006
        0.9992170334,        0.0143676400,-0.0383056253,-0.0343654826,-5.3657007217,5.2004032135,-21.4362831116
        1.0019929409,        0.0143676400,-0.0383056253,-0.0343654826,-5.3657007217,5.2004032135,-21.4362831116
        1.0045590401,        0.0143676400,-0.0383056253,-0.0343654826,-5.1825952530,4.6968631744,-21.4668006897
        1.0072259903,        0.0124145150,-0.0260985941,-0.0289943889,-5.1825952530,4.6968631744,-21.4668006897
        1.0099179745,        0.0124145150,-0.0260985941,-0.0289943889,-4.9079370499,4.8341922760,-21.3599891663
        1.0125830173,        0.0124145150,-0.0260985941,-0.0289943889,-4.9079370499,4.8341922760,-21.3599891663
        1.0155079365,        0.0124145150,-0.0246337503,-0.0412014201,-4.6637964249,5.1241092682,-21.2684364319
        1.0180819035,        0.0187621713,-0.0246337503,-0.0412014201,-4.6637964249,5.1241092682,-21.2684364319
        1.0206429958,        0.0187621713,-0.0246337503,-0.0412014201,-3.3973169327,5.7192020416,-20.8717079163
        1.0232069492,        0.0187621713,-0.0246337503,-0.0412014201,-3.3973169327,5.7192020416,-20.8717079163
        1.0257680416,        0.0187621713,-0.0202392191,-0.0499904826,-2.5580835342,6.0243778229,-20.7343788147
        1.0283710957,        0.0031371713,-0.0202392191,-0.0499904826,-2.5580835342,6.0243778229,-20.7343788147
        1.0309360027,        0.0031371713,-0.0202392191,-0.0499904826,-1.6272974014,5.5055789948,-20.9480018616
        1.0334990025,        0.0031371713,-0.0202392191,-0.0499904826,-1.6272974014,5.5055789948,-20.9480018616
        1.0360620022,        0.0055785775,-0.0251220316,-0.0402248576,-1.6272974014,5.3072147369,-21.1311073303
        1.0386269093,        0.0055785775,-0.0251220316,-0.0402248576,-1.3068628311,5.3072147369,-21.1311073303
        1.0411899090,        0.0055785775,-0.0251220316,-0.0402248576,-1.3068628311,5.3072147369,-20.9480018616
        1.0437519550,        0.0055785775,-0.0251220316,-0.0402248576,-1.7493677139,5.2919559479,-20.9480018616
        1.0463120937,        0.0011840463,-0.0534423441,-0.0455959514,-1.7493677139,5.2919559479,-20.7648963928
        1.0489571095,        0.0011840463,-0.0534423441,-0.0455959514,-3.0921411514,5.1546268463,-20.7648963928
        1.0515179634,        0.0011840463,-0.0534423441,-0.0455959514,-3.0921411514,5.1546268463,-20.7648963928
        1.0540759563,        0.0011840463,-0.0534423441,-0.0455959514,-4.6790552139,5.1241092682,-20.9632606506
        1.0566389561,        0.0002074838,-0.0470946878,-0.0421779826,-4.6790552139,5.1241092682,-20.9632606506
        1.0592670441,        0.0002074838,-0.0470946878,-0.0421779826,-6.0523462296,5.1851444244,-20.5360145569
        1.0618350506,        0.0002074838,-0.0470946878,-0.0421779826,-6.0523462296,5.1851444244,-20.5360145569
        1.0643930435,        0.0002074838,-0.0470946878,-0.0421779826,-6.8305444717,5.1698856354,-20.3376502991
        1.0669538975,        0.0119262338,-0.0524657816,-0.0382717326,-6.8305444717,5.1698856354,-20.3376502991
        1.0697240829,        0.0119262338,-0.0524657816,-0.0382717326,-7.4408960342,4.8341922760,-20.8564491272
        1.0722858906,        0.0119262338,-0.0524657816,-0.0382717326,-7.4408960342,4.8341922760,-20.8564491272
        1.0748460293,        0.0119262338,-0.0524657816,-0.0382717326,-7.1509790421,5.3835086823,-20.6123085022
        1.0774059296,        0.0089965463,-0.0461181253,-0.0211818889,-7.1509790421,5.3835086823,-20.6123085022
        1.0799729824,        0.0089965463,-0.0461181253,-0.0211818889,-7.1509790421,5.2309207916,-20.8564491272
        1.0825390816,        0.0089965463,-0.0461181253,-0.0211818889,-7.1509790421,5.2309207916,-20.8564491272
        1.0850989819,        0.0089965463,-0.0461181253,-0.0211818889,-6.9526147842,5.4598026276,-20.8106727600
        1.0877299309,        0.0153442025,-0.0275634378,-0.0280178264,-6.9526147842,5.4598026276,-20.8106727600
        1.0902960300,        0.0153442025,-0.0275634378,-0.0280178264,-6.9526147842,5.1241092682,-20.7343788147
        1.0928599834,        0.0153442025,-0.0275634378,-0.0280178264,-6.6016626358,5.1241092682,-20.7343788147
        1.0954229832,        0.0153442025,-0.0275634378,-0.0280178264,-6.6016626358,5.1241092682,-20.4444618225
        1.0980119705,        0.0172973275,-0.0270751566,-0.0275295451,-6.3727807999,5.1241092682,-20.4444618225
        1.1005740166,        0.0172973275,-0.0270751566,-0.0275295451,-6.3727807999,5.1241092682,-20.4444618225
        1.1031389236,        0.0172973275,-0.0270751566,-0.0275295451,-6.4032983780,5.2614383698,-20.5207557678
        1.1057050228,        0.0172973275,-0.0270751566,-0.0275295451,-6.4032983780,5.2614383698,-20.5207557678
        1.1082899570,        0.0148559213,-0.0270751566,-0.0153225139,-6.4032983780,5.6429080963,-20.8564491272
        1.1108601093,        0.0148559213,-0.0270751566,-0.0153225139,-6.4032983780,5.6429080963,-20.8564491272
        1.1134181023,        0.0148559213,-0.0270751566,-0.0153225139,-6.9983911514,6.1464481354,-21.2226600647
        1.1159799099,        0.0148559213,-0.0270751566,-0.0226467326,-6.9983911514,6.1464481354,-21.2226600647
        1.1185979843,        0.0163207650,-0.0270751566,-0.0226467326,-6.3727807999,5.9480838776,-21.0548133850
        1.1211609840,        0.0163207650,-0.0270751566,-0.0226467326,-6.3727807999,5.9480838776,-21.0548133850
        1.1237421036,        0.0163207650,-0.0270751566,-0.0226467326,-5.6403589249,5.8260135651,-21.0548133850
        1.1263589859,        0.0163207650,-0.0270751566,-0.0304592326,-5.6403589249,5.8260135651,-21.0548133850
        1.1292440891,        0.0129027963,-0.0182860941,-0.0304592326,-5.4725122452,5.6276493073,-21.3142127991
        1.1319410801,        0.0129027963,-0.0182860941,-0.0304592326,-5.4725122452,5.6276493073,-21.3142127991
        1.1347451210,        0.0129027963,-0.0182860941,-0.0304592326,-5.6708765030,5.8260135651,-21.7414588928
        1.1374440193,        0.0172973275,-0.0212157816,-0.0280178264,-5.6708765030,5.8260135651,-21.7414588928
        1.1401879787,        0.0172973275,-0.0212157816,-0.0280178264,-5.8234643936,6.0548954010,-21.7719764709
        1.1428849697,        0.0172973275,-0.0212157816,-0.0280178264,-5.8234643936,6.0548954010,-21.7719764709
        1.1455860138,        0.0172973275,-0.0212157816,-0.0280178264,-5.5182886124,5.7954959869,-21.9245643616
        1.1482880116,        0.0104613900,-0.0226806253,-0.0353420451,-5.5182886124,5.7954959869,-21.9245643616
        1.1509859562,        0.0104613900,-0.0226806253,-0.0353420451,-5.1825952530,5.9938602448,-21.6956825256
        1.1536860466,        0.0104613900,-0.0226806253,-0.0353420451,-5.1825952530,5.9938602448,-21.6956825256
        1.1563830376,        0.0104613900,-0.0226806253,-0.0304592326,-5.1520776749,6.1311893463,-21.4362831116
        1.1590321064,        0.0143676400,-0.0368407816,-0.0304592326,-5.1520776749,6.1311893463,-21.4362831116
        1.1615929604,        0.0143676400,-0.0368407816,-0.0304592326,-5.4877710342,6.3142948151,-21.6956825256
        1.1641569138,        0.0143676400,-0.0368407816,-0.0304592326,-5.4877710342,6.3142948151,-21.6956825256
        1.1667220592,        0.0143676400,-0.0368407816,-0.0358303264,-4.8774194717,6.5584354401,-21.4057655334
        1.1693370342,        0.0158324838,-0.0260985941,-0.0358303264,-4.8774194717,6.5584354401,-21.4057655334
        1.1718978882,        0.0158324838,-0.0260985941,-0.0358303264,-4.8774194717,6.3295536041,-21.2531776428
        1.1744658947,        0.0158324838,-0.0260985941,-0.0358303264,-4.5112085342,6.3295536041,-21.2531776428
        1.1770339012,        0.0158324838,-0.0251220316,-0.0441311076,-4.5112085342,6.3295536041,-21.1311073303
        1.1796500683,        0.0119262338,-0.0251220316,-0.0441311076,-4.1449975967,6.6499881744,-21.1311073303
        1.1822199821,        0.0119262338,-0.0251220316,-0.0441311076,-4.1449975967,6.6499881744,-21.1311073303
        1.1847889423,        0.0119262338,-0.0251220316,-0.0441311076,-4.0534448624,6.4516239166,-20.8869667053
        1.1873540878,        0.0119262338,-0.0256103128,-0.0353420451,-4.0534448624,6.4516239166,-20.8869667053
        1.1901180744,        0.0207152963,-0.0256103128,-0.0353420451,-3.9161157608,6.6957645416,-20.7343788147
        1.1928129196,        0.0207152963,-0.0256103128,-0.0353420451,-3.9161157608,6.6957645416,-20.7343788147
        1.1955039501,        0.0207152963,-0.0256103128,-0.0353420451,-3.5193872452,7.0772342682,-20.6123085022
        1.1983149052,        0.0158324838,-0.0217040628,-0.0431545451,-3.5193872452,7.0772342682,-20.6123085022
        1.2010118961,        0.0158324838,-0.0217040628,-0.0431545451,-3.1226587296,7.1230106354,-20.4292030334
        1.2037100792,        0.0158324838,-0.0217040628,-0.0431545451,-3.1226587296,7.1230106354,-20.4292030334
        1.2065050602,        0.0158324838,-0.0217040628,-0.0431545451,-2.4665307999,7.4281864166,-20.7038612366
        1.2091851234,        0.0089965463,-0.0226806253,-0.0397365764,-2.4665307999,7.4281864166,-20.7038612366
        1.2118411064,        0.0089965463,-0.0226806253,-0.0397365764,-1.6578149796,7.2908573151,-20.5207557678
        1.2145049572,        0.0089965463,-0.0226806253,-0.0397365764,-1.6578149796,7.2908573151,-20.5207557678
        1.2172849178,        0.0089965463,-0.0226806253,-0.0587795451,-1.5510034561,6.9399051666,-19.7425575256
        1.2198770046,        0.0080199838,-0.0461181253,-0.0587795451,-1.5510034561,6.9399051666,-19.7425575256
        1.2224419117,        0.0080199838,-0.0461181253,-0.0587795451,-3.5499048233,5.9786014557,-18.8270301819
        1.2250070572,        0.0080199838,-0.0461181253,-0.0587795451,-3.5499048233,5.9786014557,-18.8270301819
        1.2277159691,        0.0080199838,-0.1076415628,-0.0407131389,-5.5182886124,5.5055789948,-19.0711708069
        1.2303729057,       -0.0066284537,-0.1076415628,-0.0407131389,-5.5182886124,5.5055789948,-19.0711708069
        1.2330329418,       -0.0066284537,-0.1076415628,-0.0407131389,-5.9455347061,5.8717899323,-19.6510047913
        1.2357649803,       -0.0066284537,-0.1076415628,-0.0407131389,-5.9455347061,5.8717899323,-19.6510047913
        1.2384650707,       -0.0119995475,-0.0153564066,-0.0402248576,-7.9444360733,6.3905887604,-19.5899696350
        1.2411251068,       -0.0119995475,-0.0153564066,-0.0402248576,-7.9444360733,6.3905887604,-19.5899696350
        1.2438440323,       -0.0119995475,-0.0153564066,-0.0402248576,-8.9515161514,6.4211063385,-18.8575477600
        1.2467589378,       -0.0119995475,-0.0153564066,-0.0402248576,-8.9515161514,6.4211063385,-18.8575477600
        1.2497050762,        0.0109496713,-0.0055907816,-0.0338772014,-9.4703149796,6.1464481354,-18.9185829163
        1.2524030209,        0.0109496713,-0.0055907816,-0.0338772014,-9.4703149796,6.1464481354,-18.9185829163
        1.2551031113,        0.0109496713,-0.0055907816,-0.0338772014,-8.7836694717,6.3142948151,-19.6510047913
        1.2578129768,        0.0109496713,-0.0187743753,-0.0338772014,-8.7836694717,6.3142948151,-19.6510047913
        1.2603769302,        0.0002074838,-0.0187743753,-0.0338772014,-7.5171899796,6.3295536041,-20.5817909241
        1.2630469799,        0.0002074838,-0.0187743753,-0.0338772014,-7.5171899796,6.3295536041,-20.5817909241
        1.2656180859,        0.0002074838,-0.0187743753,-0.0338772014,-6.2507104874,6.3142948151,-21.0700721741
        1.2682349682,        0.0002074838,-0.0119384378,-0.0211818889,-6.2507104874,6.3142948151,-21.0700721741
        1.2709319592,        0.0187621713,-0.0119384378,-0.0211818889,-5.9455347061,6.5584354401,-21.4515419006
        1.2736320496,        0.0187621713,-0.0119384378,-0.0211818889,-5.9455347061,6.5584354401,-21.4515419006
        1.2763309479,        0.0187621713,-0.0119384378,-0.0211818889,-5.4267358780,6.7567996979,-21.1768836975
        1.2789809704,        0.0226684213,-0.0153564066,-0.0187404826,-5.4267358780,6.7567996979,-21.1768836975
        1.2815420628,        0.0226684213,-0.0153564066,-0.0187404826,-5.5335474014,6.5126590729,-21.0700721741
        1.2841079235,        0.0226684213,-0.0153564066,-0.0187404826,-5.5335474014,6.5126590729,-21.0700721741
        1.2866771221,        0.0226684213,-0.0153564066,-0.0187404826,-5.7166528702,6.9093875885,-21.5278358459
        1.2893059254,        0.0216918588,-0.0163329691,-0.0245998576,-5.7166528702,6.9093875885,-21.5278358459
        1.2918701172,        0.0216918588,-0.0163329691,-0.0245998576,-5.7166528702,7.3518924713,-21.9245643616
        1.2944359779,        0.0216918588,-0.0163329691,-0.0245998576,-5.8844995499,7.3518924713,-21.9245643616
        1.2970039845,        0.0216918588,-0.0163329691,-0.0245998576,-5.8844995499,7.6265506744,-22.2602577209
        1.2996969223,        0.0260863900,-0.0090087503,-0.0314357951,-5.1673364639,7.6265506744,-22.2602577209
        1.3022620678,        0.0260863900,-0.0090087503,-0.0314357951,-5.1673364639,7.6265506744,-22.5349159241
        1.3048319817,        0.0260863900,-0.0090087503,-0.0314357951,-4.4501733780,7.2145633698,-22.5349159241
        1.3073990345,        0.0260863900,-0.0090087503,-0.0314357951,-4.4501733780,7.2145633698,-22.7943153381
        1.3100640774,        0.0207152963,-0.0075439066,-0.0348537639,-4.0534448624,7.1840457916,-22.7943153381
        1.3126330376,        0.0207152963,-0.0075439066,-0.0348537639,-4.0534448624,7.1840457916,-22.7943153381
        1.3151979446,        0.0207152963,-0.0075439066,-0.0348537639,-3.7635278702,7.4129276276,-23.0231971741
        1.3177719116,        0.0207152963,-0.0075439066,-0.0348537639,-3.7635278702,7.4129276276,-23.0231971741
        1.3204751015,        0.0177856088,-0.0070556253,-0.0431545451,-3.4278345108,7.4739627838,-23.3436317444
        1.3231720924,        0.0177856088,-0.0070556253,-0.0431545451,-3.4278345108,7.4739627838,-23.3436317444
        1.3259739876,        0.0177856088,-0.0070556253,-0.0431545451,-2.2223901749,7.5502567291,-23.4504432678
        1.3286840916,        0.0177856088,-0.0187743753,-0.0431545451,-2.2223901749,7.5502567291,-23.4504432678
        1.3313779831,        0.0070434213,-0.0187743753,-0.0431545451,-2.1766138077,7.5502567291,-23.3131141663
        1.3340721130,        0.0070434213,-0.0187743753,-0.0431545451,-2.1766138077,7.5502567291,-23.3131141663
        1.3367719650,        0.0070434213,-0.0187743753,-0.0431545451,-2.1460962296,7.5349979401,-23.1757850647
        1.3393990993,        0.0089965463,-0.0314696878,-0.0372951701,-2.1460962296,7.5349979401,-23.1757850647
        1.3419640064,        0.0089965463,-0.0314696878,-0.0372951701,-1.7493677139,7.7333621979,-23.1605262756
        1.3445289135,        0.0089965463,-0.0314696878,-0.0372951701,-1.7493677139,7.7333621979,-23.1605262756
        1.3470940590,        0.0089965463,-0.0314696878,-0.0372951701,-2.4054956436,8.0232791901,-23.2063026428
        1.3497219086,        0.0089965463,-0.0392821878,-0.0314357951,-2.4054956436,8.0232791901,-23.2063026428
        1.3522839546,        0.0089965463,-0.0392821878,-0.0314357951,-3.0311059952,8.4352664948,-22.9926795959
        1.3548519611,        0.0089965463,-0.0392821878,-0.0314357951,-3.0311059952,8.4352664948,-22.9926795959
        1.3574190140,        0.0089965463,-0.0392821878,-0.0314357951,-3.1684350967,7.9927616119,-22.7637977600
        1.3601140976,        0.0114379525,-0.0387939066,-0.0426662639,-3.1684350967,7.9927616119,-22.7637977600
        1.3628129959,        0.0114379525,-0.0387939066,-0.0426662639,-3.0921411514,7.9469852448,-22.5196571350
        1.3656589985,        0.0114379525,-0.0387939066,-0.0426662639,-3.0921411514,7.9469852448,-22.5196571350
        1.3687810898,        0.0114379525,-0.0387939066,-0.0402248576,-3.8245630264,8.0232791901,-22.2602577209
        1.3714840412,        0.0080199838,-0.0378173441,-0.0402248576,-3.8245630264,8.0232791901,-22.2602577209
        1.3741800785,        0.0080199838,-0.0378173441,-0.0402248576,-3.9618921280,8.3894901276,-22.4128456116
        1.3768811226,        0.0080199838,-0.0378173441,-0.0402248576,-3.9618921280,8.3894901276,-22.4128456116
        1.3795919418,        0.0119262338,-0.0343993753,-0.0358303264,-3.7024927139,8.1758670807,-22.0161170959
        1.3822901249,        0.0119262338,-0.0343993753,-0.0358303264,-3.7024927139,8.1758670807,-22.0161170959
        1.3849821091,        0.0119262338,-0.0343993753,-0.0358303264,-4.2060327530,8.3589725494,-21.4820594788
        1.3876891136,        0.0119262338,-0.0343993753,-0.0358303264,-4.2060327530,8.3589725494,-21.4820594788
        1.3904891014,        0.0075317025,-0.0334228128,-0.0485256389,-4.1602563858,7.7943973541,-21.2836952209
        1.3931789398,        0.0075317025,-0.0334228128,-0.0485256389,-4.1602563858,7.7943973541,-21.2836952209
        1.3958721161,        0.0075317025,-0.0334228128,-0.0485256389,-3.6109399796,7.6112918854,-20.7801551819
        1.3985350132,        0.0075317025,-0.0334228128,-0.0485256389,-3.6109399796,7.6112918854,-20.7801551819
        1.4010949135,        0.0055785775,-0.0427001566,-0.0475490764,-4.0839624405,7.6112918854,-20.4597206116
        1.4036529064,        0.0055785775,-0.0427001566,-0.0475490764,-4.0839624405,7.6112918854,-20.4597206116
        1.4062130451,        0.0055785775,-0.0427001566,-0.0475490764,-4.0839624405,7.8096561432,-20.2155799866
        1.4087839127,        0.0055785775,-0.0427001566,-0.0431545451,-4.2212915421,7.8096561432,-20.2155799866
        1.4119689465,        0.0119262338,-0.0212157816,-0.0431545451,-3.9771509171,7.7638797760,-20.0324745178
        1.4145328999,        0.0119262338,-0.0212157816,-0.0431545451,-3.9771509171,7.7638797760,-20.0324745178
        1.4170899391,        0.0119262338,-0.0212157816,-0.0431545451,-3.9924097061,7.9927616119,-19.7883338928
        1.4197320938,        0.0119262338,-0.0158446878,-0.0490139201,-3.9924097061,7.9927616119,-19.7883338928
        1.4222919941,        0.0085082650,-0.0158446878,-0.0490139201,-3.9924097061,8.4200077057,-19.5289344788
        1.4248509407,        0.0085082650,-0.0158446878,-0.0490139201,-3.3362817764,8.4200077057,-19.5289344788
        1.4274189472,        0.0085082650,-0.0158446878,-0.0490139201,-3.3362817764,8.4200077057,-19.2390174866
        1.4299840927,        0.0085082650,-0.0207275003,-0.0460842326,-2.7564477921,8.2674198151,-19.2390174866
        1.4325559139,        0.0085082650,-0.0207275003,-0.0460842326,-2.7564477921,8.2674198151,-19.2390174866
        1.4351179600,        0.0085082650,-0.0207275003,-0.0460842326,-2.6038599014,8.2674198151,-19.4373817444
        1.4377069473,        0.0085082650,-0.0207275003,-0.0460842326,-2.6038599014,8.2674198151,-19.4373817444
        1.4402770996,        0.0158324838,-0.0221923441,-0.0451076701,-2.3139429092,8.5725955963,-19.3458290100
        1.4428350925,        0.0158324838,-0.0221923441,-0.0451076701,-2.3139429092,8.5725955963,-19.3458290100
        1.4453930855,        0.0158324838,-0.0221923441,-0.0451076701,-1.6730737686,8.5268192291,-19.2542762756
        1.4479970932,        0.0158324838,-0.0221923441,-0.0451076701,-1.6730737686,8.5268192291,-19.2542762756
        1.4505569935,        0.0114379525,-0.0090087503,-0.0485256389,-1.4136743546,8.5878543854,-19.2390174866
        1.4532439709,        0.0114379525,-0.0090087503,-0.0485256389,-1.4136743546,8.5878543854,-19.2390174866
        1.4558010101,        0.0114379525,-0.0090087503,-0.0485256389,-0.4371118546,8.4810428619,-19.1779823303
        1.4585111141,        0.0114379525,-0.0090087503,-0.0485256389,-0.4371118546,8.4810428619,-19.1779823303
        1.4610810280,        0.0251098275,-0.0099853128,-0.0568264201,-0.8338403702,8.4047489166,-19.0253944397
        1.4636449814,        0.0251098275,-0.0099853128,-0.0568264201,-0.8338403702,8.4047489166,-19.0253944397
        1.4662079811,        0.0251098275,-0.0099853128,-0.0568264201,-0.5439233780,8.4505252838,-18.9948768616
        1.4689269066,        0.0251098275,-0.0099853128,-0.0568264201,-0.5439233780,8.4505252838,-18.9948768616
        1.4716188908,        0.0236449838,-0.0104735941,-0.0656154826,-0.0861597061,8.0995731354,-18.6439247131
        1.4743220806,        0.0236449838,-0.0104735941,-0.0656154826,-0.0861597061,8.0995731354,-18.6439247131
        1.4770140648,        0.0236449838,-0.0104735941,-0.0656154826,0.5699682236,7.8401737213,-18.4150428772
        1.4797170162,        0.0236449838,-0.0104735941,-0.0914943889,0.5699682236,7.8401737213,-18.4150428772
        1.4824171066,        0.0055785775,0.0056396872,-0.0914943889,0.0359106064,7.9317264557,-18.1709022522
        1.4851109982,        0.0055785775,0.0056396872,-0.0914943889,0.0359106064,7.9317264557,-18.1709022522
        1.4878199100,        0.0055785775,0.0056396872,-0.0914943889,-0.9406518936,8.1758670807,-18.1098670959
        1.4905240536,       -0.0041870475,-0.0055907816,-0.0758693889,-0.9406518936,8.1758670807,-18.1098670959
        1.4932270050,       -0.0041870475,-0.0055907816,-0.0758693889,-0.9406518936,7.9469852448,-17.5605506897
        1.4959321022,       -0.0041870475,-0.0055907816,-0.0758693889,-2.2986841202,7.9469852448,-17.5605506897
        1.4986019135,       -0.0041870475,-0.0055907816,-0.0758693889,-2.2986841202,8.4200077057,-16.9654579163
        1.5011649132,        0.0026488900,-0.0324462503,-0.0592678264,-3.0158472061,8.4200077057,-16.9654579163
        1.5037329197,        0.0026488900,-0.0324462503,-0.0592678264,-3.0158472061,8.4200077057,-16.4008827209
        1.5062940121,        0.0026488900,-0.0324462503,-0.0592678264,-3.9466333389,8.4047489166,-16.4008827209
        1.5089700222,        0.0026488900,-0.0324462503,-0.0592678264,-3.9466333389,8.4047489166,-16.3245887756
        1.5116670132,       -0.0007690787,-0.0597900003,-0.0524318889,-5.6556177139,8.3742313385,-16.3245887756
        1.5144309998,       -0.0007690787,-0.0597900003,-0.0524318889,-5.6556177139,8.3742313385,-15.5921669006
        1.5172309875,       -0.0007690787,-0.0597900003,-0.0524318889,-6.0218286514,8.9540653229,-15.5921669006
        1.5199730396,       -0.0007690787,-0.0597900003,-0.0324123576,-6.0218286514,12.8603153229,-15.0886268616
        1.5226700306,       -0.0041870475,-0.0646728128,-0.0324123576,-7.3646020889,9.3050174713,-15.0886268616
        1.5254149437,       -0.0041870475,-0.0646728128,-0.0324123576,-7.3646020889,9.3050174713,-14.9665565491
        1.5296609402,       -0.0041870475,-0.0646728128,-0.0324123576,-8.6158227921,9.3202762604,-14.9665565491
        1.5322270393,       -0.0036987662,-0.0636962503,-0.0104397014,-8.0817651749,9.6559696198,-15.5921669006
        1.5347878933,       -0.0036987662,-0.0636962503,-0.0104397014,-8.0817651749,9.6559696198,-15.5921669006
        1.5373520851,       -0.0036987662,-0.0636962503,-0.0104397014,-8.9209985733,10.5714969635,-15.9736366272
        1.5400218964,       -0.0036987662,-0.0636962503,-0.0104397014,-8.9209985733,10.5714969635,-15.9736366272
        1.5425860882,       -0.0007690787,0.0002685934,-0.0202053264,-8.8752222061,10.6630496979,-15.3632850647
        1.5451469421,       -0.0007690787,0.0002685934,-0.0202053264,-8.8752222061,10.6630496979,-15.3632850647
        1.5477221012,       -0.0007690787,0.0002685934,-0.0202053264,-8.8752222061,10.9071903229,-14.9818153381
        1.5502839088,       -0.0007690787,0.0002685934,-0.0221584514,-7.9749536514,10.9071903229,-14.9818153381
        1.5528490543,        0.0021606088,0.0163818747,-0.0221584514,-7.9749536514,10.9071903229,-15.4090614319
        1.5554130077,        0.0021606088,0.0163818747,-0.0221584514,-6.9983911514,11.5175418854,-15.4090614319
        1.5580039024,        0.0021606088,0.0163818747,-0.0221584514,-6.9983911514,11.5175418854,-16.0041542053
        1.5605659485,        0.0021606088,0.0163818747,-0.0216701701,-5.3962182999,11.6396121979,-16.0041542053
        1.5631220341,        0.0089965463,0.0129639059,-0.0216701701,-5.3962182999,11.6396121979,-16.0041542053
        1.5656790733,        0.0089965463,0.0129639059,-0.0216701701,-3.3210229874,11.4565067291,-16.6297645569
        1.5682430267,        0.0089965463,0.0129639059,-0.0216701701,-3.3210229874,11.4565067291,-16.6297645569
        1.5708079338,        0.0089965463,0.0119873434,-0.0299709514,-1.6578149796,11.7616825104,-16.9654579163
        1.5733671188,        0.0099731088,0.0119873434,-0.0299709514,-1.6578149796,11.7616825104,-16.9654579163
        1.5759260654,        0.0099731088,0.0119873434,-0.0299709514,-0.1319360733,12.6466922760,-17.0722694397
        1.5786709785,        0.0099731088,0.0119873434,-0.0299709514,-0.1319360733,12.6466922760,-17.0722694397
        1.5813438892,        0.0006957650,0.0188232809,-0.0372951701,0.9819555283,12.4025516510,-17.3621864319
        1.5839118958,        0.0006957650,0.0188232809,-0.0372951701,0.9819555283,12.4025516510,-17.3621864319
        1.5864779949,        0.0006957650,0.0188232809,-0.0372951701,1.2871313095,12.3567752838,-17.7131385803
        1.5892770290,        0.0006957650,0.0188232809,-0.0372951701,1.2871313095,12.3567752838,-17.7131385803
        1.5919799805,       -0.0046753287,0.0012451559,-0.0465725139,1.9737768173,12.0668582916,-17.9725379944
        1.5946760178,       -0.0046753287,0.0012451559,-0.0465725139,1.9737768173,12.0668582916,-17.9725379944
        1.5973689556,       -0.0046753287,0.0012451559,-0.0465725139,2.8282690048,12.9671268463,-18.1709022522
        1.6000809669,       -0.0046753287,0.0012451559,-0.0465725139,2.8282690048,12.9671268463,-18.1709022522
        1.6027851105,        0.0016723275,-0.0119384378,-0.0495022014,3.1181859970,12.9823856354,-18.0335731506
        1.6054890156,        0.0016723275,-0.0119384378,-0.0495022014,3.1181859970,12.9823856354,-18.0335731506
        1.6082029343,        0.0016723275,-0.0119384378,-0.0495022014,3.6827611923,13.3791141510,-17.8809852600
        1.6109070778,        0.0016723275,-0.0119384378,-0.0519436076,3.6827611923,13.3791141510,-17.8809852600
        1.6136100292,       -0.0012573600,-0.0275634378,-0.0519436076,3.4996557236,13.6537723541,-17.3621864319
        1.6163780689,       -0.0012573600,-0.0275634378,-0.0519436076,3.4996557236,13.6537723541,-17.3621864319
        1.6191370487,       -0.0012573600,-0.0275634378,-0.0519436076,2.9045629501,13.5622196198,-16.7518348694
        1.6218059063,        0.0055785775,-0.0256103128,-0.0568264201,2.9045629501,13.5622196198,-16.7518348694
        1.6249020100,        0.0055785775,-0.0256103128,-0.0568264201,2.0195531845,13.5622196198,-16.0346717834
        1.6274650097,        0.0055785775,-0.0256103128,-0.0568264201,2.0195531845,13.5622196198,-16.0346717834
        1.6300930977,        0.0055785775,-0.0256103128,-0.0568264201,1.4702367783,13.7605838776,-15.4090614319
        1.6326539516,        0.0080199838,-0.0241454691,-0.0470607951,1.4702367783,13.7605838776,-15.4090614319
        1.6352169514,        0.0080199838,-0.0241454691,-0.0470607951,1.8822240829,13.9894657135,-14.6003456116
        1.6377758980,        0.0080199838,-0.0241454691,-0.0470607951,1.8822240829,13.9894657135,-14.6003456116
        1.6403450966,        0.0080199838,-0.0241454691,-0.0470607951,1.8669652939,14.0962772369,-13.8221473694
        1.6429109573,        0.0070434213,-0.0314696878,-0.0651272014,1.8669652939,14.0962772369,-13.8221473694
        1.6455841064,        0.0070434213,-0.0314696878,-0.0651272014,1.8669652939,14.1573123932,-13.5932655334
        1.6481959820,        0.0070434213,-0.0314696878,-0.0651272014,1.2871313095,14.1573123932,-13.5932655334
        1.6507561207,        0.0070434213,-0.0314696878,-0.0651272014,1.2871313095,14.1573123932,-12.8761024475
        1.6533150673,        0.0046020150,-0.0329345316,-0.0509670451,1.7296361923,14.6761112213,-12.8761024475
        1.6558809280,        0.0046020150,-0.0329345316,-0.0509670451,1.7296361923,14.6761112213,-11.8842811584
        1.6584520340,        0.0046020150,-0.0329345316,-0.0509670451,2.1263647079,15.0270633698,-11.8842811584
        1.6610200405,        0.0046020150,-0.0329345316,-0.0509670451,2.1263647079,15.0270633698,-11.8842811584
        1.6635849476,        0.0016723275,-0.0329345316,-0.0587795451,1.4244604111,14.6303348541,-10.7703895569
        1.6661550999,        0.0016723275,-0.0329345316,-0.0587795451,1.4244604111,14.6303348541,-10.7703895569
        1.6689119339,        0.0016723275,-0.0329345316,-0.0587795451,-0.1777124405,13.8979129791,-9.6259803772
        1.6714839935,        0.0016723275,-0.0329345316,-0.0617092326,-0.1777124405,13.8979129791,-9.6259803772
        1.6740510464,       -0.0134643912,-0.0763915628,-0.0617092326,-0.5286645889,13.9894657135,-9.0461463928
        1.6766281128,       -0.0134643912,-0.0763915628,-0.0617092326,-0.5286645889,13.9894657135,-9.0461463928
        1.6803491116,       -0.0134643912,-0.0763915628,-0.0617092326,-0.8948755264,14.5387821198,-8.6036415100
        1.6840291023,       -0.0271362662,-0.0314696878,-0.0675686076,-1.9324731827,14.9507694244,-7.6728553772
        1.6876180172,       -0.0271362662,-0.0314696878,-0.0675686076,-1.9324731827,14.9507694244,-7.6728553772
        1.6903140545,       -0.0271362662,-0.0314696878,-0.0675686076,-2.8327417374,14.4624881744,-6.6962928772
        1.6929960251,       -0.0310425162,-0.0119384378,-0.0724514201,-2.8327417374,14.4624881744,-6.6962928772
        1.6956799030,       -0.0310425162,-0.0119384378,-0.0724514201,-2.6038599014,14.4624881744,-6.1927528381
        1.6983768940,       -0.0310425162,-0.0119384378,-0.0724514201,-2.6038599014,14.4624881744,-6.1927528381
        1.7010641098,       -0.0310425162,-0.0119384378,-0.0724514201,-1.5815210342,14.2641239166,-5.9943885803
        1.7037510872,       -0.0227417350,-0.0085204691,-0.0753811076,-1.5815210342,14.2641239166,-5.9943885803
        1.7064330578,       -0.0227417350,-0.0085204691,-0.0753811076,0.1122045517,13.9284305573,-5.0483436584
        1.7091660500,       -0.0227417350,-0.0085204691,-0.0753811076,0.1122045517,13.9284305573,-5.0483436584
        1.7119929790,       -0.0227417350,-0.0085204691,-0.0739162639,1.0124731064,13.9131717682,-4.7279090881
        1.7146790028,       -0.0154175162,-0.0236571878,-0.0739162639,1.0124731064,13.9131717682,-4.7279090881
        1.7173690796,       -0.0154175162,-0.0236571878,-0.0739162639,1.0735082626,14.2488651276,-3.8123817444
        1.7200629711,       -0.0154175162,-0.0236571878,-0.0739162639,1.0735082626,14.2488651276,-3.8123817444
        1.7227470875,       -0.0002807975,-0.0275634378,-0.0822170451,0.7988500595,13.9131717682,-3.1409950256
        1.7254281044,       -0.0002807975,-0.0275634378,-0.0822170451,0.7988500595,13.9131717682,-3.1409950256
        1.7281219959,       -0.0002807975,-0.0275634378,-0.0822170451,0.3716039658,13.8826541901,-2.0576210022
        1.7308220863,       -0.0002807975,-0.0275634378,-0.0822170451,0.3716039658,13.8826541901,-2.0576210022
        1.7335250378,        0.0021606088,-0.0270751566,-0.0719631389,-0.7117700577,13.8063602448,-0.8521766663
        1.7363240719,        0.0021606088,-0.0270751566,-0.0719631389,-0.7117700577,13.8063602448,-0.8521766663
        1.7393538952,        0.0021606088,-0.0270751566,-0.0719631389,-1.6578149796,13.5622196198,0.0633506775
        1.7420599461,        0.0021606088,-0.0270751566,-0.0744045451,-1.6578149796,13.5622196198,0.0633506775
        1.7447619438,        0.0099731088,-0.0099853128,-0.0744045451,-2.6038599014,13.3485965729,0.7652549744
        1.7474589348,        0.0099731088,-0.0099853128,-0.0744045451,-2.6038599014,13.3485965729,0.7652549744
        1.7501709461,        0.0099731088,-0.0099853128,-0.0744045451,-2.1766138077,13.3028202057,1.5739707947
        1.7528738976,        0.0099731088,-0.0002196878,-0.0670803264,-2.1766138077,13.3028202057,1.5739707947
        1.7555689812,        0.0094848275,-0.0002196878,-0.0670803264,-2.5428247452,13.3638553619,2.4132041931
        1.7582890987,        0.0094848275,-0.0002196878,-0.0670803264,-2.5428247452,13.3638553619,2.4132041931
        1.7609920502,        0.0094848275,-0.0002196878,-0.0670803264,-2.7411890030,13.2112674713,3.1761436462
        1.7636930943,        0.0255981088,0.0017334372,-0.0729397014,-2.7411890030,13.2112674713,3.1761436462
        1.7663960457,        0.0255981088,0.0017334372,-0.0729397014,-2.9395532608,13.5164432526,4.1832237244
        1.7690329552,        0.0255981088,0.0017334372,-0.0729397014,-2.9395532608,13.5164432526,4.1832237244
        1.7716069221,        0.0255981088,0.0017334372,-0.0729397014,-3.1073999405,13.4096317291,5.4039268494
        1.7741730213,        0.0265746713,0.0158935934,-0.0612209514,-3.1073999405,13.4096317291,5.4039268494
        1.7767419815,        0.0265746713,0.0158935934,-0.0612209514,-2.6038599014,13.2875614166,6.3041954041
        1.7794609070,        0.0265746713,0.0158935934,-0.0612209514,-2.6038599014,13.2875614166,6.3041954041
        1.7820370197,        0.0265746713,0.0158935934,-0.0612209514,-1.9172143936,13.5164432526,7.0976524353
        1.7846050262,        0.0251098275,0.0329834372,-0.0714748576,-1.9172143936,13.5164432526,7.0976524353
        1.7871770859,        0.0251098275,0.0329834372,-0.0714748576,-1.5204858780,13.1197147369,7.9216270447
        1.7898659706,        0.0251098275,0.0329834372,-0.0714748576,-1.5204858780,13.1197147369,7.9216270447
        1.7924361229,        0.0251098275,0.0329834372,-0.1964748502,-1.5204858780,12.4483280182,9.0965538025
        1.7950088978,        0.0236449838,0.0432373434,-0.0870998576,-0.4523706436,12.4483280182,9.0965538025
        1.7975790501,        0.0236449838,0.0432373434,-0.0870998576,-0.4523706436,12.4483280182,9.7831993103
        1.8003840446,        0.0236449838,0.0432373434,-0.0870998576,1.0124731064,11.6701297760,9.7831993103
        1.8030860424,        0.0236449838,0.0290771872,-0.0978420451,1.0124731064,11.6701297760,10.5919151306
        1.8057839870,        0.0260863900,0.0290771872,-0.0978420451,1.9585180283,10.9071903229,10.5919151306
        1.8084940910,        0.0260863900,0.0290771872,-0.0978420451,1.9585180283,10.9071903229,11.8278770447
        1.8111920357,        0.0260863900,0.0290771872,-0.0978420451,1.9280004501,9.9153690338,11.8278770447
        1.8138959408,        0.0099731088,-0.0016845316,-0.1022365764,1.9280004501,9.9153690338,12.6518516541
        1.8165929317,        0.0099731088,-0.0016845316,-0.1022365764,1.7601537704,9.3050174713,12.6518516541
        1.8192191124,        0.0099731088,-0.0016845316,-0.1022365764,1.7601537704,9.3050174713,13.9641075134
        1.8217840195,        0.0099731088,-0.0016845316,-0.1022365764,0.5699682236,9.1066532135,13.9641075134
        1.8243529797,       -0.0056518912,-0.0158446878,-0.1378811002,0.5699682236,9.1066532135,13.9641075134
        1.8269200325,       -0.0056518912,-0.0158446878,-0.1378811002,-1.4136743546,9.2897586823,16.1766319275
        1.8295309544,       -0.0056518912,-0.0158446878,-0.1378811002,-1.4136743546,9.2897586823,16.1766319275
        1.8320949078,       -0.0056518912,-0.0158446878,-0.1378811002,-3.5651636124,9.6407108307,17.8398399353
        1.8346660137,       -0.0242065787,-0.0378173441,-0.1383693814,-3.5651636124,9.6407108307,17.8398399353
        1.8372349739,       -0.0242065787,-0.0378173441,-0.1383693814,-6.4795923233,10.0679569244,19.4267539978
        1.8399219513,       -0.0242065787,-0.0378173441,-0.1383693814,-6.4795923233,10.0679569244,19.4267539978
        1.8427350521,       -0.0242065787,-0.0378173441,-0.1383693814,-9.0583276749,10.5562381744,21.4561729431
        1.8454360962,       -0.0300659537,-0.0348876566,-0.1388576627,-9.0583276749,10.5562381744,21.4561729431
        1.8481750488,       -0.0300659537,-0.0348876566,-0.1388576627,-12.1558618546,9.9611454010,23.3940391541
        1.8508760929,       -0.0300659537,-0.0348876566,-0.1388576627,-12.1558618546,9.9611454010,23.3940391541
        1.8535730839,       -0.0300659537,-0.0138915628,-0.1344631314,-14.5057153702,9.6712284088,25.4692344666
        1.8564329147,       -0.0486206412,-0.0138915628,-0.1344631314,-14.5057153702,9.6712284088,25.4692344666
        1.8595740795,       -0.0486206412,-0.0138915628,-0.1344631314,-16.7487564087,9.6712284088,27.1629600525
        1.8622770309,       -0.0486206412,-0.0138915628,-0.1344631314,-16.7487564087,9.6712284088,27.1629600525
        1.8649799824,       -0.0647339225,0.0071045309,-0.1159084514,-17.9694595337,9.5186405182,28.6735801697
        1.8676970005,       -0.0647339225,0.0071045309,-0.1159084514,-17.9694595337,9.5186405182,28.6735801697
        1.8702690601,       -0.0647339225,0.0071045309,-0.1159084514,-18.3967056274,9.1371707916,29.9858360291
        1.8728449345,       -0.0647339225,0.0071045309,-0.1159084514,-18.3967056274,9.1371707916,29.9858360291
        1.8754239082,       -0.0764526725,0.0290771872,-0.1134670451,-18.9917984009,9.0151004791,30.9318809509
        1.8780369759,       -0.0764526725,0.0290771872,-0.1134670451,-18.9917984009,9.0151004791,30.9318809509
        1.8807430267,       -0.0764526725,0.0290771872,-0.1134670451,-19.4800796509,8.8319950104,31.6032676697
        1.8834490776,       -0.0764526725,0.0290771872,-0.1051662639,-19.4800796509,8.8319950104,31.6032676697
        1.8861570358,       -0.0759643912,0.0471435934,-0.1051662639,-19.2969741821,8.6946659088,32.3509483337
        1.8888289928,       -0.0759643912,0.0471435934,-0.1051662639,-19.2969741821,8.6946659088,32.3509483337
        1.8914000988,       -0.0759643912,0.0471435934,-0.1051662639,-18.6866226196,8.4200077057,32.8697471619
        1.8939690590,       -0.0759643912,0.0749756247,-0.0890529826,-18.6866226196,8.4200077057,32.8697471619
        1.8965480328,       -0.0701050162,0.0749756247,-0.0890529826,-18.3051528931,7.7486209869,32.8087120056
        1.8991730213,       -0.0701050162,0.0749756247,-0.0890529826,-18.3051528931,7.7486209869,32.8087120056
        1.9017450809,       -0.0701050162,0.0749756247,-0.0890529826,-18.5950698853,7.4892215729,32.0610313416
        1.9043219090,       -0.0701050162,0.0876709372,-0.0734279826,-18.5950698853,7.4892215729,32.0610313416
        1.9070091248,       -0.0744995475,0.0876709372,-0.0734279826,-17.9847183228,7.3824100494,31.6032676697
        1.9096889496,       -0.0744995475,0.0876709372,-0.0734279826,-17.9847183228,7.3824100494,31.6032676697
        1.9122660160,       -0.0744995475,0.0876709372,-0.0734279826,-17.9847183228,7.3213748932,31.4659385681
        1.9148399830,       -0.0569214225,0.1023193747,-0.0661037639,-17.1454849243,7.3213748932,31.4659385681
        1.9174139500,       -0.0569214225,0.1023193747,-0.0661037639,-17.1454849243,7.3213748932,31.1149864197
        1.9200229645,       -0.0569214225,0.1023193747,-0.0661037639,-16.4435806274,7.0009403229,31.1149864197
        1.9225859642,       -0.0569214225,0.1023193747,-0.0661037639,-16.4435806274,7.0009403229,30.4893760681
        1.9251530170,       -0.0500854850,0.1262451559,-0.0558498576,-15.7874536514,6.9246463776,30.4893760681
        1.9277150631,       -0.0500854850,0.1262451559,-0.0558498576,-15.7874536514,6.9246463776,30.4893760681
        1.9304139614,       -0.0500854850,0.1262451559,-0.0558498576,-16.0468521118,6.7567996979,29.0245323181
        1.9331159592,       -0.0500854850,0.1262451559,-0.0558498576,-16.0468521118,6.7567996979,25.1182823181
        1.9358160496,       -0.0481323600,0.1267334372,-0.0641506389,-16.6114273071,6.9093875885,27.6665000916
        1.9385650158,       -0.0481323600,0.1267334372,-0.0641506389,-16.6114273071,6.9093875885,27.6665000916
        1.9412701130,       -0.0481323600,0.1267334372,-0.0641506389,-15.5127954483,7.2298221588,26.0795860291
        1.9439721107,       -0.0481323600,0.1267334372,-0.0480373576,-15.5127954483,7.2298221588,26.0795860291
        1.9466750622,       -0.0061401725,0.1623779684,-0.0480373576,-13.7732934952,7.1230106354,25.4692344666
        1.9493100643,       -0.0061401725,0.1623779684,-0.0480373576,-13.7732934952,7.1230106354,25.4692344666
        1.9518840313,       -0.0061401725,0.1623779684,-0.0480373576,-11.6675806046,6.7110233307,25.2098350525
        1.9544589520,       -0.0061401725,0.1623779684,-0.0343654826,-11.6675806046,6.7110233307,25.2098350525
        1.9570240974,        0.0251098275,0.1765381247,-0.0343654826,-9.5008325577,6.7262821198,24.1874961853
        1.9597010612,        0.0251098275,0.1765381247,-0.0343654826,-9.5008325577,6.7262821198,24.1874961853
        1.9622740746,        0.0251098275,0.1765381247,-0.0343654826,-6.7695093155,6.2074832916,22.3411827087
        1.9648430347,        0.0251098275,0.1906982809,-0.0436428264,-6.7695093155,6.2074832916,22.3411827087
        1.9674110413,        0.0412231088,0.1906982809,-0.0436428264,-3.5651636124,5.3529911041,20.2354698181
        1.9702980518,        0.0412231088,0.1906982809,-0.0436428264,-3.5651636124,5.3529911041,20.2354698181
        1.9729769230,        0.0412231088,0.1906982809,-0.0436428264,0.6310033798,5.6581668854,17.2752647400
        1.9758601189,        0.0524535775,0.1301514059,-0.0475490764,0.6310033798,5.6581668854,17.2752647400
        1.9789531231,        0.0524535775,0.1301514059,-0.0475490764,4.0947484970,5.9480838776,13.2164268494
        1.9816660881,        0.0524535775,0.1301514059,-0.0475490764,4.0947484970,5.9480838776,13.2164268494
        1.9843709469,        0.0524535775,0.1301514059,-0.0558498576,7.5279760361,6.8330936432,8.6845664978
        1.9870719910,        0.0690551400,0.0603271872,-0.0558498576,7.5279760361,6.8330936432,8.6845664978
        1.9897899628,        0.0690551400,0.0603271872,-0.0558498576,10.3966283798,7.2603397369,4.0916709900
        1.9924941063,        0.0690551400,0.0603271872,-0.0558498576,10.3966283798,7.2603397369,4.0916709900
        1.9951980114,        0.0690551400,-0.0051025003,-0.0470607951,11.9988012314,7.4434452057,-0.1807899475
        1.9979560375,        0.0656371713,-0.0051025003,-0.0470607951,11.9988012314,7.4434452057,-0.1807899475
        2.0006608963,        0.0656371713,-0.0051025003,-0.0470607951,13.2042455673,7.1230106354,-3.5072059631
        2.0033659935,        0.0656371713,-0.0051025003,-0.0470607951,13.2042455673,7.1230106354,-3.5072059631
        2.0060739517,        0.0338988900,-0.0910400003,-0.0314357951,11.9530248642,6.6499881744,-6.4521522522
        2.0087420940,        0.0338988900,-0.0910400003,-0.0314357951,11.9530248642,6.6499881744,-6.4521522522
        2.0113139153,        0.0338988900,-0.0910400003,-0.0314357951,9.2064428329,6.6805057526,-9.1682167053
        2.0138869286,        0.0338988900,-0.0910400003,-0.0314357951,9.2064428329,6.6805057526,-9.1682167053
        2.0164599419,        0.0255981088,-0.1789306253,-0.0363186076,5.2544164658,5.9023075104,-11.3349647522
        2.0190429688,        0.0255981088,-0.1789306253,-0.0363186076,5.2544164658,5.9023075104,-11.3349647522
        2.0216100216,        0.0255981088,-0.1789306253,-0.0363186076,0.5852270126,5.6123905182,-13.0286903381
        2.0241730213,        0.0255981088,-0.1789306253,-0.0363186076,0.5852270126,5.6123905182,-13.0286903381
        2.0267410278,        0.0148559213,-0.2170165628,-0.0607326701,-4.7248315811,5.8870487213,-14.1120643616
        2.0294499397,        0.0148559213,-0.2170165628,-0.0607326701,-4.7248315811,5.8870487213,-14.1120643616
        2.0320179462,        0.0148559213,-0.2170165628,-0.0607326701,-12.5373315811,4.3764286041,-15.1649208069
        2.0346879959,        0.0148559213,-0.2170165628,-0.0607326701,-11.6828393936,4.3764286041,-15.1649208069
        2.0372560024,        0.0441527963,-0.2677978277,-0.0592678264,-19.4953384399,1.9045047760,-17.9725379944
        2.0401029587,        0.0441527963,-0.2677978277,-0.0592678264,-19.5258560181,1.9045047760,-17.9725379944
        2.0427629948,        0.0441527963,-0.2677978277,-0.0592678264,-19.5258560181,-0.0791378021,-22.9926795959
        2.0454258919,        0.0441527963,-0.3083251715,-0.0724514201,-25.9192886353,-0.0791378021,-22.9926795959
        2.0481059551,        0.0754027963,-0.3083251715,-0.0724514201,-25.9192886353,-2.3526973724,-29.8133583069
        2.0508069992,        0.0754027963,-0.3083251715,-0.0724514201,-30.7563247681,-2.3526973724,-29.8133583069
        2.0535159111,        0.0754027963,-0.3083251715,-0.0724514201,-30.7563247681,-4.1990108490,-36.7103309631
        2.0562269688,        0.0910277963,-0.2629150152,-0.0958889201,-32.9841079712,-4.1990108490,-36.7103309631
        2.0589210987,        0.0910277963,-0.2629150152,-0.0958889201,-32.9841079712,-4.1990108490,-44.1108436584
        2.0614950657,        0.0910277963,-0.2629150152,-0.0958889201,-33.4113540649,-5.5875606537,-44.1108436584
        2.0640718937,        0.0910277963,-0.2629150152,-0.0958889201,-33.4113540649,-5.5875606537,-51.8928260803
        2.0666460991,        0.1232543588,-0.2746337652,-0.1163967326,-33.2587661743,-7.2049922943,-51.8928260803
        2.0693099499,        0.1232543588,-0.2746337652,-0.1163967326,-33.2587661743,-7.2049922943,-59.7053260803
        2.0720210075,        0.1232543588,-0.2746337652,-0.1163967326,-33.4723892212,-9.2344112396,-59.1254920959
        2.0747330189,        0.1232543588,-0.2746337652,-0.1163967326,-33.4723892212,-9.2344112396,-66.9379882812
        2.0774440765,        0.1296020150,-0.3224853277,-0.1212795451,-34.4031753540,-11.5690059662,-67.2126464844
        2.0801949501,        0.1296020150,-0.3224853277,-0.1212795451,-34.4031753540,-11.5690059662,-75.0251464844
        2.0829010010,        0.1296020150,-0.3224853277,-0.1212795451,-36.0969009399,-12.9728145599,-74.7962646484
        2.0856120586,        0.1296020150,-0.3224853277,-0.1329982877,-36.0969009399,-12.9728145599,-82.6087646484
        2.0883240700,        0.1247192025,-0.3029540777,-0.1329982877,-37.8669204712,-13.3085079193,-82.6850585938
        2.0910348892,        0.1247192025,-0.3029540777,-0.1329982877,-37.8669204712,-13.3085079193,-90.4975585938
        2.0938160419,        0.1247192025,-0.3029540777,-0.1329982877,-37.3328628540,-13.2779903412,-90.7264404297
        2.0967299938,        0.0876098275,-0.2375243753,-0.1447170377,-37.3328628540,-11.9962520599,-98.3710937500
        2.0999670029,        0.0876098275,-0.2375243753,-0.1447170377,-34.9830093384,-11.9962520599,-98.3710937500
        2.1026771069,        0.0876098275,-0.2375243753,-0.1447170377,-31.0767593384,-9.8295040131,-106.3361816406
        2.1053800583,        0.0876098275,-0.2375243753,-0.1447170377,-31.0004653931,-9.8295040131,-106.3361816406
        2.1080811024,        0.0509887338,-0.2038329691,-0.1456936002,-31.0004653931,-6.4725704193,-113.3552246094
        2.1106591225,        0.0509887338,-0.2038329691,-0.1456936002,-24.9122085571,-6.4725704193,-113.3552246094
        2.1132380962,        0.0509887338,-0.2038329691,-0.1456936002,-24.9122085571,-6.4725704193,-119.8402099609
        2.1158161163,        0.0509887338,-0.2038329691,-0.1461818814,-18.5798110962,-3.8785762787,-119.8402099609
        2.1184310913,        0.0192504525,-0.2155517191,-0.1461818814,-18.5798110962,-3.8785762787,-125.3333740234
        2.1210019588,        0.0192504525,-0.2155517191,-0.1461818814,-12.6899194717,-1.5439815521,-125.3333740234
        2.1235671043,        0.0192504525,-0.2155517191,-0.1461818814,-12.6899194717,-1.5439815521,-125.3333740234
        2.1261301041,        0.0192504525,-0.3405517340,-0.1246975139,-8.7226343155,0.6532840729,-129.6973876953
        2.1298620701,       -0.0222534537,-0.2345946878,-0.1246975139,-8.7226343155,2.2096805573,-133.4663085938
        2.1324329376,       -0.0222534537,-0.2345946878,-0.1246975139,-5.7624292374,2.2096805573,-133.4663085938
        2.1349999905,       -0.0222534537,-0.2345946878,-0.1246975139,-5.7624292374,2.2096805573,-136.9605712891
        2.1375648975,       -0.0364136100,-0.1916259378,-0.0910061076,-2.6343774796,3.2015018463,-136.9605712891
        2.1401419640,       -0.0364136100,-0.1916259378,-0.0910061076,-2.6343774796,3.2015018463,-140.8668212891
        2.1427080631,       -0.0364136100,-0.1916259378,-0.0910061076,0.8598852158,3.7355594635,-140.1191406250
        2.1452720165,       -0.0364136100,-0.1916259378,-0.0910061076,0.8598852158,3.7355594635,-140.1191406250
        2.1479299068,       -0.0403198600,-0.1296142191,-0.0783107951,5.4375219345,4.1780643463,-143.3387451172
        2.1505029202,       -0.0403198600,-0.1296142191,-0.0783107951,5.4375219345,4.1780643463,-143.3387451172
        2.1530721188,       -0.0403198600,-0.1296142191,-0.0783107951,10.5339574814,3.6287479401,-145.5817871094
        2.1556420326,       -0.0403198600,-0.1296142191,-0.0783107951,10.5339574814,3.6287479401,-145.5817871094
        2.1582169533,       -0.0500854850,-0.0881103128,-0.0582912639,16.2102279663,2.6216678619,-148.0537109375
        2.1607880592,       -0.0500854850,-0.0881103128,-0.0582912639,16.2102279663,2.6216678619,-148.0537109375
        2.1634690762,       -0.0500854850,-0.0881103128,-0.0582912639,22.0696029663,1.7213993073,-150.7850341797
        2.1660399437,       -0.0500854850,-0.0881103128,-0.0582912639,22.0696029663,1.7213993073,-150.7850341797
        2.1686239243,       -0.0632690787,-0.0700439066,-0.0499904826,27.1202621460,0.1192264557,-152.9975585938
        2.1711990833,       -0.0632690787,-0.0700439066,-0.0499904826,27.1202621460,0.1192264557,-152.9975585938
        2.1737730503,       -0.0632690787,-0.0700439066,-0.0499904826,32.1709213257,-1.2235469818,-155.3626708984
        2.1763451099,       -0.0632690787,-0.0700439066,-0.0451076701,32.1709213257,-1.2235469818,-155.3626708984
        2.1790790558,       -0.1003784537,-0.0773681253,-0.0451076701,36.0771713257,-2.1238155365,-156.9190673828
        2.1816520691,       -0.1003784537,-0.0773681253,-0.0451076701,36.7638168335,-2.1238155365,-156.9190673828
        2.1842288971,       -0.1003784537,-0.0773681253,-0.0451076701,36.7638168335,-3.0088253021,-158.3533935547
        2.1868031025,       -0.1003784537,-0.0553954691,-0.0587795451,40.0902328491,-3.0088253021,-158.3533935547
        2.1895489693,       -0.1199097037,-0.0553954691,-0.0587795451,40.0902328491,-3.0088253021,-158.9179687500
        2.1922569275,       -0.1199097037,-0.0553954691,-0.0587795451,42.4553451538,-2.8867549896,-158.9179687500
        2.1949629784,       -0.1199097037,-0.0553954691,-0.0587795451,42.4553451538,-2.8867549896,-158.0482177734
        2.1976780891,       -0.1340698600,-0.0153564066,-0.0841701701,44.8509750366,-2.8409786224,-158.0482177734
        2.2003800869,       -0.1340698600,-0.0153564066,-0.0841701701,44.8509750366,-2.8409786224,-155.9119873047
        2.2030880451,       -0.1340698600,-0.0153564066,-0.0841701701,46.1784896851,-3.3292598724,-155.9119873047
        2.2057979107,       -0.1340698600,-0.0153564066,-0.0841701701,46.1784896851,-3.3292598724,-153.2722167969
        2.2084739208,       -0.1311401725,0.0197998434,-0.0792873576,45.2629623413,-3.6344356537,-153.2722167969
        2.2110469341,       -0.1311401725,0.0197998434,-0.0792873576,45.2629623413,-3.6344356537,-150.0526123047
        2.2136199474,       -0.1311401725,0.0197998434,-0.0792873576,44.5457992554,-4.2600460052,-150.0526123047
        2.2161951065,       -0.1311401725,0.0197998434,-0.0792873576,44.5457992554,-4.2600460052,-146.1463623047
        2.2188279629,       -0.1086792350,0.0158935934,-0.0612209514,44.1338119507,-5.1908321381,-147.1534423828
        2.2215399742,       -0.1086792350,0.0158935934,-0.0612209514,44.1338119507,-5.1908321381,-147.1534423828
        2.2242510319,       -0.1086792350,0.0158935934,-0.0612209514,43.3556137085,-7.0829219818,-144.4984130859
        2.2270729542,       -0.1086792350,0.0158935934,-0.0294826701,43.3556137085,-7.0829219818,-140.5921630859
        2.2298779488,       -0.0774292350,-0.0090087503,-0.0294826701,43.1419906616,-8.8987178802,-141.8128662109
        2.2325880527,       -0.0774292350,-0.0090087503,-0.0294826701,43.1419906616,-8.8987178802,-141.8128662109
        2.2352991104,       -0.0774292350,-0.0090087503,-0.0294826701,42.8368148804,-10.6077022552,-139.8597412109
        2.2380249500,       -0.0710815787,-0.0719970316,-0.0421779826,42.8368148804,-10.6077022552,-135.9534912109
        2.2407310009,       -0.0710815787,-0.0719970316,-0.0421779826,42.6231918335,-11.4011592865,-138.6695556641
        2.2434461117,       -0.0710815787,-0.0719970316,-0.0421779826,42.6231918335,-11.4011592865,-136.2891845703
        2.2462739944,       -0.0710815787,-0.0719970316,-0.0421779826,42.0586166382,-11.3553829193,-136.2891845703
        2.2491641045,       -0.0818237662,-0.1042235941,-0.0626857951,42.0586166382,-11.3553829193,-133.7562255859
        2.2517540455,       -0.0818237662,-0.1042235941,-0.0626857951,40.9294662476,-10.6687374115,-133.7562255859
        2.2543299198,       -0.0818237662,-0.1042235941,-0.0626857951,40.9294662476,-10.6687374115,-129.8499755859
        2.2569069862,       -0.0818237662,-0.1042235941,-0.0626857951,39.0526351929,-10.5314083099,-131.4979248047
        2.2595539093,       -0.0837768912,-0.0993407816,-0.0783107951,39.0526351929,-10.5314083099,-131.4979248047
        2.2621259689,       -0.0837768912,-0.0993407816,-0.0783107951,36.5044174194,-9.4785518646,-128.5987548828
        2.2646989822,       -0.0837768912,-0.0993407816,-0.0783107951,36.5044174194,-9.4785518646,-128.5987548828
        2.2672669888,       -0.0837768912,-0.0993407816,-0.0675686076,34.3681869507,-9.6006221771,-125.7911376953
        2.2698988914,       -0.0798706412,-0.0807860941,-0.0675686076,34.3681869507,-9.6006221771,-125.7911376953
        2.2724719048,       -0.0798706412,-0.0807860941,-0.0675686076,31.7894515991,-9.3564815521,-121.9916992188
        2.2750439644,       -0.0798706412,-0.0807860941,-0.0675686076,31.7894515991,-9.3564815521,-121.9916992188
        2.2776191235,       -0.0798706412,-0.0807860941,-0.0724514201,28.1731185913,-9.2649288177,-118.1922607422
        2.2801918983,       -0.0661987662,-0.0700439066,-0.0724514201,28.1731185913,-9.2649288177,-118.1922607422
        2.2827639580,       -0.0661987662,-0.0700439066,-0.0724514201,23.4276351929,-8.7613887787,-114.4080810547
        2.2853391171,       -0.0661987662,-0.0700439066,-0.0724514201,23.4276351929,-8.7613887787,-114.4080810547
        2.2879679203,       -0.0661987662,-0.0705321878,-0.0763576701,19.5519027710,-8.2425899506,-111.0206298828
        2.2906489372,       -0.0398315787,-0.0705321878,-0.0763576701,19.5519027710,-8.2425899506,-111.0206298828
        2.2932190895,       -0.0398315787,-0.0705321878,-0.0763576701,15.6456518173,-7.7390499115,-106.9770507812
        2.2957921028,       -0.0398315787,-0.0705321878,-0.0763576701,14.5622777939,-7.7390499115,-106.9770507812
        2.2985200882,       -0.0286011100,-0.0612548441,-0.0919826701,14.5622777939,-7.7390499115,-102.4604492188
        2.3010981083,       -0.0286011100,-0.0612548441,-0.0919826701,9.6031713486,-7.0829219818,-102.4604492188
        2.3036749363,       -0.0286011100,-0.0612548441,-0.0919826701,9.6031713486,-7.0829219818,-98.5847167969
        2.3062551022,       -0.0286011100,-0.0612548441,-0.0919826701,4.1557836533,-6.3047237396,-98.5847167969
        2.3089349270,       -0.0266479850,-0.0534423441,-0.0934475139,4.1557836533,-6.3047237396,-94.4648437500
        2.3115088940,       -0.0266479850,-0.0534423441,-0.0934475139,-1.0474634171,-5.4197139740,-94.4648437500
        2.3140819073,       -0.0266479850,-0.0534423441,-0.0934475139,-1.0474634171,-5.4197139740,-94.4648437500
        2.3166549206,       -0.0266479850,-0.0534423441,-0.0934475139,-6.7389917374,-4.5652217865,-90.8179931641
        2.3193109035,       -0.0056518912,-0.0348876566,-0.1080959514,-6.7389917374,-4.5652217865,-90.8179931641
        2.3220140934,       -0.0056518912,-0.0348876566,-0.1080959514,-12.1711206436,-4.2295284271,-86.4844970703
        2.3247199059,       -0.0056518912,-0.0348876566,-0.1080959514,-12.1711206436,-4.2295284271,-86.4844970703
        2.3274230957,       -0.0056518912,-0.0348876566,-0.1080959514,-17.3438491821,-4.2753047943,-82.3341064453
        2.3300499916,        0.0168090463,-0.0119384378,-0.1085842326,-17.3438491821,-4.2753047943,-82.3341064453
        2.3326210976,        0.0168090463,-0.0119384378,-0.1085842326,-21.6926040649,-4.0006465912,-78.7482910156
        2.3351969719,        0.0168090463,-0.0119384378,-0.1085842326,-21.6926040649,-4.0006465912,-78.7482910156
        2.3377709389,        0.0168090463,-0.0119384378,-0.1085842326,-25.9345474243,-4.0159053802,-75.7575683594
        2.3403499126,        0.0368285775,0.0090576559,-0.1232326701,-25.9345474243,-4.0159053802,-75.7575683594
        2.3429210186,        0.0368285775,0.0090576559,-0.1232326701,-29.7339859009,-3.8938350677,-72.9041748047
        2.3454859257,        0.0368285775,0.0090576559,-0.1232326701,-29.7339859009,-3.8938350677,-72.9041748047
        2.3481690884,        0.0368285775,0.0090576559,-0.1178615764,-33.9911880493,-3.2529659271,-69.8981933594
        2.3507618904,        0.0514770150,0.0271240622,-0.1178615764,-33.9911880493,-3.2529659271,-69.8981933594
        2.3534359932,        0.0514770150,0.0271240622,-0.1178615764,-38.4009780884,-2.5815792084,-67.2126464844
        2.3560039997,        0.0514770150,0.0271240622,-0.1178615764,-38.4009780884,-2.5815792084,-67.2126464844
        2.3586020470,        0.0514770150,0.0276123434,-0.1110256389,-42.3072280884,-1.7576045990,-64.9390869141
        2.3611741066,        0.0544067025,0.0276123434,-0.1110256389,-42.4140396118,-1.7576045990,-64.9390869141
        2.3638639450,        0.0544067025,0.0276123434,-0.1110256389,-42.4140396118,-0.3690547943,-62.8791542053
        2.3665339947,        0.0544067025,0.0276123434,-0.1110256389,-47.6935806274,-0.3690547943,-62.8791542053
        2.3695390224,        0.0573363900,0.0276123434,-0.0973537639,-55.5060806274,0.8363895416,-60.3156776428
        2.3721070290,        0.0573363900,0.0276123434,-0.0973537639,-54.3616714478,0.8363895416,-60.3156776428
        2.3746778965,        0.0573363900,0.0276123434,-0.0973537639,-54.3616714478,4.7426395416,-57.2944374084
        2.3772459030,        0.0573363900,0.0276123434,-0.0973537639,-61.5333023071,1.8129520416,-57.2944374084
        2.3798799515,        0.0671020150,0.0422607809,-0.0656154826,-61.5333023071,1.8129520416,-53.6933631897
        2.3824470043,        0.0671020150,0.0422607809,-0.0656154826,-67.6215591431,2.4080448151,-53.6933631897
        2.3850169182,        0.0671020150,0.0422607809,-0.0656154826,-67.6215591431,2.4080448151,-53.6933631897
        2.3875861168,        0.0671020150,0.0422607809,-0.0656154826,-72.5654067993,2.4843387604,-50.2601356506
        2.3901600838,        0.0797973275,0.0715576559,-0.0343654826,-72.5654067993,2.4843387604,-50.2601356506
        2.3927249908,        0.0797973275,0.0715576559,-0.0343654826,-76.4716567993,2.2707157135,-47.1473426819
        2.3952949047,        0.0797973275,0.0715576559,-0.0343654826,-76.4716567993,2.2707157135,-47.1473426819
        2.3979139328,        0.0797973275,0.0715576559,-0.0343654826,-78.9588394165,1.5535526276,-43.6530799866
        2.4004859924,        0.0866332650,0.1106201559,-0.0119045451,-78.9588394165,1.5535526276,-43.6530799866
        2.4030530453,        0.0866332650,0.1106201559,-0.0119045451,-80.7136001587,1.0347537994,-40.4029579163
        2.4056229591,        0.0866332650,0.1106201559,-0.0119045451,-80.7136001587,1.0347537994,-40.4029579163
        2.4082090855,        0.0866332650,0.1106201559,-0.0119045451,-81.0187759399,0.5617313385,-37.2596473694
        2.4107820988,        0.0729613900,0.1340576559,0.0129977986,-81.0187759399,0.5617313385,-37.2596473694
        2.4133539200,        0.0729613900,0.1340576559,0.0129977986,-79.6149673462,-0.4300899506,-34.1163368225
        2.4160211086,        0.0729613900,0.1340576559,0.0129977986,-79.6149673462,-0.4300899506,-34.1163368225
        2.4186930656,        0.0729613900,0.1340576559,0.0427829549,-76.9599380493,-1.4066524506,-31.5223426819
        2.4212639332,        0.0749145150,0.1618896872,0.0427829549,-76.9599380493,-1.4066524506,-31.5223426819
        2.4238319397,        0.0749145150,0.1618896872,0.0427829549,-76.9599380493,-2.3221797943,-28.8062782288
        2.4263989925,        0.0749145150,0.1618896872,0.0427829549,-73.8013687134,-2.3221797943,-28.8062782288
        2.4291169643,        0.0749145150,0.1789795309,0.0501071736,-73.8013687134,-2.7341670990,-25.9528846741
        2.4318180084,        0.0890746713,0.1789795309,0.0501071736,-69.9714126587,-2.7341670990,-25.9528846741
        2.4345130920,        0.0890746713,0.1789795309,0.0501071736,-69.9714126587,-4.5041866302,-23.4351844788
        2.4373290539,        0.0890746713,0.1789795309,0.0501071736,-64.4324722290,-4.5041866302,-23.4351844788
        2.4401230812,        0.0915160775,0.1692139059,0.0681735799,-60.5262222290,-6.2742061615,-20.8259315491
        2.4427978992,        0.0915160775,0.1692139059,0.0681735799,-58.8630142212,-6.2742061615,-20.8259315491
        2.4456140995,        0.0915160775,0.1692139059,0.0681735799,-51.0505142212,-7.4491329193,-18.0793495178
        2.4482300282,        0.0915160775,0.1692139059,0.0681735799,-53.4308853149,-7.4491329193,-18.0793495178
        2.4507989883,        0.0866332650,0.1560303122,0.0818454549,-53.4308853149,-7.4491329193,-14.8139686584
        2.4533689022,        0.0866332650,0.1560303122,0.0818454549,-48.0140151978,-9.4175167084,-14.8139686584
        2.4559390545,        0.0866332650,0.1560303122,0.0818454549,-48.0140151978,-9.4175167084,-12.0368690491
        2.4585630894,        0.0866332650,0.1560303122,0.0818454549,-43.1769790649,-11.9962520599,-12.0368690491
        2.4611339569,        0.0954223275,0.1443115622,0.0828220174,-43.1769790649,-11.9962520599,-8.1306190491
        2.4637079239,        0.0954223275,0.1443115622,0.0828220174,-38.9655532837,-13.3390254974,-9.6412391663
        2.4662809372,        0.0954223275,0.1443115622,0.0828220174,-38.9655532837,-13.3390254974,-9.6412391663
        2.4688611031,        0.0954223275,0.1443115622,0.0828220174,-34.9372329712,-15.2158565521,-6.2080116272
        2.4714379311,        0.0895629525,0.1389404684,0.0706149861,-34.9372329712,-15.2158565521,-6.2080116272
        2.4740130901,        0.0895629525,0.1389404684,0.0706149861,-31.9465103149,-17.3673458099,-2.2559852600
        2.4765839577,        0.0895629525,0.1389404684,0.0706149861,-31.9465103149,-17.3673458099,-2.2559852600
        2.4791688919,        0.0895629525,0.1389404684,0.1111423299,-32.0075454712,-21.3498897552,-0.3028602600
        2.4818561077,        0.0382934213,0.0285889059,0.1111423299,-32.0075454712,-21.3498897552,-0.3028602600
        2.4844350815,        0.0382934213,0.0285889059,0.1111423299,-32.8162612915,-22.7994747162,0.5516319275
        2.4870140553,        0.0382934213,0.0285889059,0.1111423299,-32.8162612915,-22.7994747162,0.5516319275
        2.4896669388,        0.0382934213,0.0285889059,-0.0978420451,-24.8206558228,-18.0845088959,5.4802207947
        2.4922499657,       -0.0906128287,0.0515381247,-0.0978420451,-24.8206558228,-18.0845088959,5.4802207947
        2.4948348999,       -0.0906128287,0.0515381247,-0.0978420451,-25.2784194946,-14.1019649506,12.7891807556
        2.4974129200,       -0.0906128287,0.0515381247,-0.0978420451,-25.2784194946,-14.1019649506,12.7891807556
        2.5002129078,       -0.2156128287,-0.1320556253,-0.2077053189,-38.1873550415,-6.8540401459,17.4431114197
        2.5029139519,       -0.1369995475,-0.1320556253,-0.2077053189,-38.1873550415,-6.8540401459,17.4431114197
        2.5056231022,       -0.1369995475,-0.1320556253,-0.2077053189,-46.6865005493,2.6979618073,16.4512901306
        2.5083498955,       -0.1369995475,-0.1320556253,-0.2077053189,-46.6865005493,2.6979618073,16.4512901306
        2.5109291077,       -0.1477417350,-0.6193603277,-0.4171779752,-50.5927505493,6.7415409088,12.9570274353
        2.5135049820,       -0.1477417350,-0.6193603277,-0.4171779752,-53.3851089478,6.7415409088,12.9570274353
        2.5160748959,       -0.1477417350,-0.6193603277,-0.4171779752,-53.3851089478,6.7415409088,9.9815635681
        2.5186550617,       -0.1477417350,-0.6193603277,-0.4171779752,-64.1120376587,5.7497196198,9.9815635681
        2.5212280750,       -0.0945190787,-0.7536376715,-0.3620021939,-64.1120376587,5.7497196198,9.2491416931
        2.5237979889,       -0.0945190787,-0.7536376715,-0.3620021939,-80.6678237915,2.6521854401,9.2491416931
        2.5263628960,       -0.0945190787,-0.7536376715,-0.3620021939,-80.6678237915,2.6521854401,9.2491416931
        2.5289969444,       -0.0945190787,-0.7536376715,-0.3620021939,-97.3456802368,2.0113162994,8.2420616150
        2.5315649509,       -0.1311401725,-0.6110595465,-0.3595607877,-97.3456802368,2.0113162994,8.2420616150
        2.5341351032,       -0.1311401725,-0.6110595465,-0.3595607877,-107.3859634399,5.2766971588,9.0355186462
        2.5367069244,       -0.1311401725,-0.6110595465,-0.3595607877,-107.3859634399,5.2766971588,9.0355186462
        2.5394859314,       -0.1311401725,-0.6110595465,-0.3595607877,-118.4638442993,5.0478153229,13.9183311462
        2.5420598984,       -0.0661987662,-0.1896728128,-0.2340725064,-118.4638442993,5.0478153229,17.8245811462
        2.5456140041,       -0.0661987662,-0.1896728128,-0.2340725064,-129.3586273193,0.4549198151,19.2283897400
        2.5482249260,       -0.0661987662,-0.1896728128,-0.2340725064,-129.3586273193,0.4549198151,23.1346397400
        2.5508019924,       -0.0632690787,0.0793701559,-0.0700100139,-134.7144622803,-6.0148067474,23.9128379822
        2.5533790588,       -0.0632690787,0.0793701559,-0.0700100139,-134.7144622803,-6.0148067474,23.9128379822
        2.5559539795,       -0.0632690787,0.0793701559,-0.0700100139,-133.6310882568,-12.1488399506,29.1160850525
        2.5585761070,       -0.0632690787,0.0793701559,-0.0700100139,-133.6310882568,-12.1488399506,29.1160850525
        2.5611538887,       -0.1145386100,0.1643310934,-0.0221584514,-126.9782485962,-16.4975948334,34.3651084900
        2.5637269020,       -0.1145386100,0.1643310934,-0.0221584514,-126.9782485962,-16.4975948334,34.3651084900
        2.5663020611,       -0.1145386100,0.1643310934,-0.0221584514,-115.5951919556,-20.1749629974,37.4473838806
        2.5689620972,       -0.1145386100,0.1643310934,-0.0221584514,-115.5951919556,-20.1749629974,37.4473838806
        2.5715379715,       -0.1277222037,0.0974365622,-0.0407131389,-99.1614761353,-22.6774044037,37.0048789978
        2.5741150379,       -0.1277222037,0.0974365622,-0.0407131389,-99.1614761353,-22.6774044037,37.0048789978
        2.5766930580,       -0.1277222037,0.0974365622,-0.0407131389,-79.5234146118,-23.8675899506,36.0588340759
        2.5793180466,       -0.1277222037,0.0974365622,-0.0407131389,-79.5234146118,-23.8675899506,36.0588340759
        2.5818939209,       -0.1096557975,0.0510498434,-0.0763576701,-60.5719985962,-24.7373409271,33.9226036072
        2.5844750404,       -0.1096557975,0.0510498434,-0.0763576701,-60.5719985962,-24.7373409271,33.9226036072
        2.5870499611,       -0.1096557975,0.0510498434,-0.0763576701,-60.5719985962,-24.3406124115,31.8474082947
        2.5896759033,       -0.1096557975,0.0510498434,-0.0763576701,-42.8565444946,-24.3406124115,31.8474082947
        2.5922489166,       -0.0759643912,0.0085693747,-0.1183498576,-42.8565444946,-24.3406124115,30.6877403259
        2.5948200226,       -0.0759643912,0.0085693747,-0.1183498576,-29.3219985962,-23.3335323334,30.6877403259
        2.5973970890,       -0.0759643912,0.0085693747,-0.1183498576,-29.3219985962,-23.3335323334,30.5351524353
        2.6000530720,       -0.0759643912,0.0085693747,-0.1183498576,-20.8838882446,-21.3193721771,30.5351524353
        2.6026289463,       -0.0578979850,-0.0075439066,-0.1041897014,-20.8838882446,-21.3193721771,30.5351524353
        2.6051969528,       -0.0578979850,-0.0075439066,-0.1041897014,-16.6266860962,-19.6866817474,31.4049034119
        2.6079571247,       -0.0578979850,-0.0075439066,-0.1041897014,-16.6266860962,-19.6866817474,31.4049034119
        2.6106669903,       -0.0578979850,-0.0075439066,-0.0465725139,-14.6277856827,-18.6338253021,32.1983604431
        2.6133720875,       -0.0095581412,-0.0314696878,-0.0465725139,-14.6277856827,-18.6338253021,32.1983604431
        2.6160728931,       -0.0095581412,-0.0314696878,-0.0465725139,-12.0795679092,-17.9776973724,32.9460411072
        2.6187870502,       -0.0095581412,-0.0314696878,-0.0465725139,-12.0795679092,-17.9776973724,32.9460411072
        2.6214890480,        0.0260863900,-0.0446532816,-0.0026272014,-9.5771265030,-17.8861446381,33.1901817322
        2.6241910458,        0.0260863900,-0.0446532816,-0.0026272014,-9.5771265030,-17.8861446381,33.1901817322
        2.6268999577,        0.0260863900,-0.0446532816,-0.0026272014,-6.3270044327,-18.1150264740,32.7476768494
        2.6296129227,        0.0260863900,-0.0446532816,-0.0026272014,-6.3270044327,-18.1150264740,32.7476768494
        2.6323180199,        0.0588012338,-0.0671142191,-0.0153225139,-2.2986841202,-18.0692501068,31.2523155212
        2.6350240707,        0.0588012338,-0.0671142191,-0.0153225139,-2.2986841202,-18.0692501068,31.2523155212
        2.6377379894,        0.0588012338,-0.0671142191,-0.0153225139,1.0887670517,-17.8098506927,28.8566856384
        2.6403939724,        0.0588012338,-0.0671142191,-0.0153225139,1.0887670517,-17.8098506927,28.8566856384
        2.6429650784,        0.0880981088,-0.0431884378,-0.0197170451,1.9890356064,-18.3439083099,27.6817588806
        2.6455419064,        0.0880981088,-0.0431884378,-0.0197170451,1.9890356064,-18.3439083099,27.6817588806
        2.6481800079,        0.0880981088,-0.0431884378,-0.0197170451,-4.2060327530,-20.8768672943,28.2921104431
        2.6508860588,        0.0880981088,-0.0431884378,0.0432712361,-4.2060327530,-20.8768672943,28.2921104431
        2.6536240578,        0.0622192025,-0.0221923441,0.0432712361,-11.8506860733,-23.3335323334,27.7427940369
        2.6565129757,        0.0622192025,-0.0221923441,0.0432712361,-11.8506860733,-23.3335323334,26.3542442322
        2.6600749493,        0.0622192025,-0.0221923441,0.0432712361,-16.9776382446,-24.8746700287,26.3542442322
        2.6626479626,        0.0426879525,-0.0783446878,0.0588962361,-16.9776382446,-24.8746700287,26.3542442322
        2.6652250290,        0.0426879525,-0.0783446878,0.0588962361,-21.9214859009,-25.1798458099,25.1030235291
        2.6677989960,        0.0426879525,-0.0783446878,0.0588962361,-21.9214859009,-25.1798458099,25.1030235291
        2.6703760624,        0.0426879525,-0.0783446878,0.0588962361,-27.3383560181,-24.8746700287,23.1804161072
        2.6730639935,        0.0553832650,-0.0685790628,0.0579196736,-27.3383560181,-24.8746700287,23.1804161072
        2.6756360531,        0.0553832650,-0.0685790628,0.0579196736,-31.0157241821,-24.6305294037,21.0594444275
        2.6782150269,        0.0553832650,-0.0685790628,0.0579196736,-31.0157241821,-24.6305294037,21.0594444275
        2.6807909012,        0.0553832650,-0.0685790628,0.0579196736,-32.5263442993,-24.1117305756,19.7471885681
        2.6833660603,        0.0343871713,-0.0031493753,0.0276462361,-32.5263442993,-24.1117305756,19.7471885681
        2.6859381199,        0.0343871713,-0.0031493753,0.0276462361,-30.9852066040,-23.6234493256,18.2976036072
        2.6885859966,        0.0343871713,-0.0031493753,0.0276462361,-30.9852066040,-23.6234493256,18.2976036072
        2.6911580563,        0.0343871713,-0.0031493753,0.0276462361,-28.0707778931,-22.7384395599,16.7869834900
        2.6937320232,       -0.0007690787,0.0554443747,0.0115329549,-28.0707778931,-22.7384395599,16.7869834900
        2.6963078976,       -0.0007690787,0.0554443747,0.0115329549,-24.2103042603,-22.7842159271,14.7423057556
        2.6989510059,       -0.0007690787,0.0554443747,0.0115329549,-24.2103042603,-22.7842159271,14.7423057556
        2.7015230656,       -0.0007690787,0.0554443747,-0.0285061076,-16.3978042603,-23.2114620209,12.0872764587
        2.7040979862,       -0.0119995475,0.0627685934,-0.0285061076,-17.6795425415,-23.2114620209,12.0872764587
        2.7066729069,       -0.0119995475,0.0627685934,-0.0285061076,-17.6795425415,-23.2114620209,9.6916465759
        2.7092840672,       -0.0119995475,0.0627685934,-0.0285061076,-8.4784936905,-22.7231807709,9.6916465759
        2.7118520737,       -0.0119995475,0.0993896872,-0.0675686076,-8.4784936905,-22.7231807709,8.0284385681
        2.7144229412,       -0.0232300162,0.0993896872,-0.0675686076,1.5160131454,-21.6245479584,8.0284385681
        2.7169880867,       -0.0232300162,0.0993896872,-0.0675686076,1.5160131454,-21.6245479584,8.0284385681
        2.7196729183,       -0.0232300162,0.0993896872,-0.0675686076,11.3426733017,-21.9297237396,6.0447959900
        2.7222459316,       -0.0232300162,0.0617920309,-0.0831936076,11.3426733017,-21.9297237396,6.0447959900
        2.7248198986,       -0.0476440787,0.0617920309,-0.0831936076,18.8957748413,-22.3722286224,4.3815879822
        2.7273941040,       -0.0476440787,0.0617920309,-0.0831936076,18.8957748413,-22.3722286224,4.3815879822
        2.7299740314,       -0.0476440787,0.0617920309,-0.0831936076,23.7328109741,-22.2501583099,3.0235557556
        2.7325479984,       -0.0754761100,-0.0265868753,-0.0617092326,23.7328109741,-22.2501583099,3.0235557556
        2.7352409363,       -0.0754761100,-0.0265868753,-0.0617092326,25.1366195679,-22.4790401459,2.6268272400
        2.7378220558,       -0.0754761100,-0.0265868753,-0.0617092326,25.1366195679,-22.4790401459,2.6268272400
        2.7405309677,       -0.0754761100,-0.0265868753,-0.0617092326,23.0461654663,-22.3264522552,2.5657920837
        2.7432420254,       -0.0378784537,-0.0695556253,-0.0416897014,23.0461654663,-22.3264522552,2.5657920837
        2.7459459305,       -0.0378784537,-0.0695556253,-0.0416897014,18.5295639038,-22.2196407318,2.6726036072
        2.7486619949,       -0.0378784537,-0.0695556253,-0.0416897014,18.5295639038,-22.2196407318,2.6726036072
        2.7513699532,       -0.0378784537,-0.0695556253,-0.0416897014,12.6244115829,-22.0975704193,2.5047569275
        2.7540760040,       -0.0051636100,-0.0685790628,0.0120212361,12.6244115829,-22.0975704193,2.5047569275
        2.7567830086,       -0.0051636100,-0.0685790628,0.0120212361,6.4751195908,-21.8534297943,2.5810508728
        2.7594969273,       -0.0051636100,-0.0685790628,0.0120212361,6.4751195908,-21.8534297943,2.5810508728
        2.7622070312,       -0.0051636100,-0.0685790628,0.0379001424,2.4773168564,-21.8381710052,2.0469932556
        2.7649159431,        0.0202270150,-0.0641845316,0.0379001424,2.4773168564,-21.8381710052,2.0469932556
        2.7676229477,        0.0202270150,-0.0641845316,0.0379001424,-0.0251245499,-21.2735958099,0.9331016541
        2.7702519894,        0.0202270150,-0.0641845316,0.0379001424,-0.0251245499,-21.2735958099,0.9331016541
        2.7728219032,        0.0202270150,-0.0153564066,0.0711032674,-0.1166772842,-20.1291866302,0.4143028259
        2.7756230831,        0.0187621713,-0.0153564066,0.0711032674,-0.1166772842,-20.1291866302,0.4143028259
        2.7784509659,        0.0187621713,-0.0153564066,0.0711032674,2.5536108017,-18.2828731537,-0.8674354553
        2.7811651230,        0.0187621713,-0.0153564066,0.0711032674,2.5536108017,-18.2828731537,-0.8674354553
        2.7838759422,       -0.0012573600,0.0652099997,0.0422946736,8.5045385361,-16.0550899506,-2.1949501038
        2.7865829468,       -0.0012573600,0.0652099997,0.0422946736,8.5045385361,-16.0550899506,-2.1949501038
        2.7893040180,       -0.0012573600,0.0652099997,0.0422946736,14.6843481064,-15.1700801849,-3.2935829163
        2.7920119762,       -0.0012573600,0.0652099997,0.0422946736,14.6843481064,-15.1700801849,-3.2935829163
        2.7947180271,       -0.0242065787,0.0495849997,0.0261813924,20.1622543335,-15.0785274506,-5.1704139709
        2.7974269390,       -0.0242065787,0.0495849997,0.0261813924,20.1622543335,-15.0785274506,-5.1704139709
        2.8002929688,       -0.0242065787,0.0495849997,0.0261813924,24.2210922241,-15.3531856537,-6.7725868225
        2.8030068874,       -0.0242065787,-0.0314696878,0.0242282674,24.2210922241,-15.3531856537,-6.7725868225
        2.8057169914,       -0.0163940787,-0.0314696878,0.0242282674,27.8221664429,-15.0480098724,-7.9627723694
        2.8084099293,       -0.0163940787,-0.0314696878,0.0242282674,27.8221664429,-15.0480098724,-7.9627723694
        2.8109869957,       -0.0163940787,-0.0314696878,0.0242282674,29.6532211304,-13.5221309662,-8.9393348694
        2.8135600090,       -0.0080932975,-0.0505126566,0.0374118611,29.6532211304,-13.5221309662,-8.9393348694
        2.8161408901,       -0.0080932975,-0.0505126566,0.0374118611,29.4395980835,-12.4387569427,-8.7562294006
        2.8187611103,       -0.0080932975,-0.0505126566,0.0374118611,29.4395980835,-12.4387569427,-8.7562294006
        2.8213410378,       -0.0080932975,-0.0505126566,0.0374118611,25.5333480835,-12.4692745209,-8.3595008850
        2.8239209652,        0.0011840463,-0.0602782816,0.0310642049,26.4793930054,-12.4692745209,-8.3595008850
        2.8264980316,        0.0011840463,-0.0602782816,0.0310642049,22.5731430054,-12.6676387787,-8.3900184631
        2.8292510509,        0.0011840463,-0.0602782816,0.0310642049,23.0461654663,-12.6676387787,-8.3900184631
        2.8318281174,        0.0011840463,-0.0602782816,0.0310642049,23.0461654663,-12.6676387787,-8.9698524475
        2.8344070911,        0.0031371713,-0.0534423441,0.0305759236,21.4134750366,-11.7063350677,-8.9698524475
