time, acceleration x, acceleration y, acceleration z, gyro x gyro y, gyro z
        0.0000000000,        0.1057040095,-0.0125922859,-0.0799185634,-13.1638259888,9.6533679962,-49.5271186829
        0.0026550293,        0.1057040095,-0.0125922859,-0.0799185634,-12.5839920044,9.3481922150,-49.2829780579
        0.0055890083,        0.1057040095,-0.0125922859,-0.0799185634,-12.5839920044,9.3481922150,-49.2829780579
        0.0083019733,        0.0983797908,-0.0052680671,-0.0721060634,-12.1262283325,9.2871570587,-49.1456489563
        0.0109970570,        0.0983797908,-0.0052680671,-0.0721060634,-12.1262283325,9.2871570587,-49.1456489563
        0.0136921406,        0.0983797908,-0.0052680671,-0.0721060634,-12.3551101685,9.2261219025,-49.4050483704
        0.0163869858,        0.0983797908,-0.0052680671,-0.0721060634,-12.3551101685,9.2261219025,-49.4050483704
        0.0190989971,        0.1061922908,-0.0155219734,-0.0677115321,-12.7670974731,9.2871570587,-49.4355659485
        0.0217959881,        0.1061922908,-0.0155219734,-0.0677115321,-12.7670974731,9.2871570587,-49.4355659485
        0.0244910717,        0.1061922908,-0.0155219734,-0.0677115321,-12.7976150513,9.4397449493,-49.1609077454
        0.0271880627,        0.1061922908,-0.0155219734,-0.0701529384,-12.7976150513,9.4397449493,-49.1609077454
        0.0297930241,        0.1071688533,-0.0160102546,-0.0701529384,-12.7823562622,9.2413806915,-49.2066841125
        0.0323500633,        0.1071688533,-0.0160102546,-0.0701529384,-12.7823562622,9.2413806915,-49.2066841125
        0.0349130630,        0.1071688533,-0.0160102546,-0.0701529384,-13.1027908325,9.4702625275,-49.2524604797
        0.0374860764,        0.1071688533,-0.0160102546,-0.0686880946,-13.1027908325,9.4702625275,-49.2524604797
        0.0401871204,        0.1027743220,-0.0160102546,-0.0686880946,-12.8891677856,9.5770740509,-49.1761665344
        0.0427551270,        0.1027743220,-0.0160102546,-0.0686880946,-12.8891677856,9.5770740509,-49.1761665344
        0.0453231335,        0.1027743220,-0.0160102546,-0.0686880946,-12.4008865356,9.5923328400,-49.0540962219
        0.0479450226,        0.1027743220,-0.0155219734,-0.0613638759,-12.4008865356,9.5923328400,-49.0540962219
        0.0505199432,        0.1047274470,-0.0155219734,-0.0613638759,-12.4008865356,9.5007801056,-49.4813423157
        0.0532441139,        0.1047274470,-0.0155219734,-0.0613638759,-12.4314041138,9.5007801056,-49.4813423157
        0.0558180809,        0.1047274470,-0.0155219734,-0.0613638759,-12.4314041138,9.5007801056,-49.4050483704
        0.0584280491,        0.1091219783,-0.0067329109,-0.0691763759,-12.4619216919,9.4702625275,-49.4050483704
        0.0611181259,        0.1091219783,-0.0067329109,-0.0691763759,-12.4619216919,9.4702625275,-49.0235786438
        0.0638020039,        0.1091219783,-0.0067329109,-0.0691763759,-12.0499343872,9.4550037384,-49.0235786438
        0.0664851665,        0.1091219783,-0.0067329109,-0.0691763759,-12.0499343872,9.4550037384,-49.1456489563
        0.0691771507,        0.1076571345,-0.0101508796,-0.0642935634,-11.8057937622,9.2566394806,-49.1456489563
        0.0718641281,        0.1076571345,-0.0101508796,-0.0642935634,-11.8057937622,9.2566394806,-49.4203071594
        0.0745511055,        0.1076571345,-0.0101508796,-0.0642935634,-12.4771804810,9.6075916290,-49.4203071594
        0.0772380829,        0.1076571345,-0.0101508796,-0.0642935634,-12.4771804810,9.6075916290,-49.4050483704
        0.0798730850,        0.1057040095,-0.0121040046,-0.0686880946,-12.3398513794,9.3939685822,-49.4050483704
        0.0824410915,        0.1057040095,-0.0121040046,-0.0686880946,-12.3398513794,9.3939685822,-49.4050483704
        0.0850069523,        0.1057040095,-0.0121040046,-0.0686880946,-12.4161453247,9.1956043243,-49.4813423157
        0.0875749588,        0.1057040095,-0.0121040046,-0.0716177821,-12.4161453247,9.1956043243,-49.4813423157
        0.0904369354,        0.1052157283,-0.0130805671,-0.0716177821,-12.7670974731,9.6228504181,-49.4966011047
        0.0930020809,        0.1052157283,-0.0130805671,-0.0716177821,-12.7670974731,9.6228504181,-49.4966011047
        0.0955641270,        0.1052157283,-0.0130805671,-0.0716177821,-12.8281326294,9.1650867462,-49.7865180969
        0.0982770920,        0.1052157283,-0.0125922859,-0.0677115321,-12.8281326294,9.1650867462,-49.7865180969
        0.1009521484,        0.1037508845,-0.0125922859,-0.0677115321,-12.8128738403,9.5312976837,-49.6339302063
        0.1037149429,        0.1037508845,-0.0125922859,-0.0677115321,-12.8128738403,9.5312976837,-49.6339302063
        0.1065621376,        0.1037508845,-0.0125922859,-0.0677115321,-13.1790847778,9.9127674103,-49.5728950500
        0.1092829704,        0.1096102595,-0.0096625984,-0.0765005946,-13.1790847778,9.9127674103,-49.5728950500
        0.1119849682,        0.1096102595,-0.0096625984,-0.0765005946,-12.8586502075,9.6228504181,-49.5728950500
        0.1146841049,        0.1096102595,-0.0096625984,-0.0765005946,-12.8586502075,9.6228504181,-49.5728950500
        0.1174941063,        0.1096102595,-0.0096625984,-0.0765005946,-12.8433914185,9.4244861603,-49.5423774719
        0.1201989651,        0.1091219783,-0.0106391609,-0.0672232509,-12.8433914185,9.4244861603,-49.5423774719
        0.1228981018,        0.1091219783,-0.0106391609,-0.0672232509,-13.1333084106,9.2871570587,-49.6186714172
        0.1256000996,        0.1091219783,-0.0106391609,-0.0672232509,-13.1333084106,9.2871570587,-49.6186714172
        0.1282930374,        0.1091219783,-0.0106391609,-0.0677115321,-13.3164138794,9.4244861603,-49.7560005188
        0.1308579445,        0.1091219783,-0.0077094734,-0.0677115321,-13.3164138794,9.4244861603,-49.7560005188
        0.1334259510,        0.1091219783,-0.0077094734,-0.0677115321,-13.5452957153,9.7296619415,-49.7254829407
        0.1359910965,        0.1091219783,-0.0077094734,-0.0677115321,-13.5452957153,9.7296619415,-49.7254829407
        0.1385681629,        0.1091219783,-0.0101508796,-0.0730826259,-13.3927078247,9.7906970978,-49.8170356750
        0.1411359310,        0.1081454158,-0.0101508796,-0.0730826259,-13.3927078247,9.7906970978,-49.8170356750
        0.1436989307,        0.1081454158,-0.0101508796,-0.0730826259,-13.2553787231,9.8212146759,-49.6186714172
        0.1462640762,        0.1081454158,-0.0101508796,-0.0730826259,-13.2553787231,9.8212146759,-49.6186714172
        0.1489789486,        0.1081454158,-0.0140571296,-0.0657584071,-13.2096023560,9.6533679962,-49.5728950500
        0.1515469551,        0.0978915095,-0.0140571296,-0.0657584071,-13.2096023560,9.6533679962,-49.5728950500
        0.1541161537,        0.0978915095,-0.0140571296,-0.0657584071,-13.2096023560,9.4855213165,-49.6339302063
        0.1566760540,        0.0978915095,-0.0140571296,-0.0657584071,-13.0875320435,9.4855213165,-49.6339302063
        0.1594209671,        0.1110751033,-0.0174750984,-0.0623404384,-13.0875320435,9.8212146759,-49.6644477844
        0.1621251106,        0.1110751033,-0.0174750984,-0.0623404384,-13.6063308716,9.8212146759,-49.6644477844
        0.1648280621,        0.1110751033,-0.0174750984,-0.0623404384,-13.6063308716,9.8059558868,-49.6034126282
        0.1675260067,        0.1110751033,-0.0174750984,-0.0623404384,-13.6673660278,9.8059558868,-49.6034126282
        0.1702871323,        0.1003329158,-0.0081977546,-0.0706412196,-13.6673660278,9.5160388947,-49.6644477844
        0.1729850769,        0.1003329158,-0.0081977546,-0.0706412196,-13.7741775513,9.5160388947,-49.6644477844
        0.1756851673,        0.1003329158,-0.0081977546,-0.0706412196,-13.7741775513,9.5465564728,-49.6339302063
        0.1783621311,        0.1003329158,-0.0081977546,-0.0706412196,-14.0030593872,9.5465564728,-49.6339302063
        0.1810431480,        0.1013094783,-0.0062446296,-0.0721060634,-14.0030593872,9.5465564728,-49.6034126282
        0.1836099625,        0.1013094783,-0.0062446296,-0.0721060634,-13.9267654419,9.6228504181,-49.6034126282
        0.1861710548,        0.1013094783,-0.0062446296,-0.0721060634,-13.9267654419,9.6228504181,-49.6034126282
        0.1887941360,        0.1013094783,-0.0062446296,-0.0667349696,-13.6978836060,9.6228504181,-49.6034126282
        0.1914930344,        0.1008211970,-0.0121040046,-0.0667349696,-13.6978836060,9.6228504181,-49.6949653625
        0.1941900253,        0.1008211970,-0.0121040046,-0.0667349696,-13.2401199341,9.6381092072,-49.6949653625
        0.1968920231,        0.1008211970,-0.0121040046,-0.0667349696,-13.2401199341,9.6381092072,-49.5118598938
        0.1995990276,        0.1013094783,-0.0116157234,-0.0594107509,-13.4079666138,9.7144031525,-49.5118598938
        0.2022981644,        0.1013094783,-0.0116157234,-0.0594107509,-13.4079666138,9.7144031525,-49.4966011047
        0.2049961090,        0.1013094783,-0.0116157234,-0.0594107509,-13.4842605591,9.6381092072,-49.4966011047
        0.2076959610,        0.1013094783,-0.0116157234,-0.0594107509,-13.4842605591,9.6381092072,-49.6491889954
        0.2104101181,        0.1013094783,-0.0077094734,-0.0779654384,-13.3927078247,9.5465564728,-49.6491889954
        0.2131090164,        0.1013094783,-0.0077094734,-0.0779654384,-13.3927078247,9.5465564728,-49.8322944641
        0.2159750462,        0.1013094783,-0.0077094734,-0.0779654384,-13.8352127075,9.6075916290,-49.8322944641
        0.2194240093,        0.1013094783,-0.0121040046,-0.0638052821,-13.8352127075,9.6686267853,-49.9848823547
        0.2219891548,        0.1008211970,-0.0121040046,-0.0638052821,-13.2706375122,9.6686267853,-49.9848823547
        0.2245521545,        0.1008211970,-0.0121040046,-0.0638052821,-13.2706375122,9.6686267853,-49.8475532532
        0.2271151543,        0.1008211970,-0.0121040046,-0.0638052821,-13.3469314575,9.7601795197,-49.8475532532
        0.2298030853,        0.1008211970,-0.0145454109,-0.0628287196,-13.3469314575,9.7601795197,-49.8017768860
        0.2323679924,        0.1017977595,-0.0145454109,-0.0628287196,-13.3469314575,9.4702625275,-49.8017768860
        0.2349231243,        0.1017977595,-0.0145454109,-0.0628287196,-13.3469314575,9.4702625275,-49.8017768860
        0.2374839783,        0.1017977595,-0.0145454109,-0.0628287196,-12.8891677856,9.5160388947,-49.9848823547
        0.2400560379,        0.1027743220,-0.0125922859,-0.0672232509,-12.8891677856,9.5160388947,-49.9848823547
        0.2426221371,        0.1027743220,-0.0125922859,-0.0672232509,-12.5992507935,9.5160388947,-49.8017768860
        0.2452890873,        0.1027743220,-0.0125922859,-0.0672232509,-12.5992507935,9.5160388947,-49.8017768860
        0.2478511333,        0.1027743220,-0.0125922859,-0.0672232509,-12.8586502075,9.4550037384,-49.8628120422
        0.2504091263,        0.1047274470,-0.0106391609,-0.0696646571,-12.8586502075,9.4550037384,-49.8628120422
        0.2529690266,        0.1047274470,-0.0106391609,-0.0696646571,-12.9959793091,9.1193103790,-49.9238471985
        0.2555279732,        0.1047274470,-0.0106391609,-0.0696646571,-12.9959793091,9.1193103790,-49.9238471985
        0.2581281662,        0.1047274470,-0.0106391609,-0.0696646571,-13.1027908325,9.1650867462,-49.9391059875
        0.2606949806,        0.1076571345,-0.0150336921,-0.0711295009,-13.1027908325,9.1650867462,-49.9391059875
        0.2632639408,        0.1076571345,-0.0150336921,-0.0711295009,-13.4384841919,9.2718982697,-49.8322944641
        0.2658240795,        0.1076571345,-0.0150336921,-0.0711295009,-13.4384841919,9.2718982697,-49.8322944641
        0.2684299946,        0.1076571345,-0.0150336921,-0.0711295009,-9.5322341919,9.3024158478,-49.9085884094
        0.2709889412,        0.1071688533,-0.0067329109,-0.0721060634,-12.6602859497,9.3024158478,-49.9085884094
        0.2735500336,        0.1071688533,-0.0067329109,-0.0721060634,-12.6602859497,9.3024158478,-50.0001411438
        0.2761099339,        0.1071688533,-0.0067329109,-0.0721060634,-12.7976150513,9.3939685822,-50.0001411438
        0.2787771225,        0.1071688533,-0.0067329109,-0.0721060634,-12.7976150513,9.3939685822,-49.9391059875
        0.2813429832,        0.1120516658,-0.0160102546,-0.0691763759,-12.6297683716,9.6075916290,-49.9391059875
        0.2839059830,        0.1120516658,-0.0160102546,-0.0691763759,-12.6297683716,9.6075916290,-49.9391059875
        0.2864711285,        0.1120516658,-0.0160102546,-0.0691763759,-13.2858963013,9.7906970978,-49.6644477844
        0.2890570164,        0.1120516658,-0.0160102546,-0.0691763759,-13.2858963013,9.7906970978,-49.6644477844
        0.2916171551,        0.1052157283,-0.0160102546,-0.0633170009,-13.3011550903,9.8669910431,-49.6491889954
        0.2941751480,        0.1052157283,-0.0160102546,-0.0633170009,-13.3011550903,9.8669910431,-49.6491889954
        0.2967410088,        0.1052157283,-0.0160102546,-0.0633170009,-12.8739089966,9.7144031525,-49.7712593079
        0.2993929386,        0.1052157283,-0.0160102546,-0.0633170009,-12.8739089966,9.7144031525,-49.7712593079
        0.3021030426,        0.1071688533,-0.0106391609,-0.0779654384,-12.8739089966,9.5007801056,-49.9085884094
        0.3048009872,        0.1071688533,-0.0106391609,-0.0779654384,-12.8739089966,9.5007801056,-49.9085884094
        0.3076059818,        0.1071688533,-0.0106391609,-0.0779654384,-12.6602859497,9.6228504181,-49.9391059875
        0.3103189468,        0.1071688533,-0.0155219734,-0.0638052821,-12.6602859497,9.6228504181,-49.9391059875
        0.3130140305,        0.1076571345,-0.0155219734,-0.0638052821,-12.8281326294,9.5618152618,-50.1069526672
        0.3157091141,        0.1076571345,-0.0155219734,-0.0638052821,-12.8281326294,9.5618152618,-50.1069526672
        0.3184111118,        0.1076571345,-0.0155219734,-0.0638052821,-12.2635574341,9.5923328400,-49.8475532532
        0.3211121559,        0.1076571345,-0.0072211921,-0.0633170009,-12.2635574341,9.5923328400,-49.8475532532
        0.3238091469,        0.1076571345,-0.0072211921,-0.0633170009,-12.9349441528,9.6075916290,-49.7407417297
        0.3265049458,        0.1076571345,-0.0072211921,-0.0633170009,-12.9349441528,9.6075916290,-49.7407417297
        0.3291599751,        0.1076571345,-0.0072211921,-0.0633170009,-12.8433914185,9.8059558868,-49.9543647766
        0.3317310810,        0.1017977595,-0.0077094734,-0.0730826259,-12.8433914185,9.8059558868,-49.9543647766
        0.3343441486,        0.1017977595,-0.0077094734,-0.0730826259,-13.0112380981,10.0806140900,-50.0764350891
        0.3369250298,        0.1017977595,-0.0077094734,-0.0730826259,-13.0112380981,10.0806140900,-50.0764350891
        0.3395600319,        0.1017977595,-0.0077094734,-0.0730826259,-12.8281326294,9.8059558868,-50.0916938782
        0.3422241211,        0.1037508845,-0.0062446296,-0.0711295009,-12.8281326294,9.8059558868,-50.0916938782
        0.3449230194,        0.1037508845,-0.0062446296,-0.0711295009,-12.5076980591,9.2566394806,-50.5494575500
        0.3476250172,        0.1037508845,-0.0062446296,-0.0711295009,-12.5076980591,9.2566394806,-50.5494575500
        0.3503439426,        0.1037508845,-0.0062446296,-0.0681998134,-12.7365798950,9.3939685822,-50.6562690735
        0.3530390263,        0.1017977595,-0.0140571296,-0.0681998134,-12.7365798950,9.3939685822,-50.6562690735
        0.3557460308,        0.1017977595,-0.0140571296,-0.0681998134,-12.5229568481,9.3634510040,-50.5952339172
        0.3584840298,        0.1017977595,-0.0140571296,-0.0681998134,-12.5229568481,9.3634510040,-50.5952339172
        0.3611819744,        0.1017977595,-0.0140571296,-0.0667349696,-12.5534744263,9.3481922150,-50.3816108704
        0.3638870716,        0.1017977595,-0.0140571296,-0.0667349696,-12.5534744263,9.3481922150,-50.3816108704
        0.3665831089,        0.1017977595,-0.0140571296,-0.0667349696,-12.8281326294,9.7754383087,-50.2137641907
        0.3692259789,        0.1017977595,-0.0140571296,-0.0667349696,-12.8281326294,9.7754383087,-50.2137641907
        0.3718950748,        0.1013094783,-0.0160102546,-0.0608755946,-12.7976150513,9.8669910431,-49.9238471985
        0.3744659424,        0.1013094783,-0.0160102546,-0.0608755946,-12.7976150513,9.8669910431,-49.9238471985
        0.3770339489,        0.1013094783,-0.0160102546,-0.0608755946,-12.7976150513,9.7601795197,-50.1985054016
        0.3797500134,        0.1013094783,-0.0160102546,-0.0608755946,-12.8128738403,9.7601795197,-50.1985054016
        0.3823170662,        0.0983797908,-0.0116157234,-0.0711295009,-12.8128738403,5.8539295197,-50.2137641907
        0.3848869801,        0.0983797908,-0.0116157234,-0.0711295009,-12.6755447388,9.5618152618,-50.2137641907
        0.3874549866,        0.0983797908,-0.0116157234,-0.0711295009,-12.6755447388,9.5618152618,-49.8170356750
        0.3902361393,        0.0983797908,-0.0116157234,-0.0711295009,-12.6450271606,9.7601795197,-49.8170356750
        0.3929419518,        0.1091219783,-0.0130805671,-0.0662466884,-12.6450271606,9.7601795197,-49.6949653625
        0.3956480026,        0.1091219783,-0.0130805671,-0.0662466884,-12.6450271606,9.7601795197,-49.6949653625
        0.3983609676,        0.1091219783,-0.0130805671,-0.0662466884,-12.6450271606,9.7601795197,-49.8780708313
        0.4010610580,        0.1091219783,-0.0145454109,-0.0638052821,-12.8281326294,10.0043201447,-49.8780708313
        0.4037599564,        0.1022860408,-0.0145454109,-0.0638052821,-12.8281326294,10.0043201447,-49.8322944641
        0.4064640999,        0.1022860408,-0.0145454109,-0.0638052821,-12.6755447388,9.9585437775,-49.8322944641
        0.4091751575,        0.1022860408,-0.0145454109,-0.0638052821,-12.6755447388,9.9585437775,-49.8322944641
        0.4118700027,        0.1008211970,-0.0140571296,-0.0667349696,-12.7823562622,10.0653553009,-49.8322944641
        0.4145750999,        0.1008211970,-0.0140571296,-0.0667349696,-12.7823562622,10.0653553009,-49.6034126282
        0.4172739983,        0.1008211970,-0.0140571296,-0.0667349696,-12.6297683716,9.8364734650,-49.6034126282
        0.4199919701,        0.1008211970,-0.0140571296,-0.0667349696,-12.6297683716,9.8364734650,-49.6034126282
        0.4227671623,        0.0998446345,-0.0125922859,-0.0647818446,-12.6297683716,9.8364734650,-49.6034126282
        0.4253261089,        0.0998446345,-0.0125922859,-0.0647818446,-12.6297683716,9.8364734650,-49.6034126282
        0.4279561043,        0.0998446345,-0.0125922859,-0.0647818446,-12.9654617310,9.9738025665,-49.6644477844
        0.4306290150,        0.0998446345,-0.0125922859,-0.0647818446,-12.9654617310,9.9738025665,-49.6644477844
        0.4333701134,        0.1105868220,-0.0174750984,-0.0765005946,-12.7060623169,9.8212146759,-49.5881538391
        0.4360311031,        0.1105868220,-0.0174750984,-0.0765005946,-12.7060623169,9.8212146759,-49.5881538391
        0.4389269352,        0.1105868220,-0.0174750984,-0.0765005946,-13.0875320435,10.0958728790,-49.4203071594
        0.4416320324,        0.1105868220,-0.0164985359,-0.0701529384,-13.0875320435,10.0958728790,-53.3265571594
        0.4443321228,        0.1022860408,-0.0164985359,-0.0701529384,-13.0722732544,9.9127674103,-49.6644477844
        0.4470291138,        0.1022860408,-0.0164985359,-0.0701529384,-13.0722732544,9.9127674103,-49.6644477844
        0.4497461319,        0.1022860408,-0.0164985359,-0.0701529384,-12.7060623169,9.6686267853,-49.7407417297
        0.4524469376,        0.1052157283,-0.0145454109,-0.0711295009,-12.7060623169,9.6686267853,-49.7407417297
        0.4551451206,        0.1052157283,-0.0145454109,-0.0711295009,-12.9654617310,9.8212146759,-49.7712593079
        0.4578530788,        0.1052157283,-0.0145454109,-0.0711295009,-12.9654617310,9.8212146759,-49.7712593079
        0.4605519772,        0.1052157283,-0.0145454109,-0.0711295009,-13.3774490356,9.7906970978,-49.6797065735
        0.4632530212,        0.0949618220,-0.0086860359,-0.0662466884,-13.3774490356,9.7906970978,-49.6797065735
        0.4659540653,        0.0949618220,-0.0086860359,-0.0662466884,-13.4995193481,9.3939685822,-49.5423774719
        0.4686591625,        0.0949618220,-0.0086860359,-0.0662466884,-13.4995193481,9.3939685822,-49.5423774719
        0.4712281227,        0.0949618220,-0.0086860359,-0.0662466884,-13.4690017700,9.4397449493,-49.6797065735
        0.4737989902,        0.1047274470,-0.0121040046,-0.0808951259,-13.4690017700,9.4397449493,-49.6797065735
        0.4763669968,        0.1047274470,-0.0121040046,-0.0808951259,-13.4079666138,9.6228504181,-49.9238471985
        0.4789390564,        0.1047274470,-0.0121040046,-0.0808951259,-13.4079666138,9.6228504181,-49.9238471985
        0.4815001488,        0.1047274470,-0.0121040046,-0.0638052821,-13.0264968872,9.5770740509,-50.5341987610
        0.4840681553,        0.1027743220,-0.0179633796,-0.0638052821,-13.0264968872,9.5770740509,-50.5341987610
        0.4866349697,        0.1027743220,-0.0179633796,-0.0638052821,-12.8128738403,9.6686267853,-50.3053169250
        0.4893569946,        0.1027743220,-0.0179633796,-0.0638052821,-12.8128738403,9.6686267853,-50.3053169250
        0.4919240475,        0.1027743220,-0.0179633796,-0.0672232509,-12.9654617310,9.8669910431,-50.0459175110
        0.4944870472,        0.1052157283,-0.0111274421,-0.0672232509,-12.9654617310,9.8669910431,-50.0459175110
        0.4970560074,        0.1052157283,-0.0111274421,-0.0672232509,-12.9349441528,9.7144031525,-49.9543647766
        0.4998221397,        0.1052157283,-0.0111274421,-0.0672232509,-12.9349441528,9.7144031525,-49.9543647766
        0.5026271343,        0.1017977595,-0.0130805671,-0.0691763759,-12.6755447388,9.8975086212,-50.2442817688
        0.5053260326,        0.1017977595,-0.0130805671,-0.0691763759,-12.6755447388,9.8975086212,-50.2442817688
        0.5080690384,        0.1017977595,-0.0130805671,-0.0691763759,-12.6602859497,9.6686267853,-50.1985054016
        0.5107691288,        0.1017977595,-0.0130805671,-0.0691763759,-12.6602859497,9.6686267853,-50.1985054016
        0.5134670734,        0.1032626033,-0.0111274421,-0.0672232509,-13.3011550903,9.5923328400,-50.0611763000
        0.5161659718,        0.1032626033,-0.0111274421,-0.0672232509,-13.3011550903,9.5923328400,-50.0611763000
        0.5188829899,        0.1032626033,-0.0111274421,-0.0672232509,-12.8128738403,9.7449207306,-50.2900581360
        0.5215821266,        0.1032626033,-0.0111274421,-0.0672232509,-12.8128738403,9.7449207306,-50.2900581360
        0.5242800713,        0.1144930720,-0.0106391609,-0.0716177821,-12.8433914185,9.3787097931,-50.0001411438
        0.5269789696,        0.1144930720,-0.0106391609,-0.0716177821,-12.8433914185,9.3787097931,-50.0001411438
        0.5295960903,        0.1144930720,-0.0106391609,-0.0716177821,-12.8433914185,9.7449207306,-49.7254829407
        0.5321609974,        0.1144930720,-0.0106391609,-0.0618521571,-12.8433914185,9.7449207306,-49.7254829407
        0.5347261429,        0.1008211970,-0.0150336921,-0.0618521571,-12.8433914185,5.8386707306,-49.6797065735
        0.5372910500,        0.1008211970,-0.0150336921,-0.0618521571,-13.0264968872,9.5312976837,-49.6797065735
        0.5399849415,        0.1008211970,-0.0150336921,-0.0618521571,-13.0264968872,9.5312976837,-49.8322944641
        0.5426881313,        0.1008211970,-0.0130805671,-0.0696646571,-13.4690017700,9.6686267853,-49.8322944641
        0.5453829765,        0.1037508845,-0.0130805671,-0.0696646571,-13.4690017700,9.6686267853,-50.0153999329
        0.5480940342,        0.1037508845,-0.0130805671,-0.0696646571,-12.9044265747,9.8212146759,-50.0153999329
        0.5507929325,        0.1037508845,-0.0130805671,-0.0696646571,-12.9044265747,9.8212146759,-49.8933296204
        0.5534989834,        0.1110751033,-0.0179633796,-0.0760123134,-12.4161453247,9.5618152618,-49.8933296204
        0.5564129353,        0.1110751033,-0.0179633796,-0.0760123134,-12.4161453247,13.4680652618,-49.7102241516
        0.5594489574,        0.1110751033,-0.0179633796,-0.0760123134,-12.6908035278,9.9432849884,-49.7102241516
        0.5621540546,        0.1110751033,-0.0179633796,-0.0760123134,-16.5970535278,9.9738025665,-49.7407417297
        0.5648541451,        0.1027743220,-0.0150336921,-0.0735709071,-13.2248611450,9.9738025665,-49.7407417297
        0.5676519871,        0.1027743220,-0.0150336921,-0.0735709071,-13.2248611450,9.6075916290,-49.5271186829
        0.5703630447,        0.1027743220,-0.0150336921,-0.0735709071,-13.0112380981,9.6075916290,-49.5271186829
        0.5730631351,        0.1027743220,-0.0155219734,-0.0613638759,-13.0112380981,9.8822498322,-49.4203071594
        0.5757601261,        0.1052157283,-0.0155219734,-0.0613638759,-13.1333084106,9.8822498322,-49.4203071594
        0.5784461498,        0.1052157283,-0.0155219734,-0.0613638759,-13.1333084106,9.8669910431,-49.4355659485
        0.5810141563,        0.1052157283,-0.0155219734,-0.0613638759,-13.1638259888,9.8669910431,-49.4355659485
        0.5835750103,        0.1013094783,-0.0287055671,-0.0691763759,-13.1638259888,9.8669910431,-49.3440132141
        0.5861361027,        0.1013094783,-0.0287055671,-0.0691763759,-13.1943435669,9.5007801056,-49.3440132141
        0.5887081623,        0.1013094783,-0.0287055671,-0.0691763759,-13.1943435669,9.5007801056,-49.3440132141
        0.5912749767,        0.1013094783,-0.0287055671,-0.0691763759,-12.3703689575,9.3329334259,-49.2372016907
        0.5938391685,        0.0983797908,-0.0081977546,-0.0633170009,-12.3703689575,9.3329334259,-49.2372016907
        0.5964069366,        0.0983797908,-0.0081977546,-0.0633170009,-12.4008865356,9.4397449493,-48.8252143860
        0.5990209579,        0.0983797908,-0.0081977546,-0.0633170009,-12.4008865356,9.4397449493,-48.8252143860
        0.6015861034,        0.0983797908,-0.0081977546,-0.0633170009,-12.2788162231,9.4550037384,-48.9320259094
        0.6041510105,        0.1027743220,-0.0184516609,-0.0623404384,-12.2788162231,9.4550037384,-48.9320259094
        0.6067140102,        0.1027743220,-0.0184516609,-0.0623404384,-12.6908035278,9.5465564728,-49.1456489563
        0.6093850136,        0.1027743220,-0.0184516609,-0.0623404384,-12.6908035278,9.5465564728,-49.1456489563
        0.6119580269,        0.1027743220,-0.0184516609,-0.0623404384,-13.1638259888,9.6991443634,-49.3134956360
        0.6145229340,        0.1061922908,-0.0184516609,-0.0584341884,-13.1638259888,9.6991443634,-49.3134956360
        0.6170940399,        0.1061922908,-0.0184516609,-0.0584341884,-13.6978836060,9.7906970978,-49.0693550110
        0.6198410988,        0.1061922908,-0.0184516609,-0.0584341884,-13.6978836060,9.7906970978,-49.0693550110
        0.6225430965,        0.1061922908,-0.0184516609,-0.0584341884,-14.0030593872,9.6533679962,-48.7489204407
        0.6252419949,        0.1130282283,-0.0277290046,-0.0657584071,-14.0030593872,9.6533679962,-48.7489204407
        0.6279301643,        0.1130282283,-0.0277290046,-0.0657584071,-14.2166824341,9.5770740509,-48.3674507141
        0.6306011677,        0.1130282283,-0.0277290046,-0.0657584071,-14.2166824341,9.5770740509,-48.3674507141
        0.6331679821,        0.1130282283,-0.0277290046,-0.0716177821,-14.9796218872,9.4244861603,-48.3064155579
        0.6357350349,        0.1257235408,-0.0287055671,-0.0716177821,-14.9796218872,9.4244861603,-48.3064155579
        0.6383340359,        0.1257235408,-0.0287055671,-0.0716177821,-14.9796218872,9.4092273712,-48.2148628235
        0.6408939362,        0.1257235408,-0.0287055671,-0.0716177821,-15.2542800903,9.4092273712,-48.2148628235
        0.6434540749,        0.1257235408,-0.0287055671,-0.0784537196,-15.2542800903,9.4092273712,-47.8944282532
        0.6460130215,        0.1047274470,-0.0223579109,-0.0784537196,-15.1474685669,9.5007801056,-47.8944282532
        0.6485719681,        0.1047274470,-0.0223579109,-0.0784537196,-15.1474685669,9.5007801056,-47.8944282532
        0.6511330605,        0.1047274470,-0.0223579109,-0.0784537196,-14.5523757935,9.4397449493,-47.4671821594
        0.6536910534,        0.1047274470,-0.0150336921,-0.0755240321,-14.5523757935,9.4397449493,-47.4671821594
        0.6562500000,        0.0949618220,-0.0150336921,-0.0755240321,-14.1403884888,9.4092273712,-47.3603706360
        0.6588799953,        0.0949618220,-0.0150336921,-0.0755240321,-14.1403884888,9.4092273712,-47.3603706360
        0.6614379883,        0.0949618220,-0.0150336921,-0.0755240321,-13.8657302856,9.2108631134,-47.6350288391
        0.6639981270,        0.0949618220,-0.0096625984,-0.0716177821,-13.8657302856,9.2108631134,-47.6350288391
        0.6665620804,        0.0978915095,-0.0096625984,-0.0716177821,-13.8504714966,9.3176746368,-47.7876167297
        0.6691319942,        0.0978915095,-0.0096625984,-0.0716177821,-13.8504714966,9.3176746368,-47.7876167297
        0.6716930866,        0.0978915095,-0.0096625984,-0.0716177821,-13.6521072388,9.3176746368,-47.7113227844
        0.6745009422,        0.0944735408,-0.0042915046,-0.0774771571,-13.6521072388,9.3176746368,-47.7113227844
        0.6770670414,        0.0944735408,-0.0042915046,-0.0774771571,-13.4842605591,9.6075916290,-47.3603706360
        0.6799490452,        0.0944735408,-0.0042915046,-0.0774771571,-13.4842605591,9.6075916290,-47.3603706360
        0.6825189590,        0.0944735408,-0.0042915046,-0.0774771571,-14.0335769653,9.7296619415,-47.7570991516
        0.6850891113,        0.1100985408,-0.0077094734,-0.0657584071,-14.0335769653,9.7296619415,-47.7570991516
        0.6876530647,        0.1100985408,-0.0077094734,-0.0657584071,-14.4608230591,9.1803455353,-48.1080513000
        0.6903679371,        0.1100985408,-0.0077094734,-0.0657584071,-14.4608230591,9.1803455353,-48.1080513000
        0.6931741238,        0.1100985408,-0.0077094734,-0.0657584071,-16.0019607544,9.1803455353,-48.1843452454
        0.6958780289,        0.1164461970,-0.0228461921,-0.0662466884,-16.0019607544,9.1803455353,-48.1843452454
        0.6985869408,        0.1164461970,-0.0228461921,-0.0662466884,-17.2684402466,9.0582752228,-48.2911567688
        0.7012901306,        0.1164461970,-0.0228461921,-0.0662466884,-17.2684402466,9.0582752228,-48.2911567688
        0.7039830685,        0.1164461970,-0.0228461921,-0.0852896571,-18.3365554810,9.5312976837,-47.1925239563
        0.7066850662,        0.1223055720,-0.0135688484,-0.0852896571,-18.3365554810,9.5312976837,-47.1925239563
        0.7093219757,        0.1223055720,-0.0135688484,-0.0852896571,-18.3365554810,10.2026844025,-46.1854438782
        0.7118861675,        0.1223055720,-0.0135688484,-0.0852896571,-18.8400955200,10.2026844025,-46.1854438782
        0.7144520283,        0.1223055720,0.0113334954,-0.0906607509,-18.8400955200,10.2026844025,-45.6819038391
        0.7170200348,        0.1047274470,0.0113334954,-0.0906607509,-18.7027664185,10.3857898712,-45.6819038391
        0.7196321487,        0.1047274470,0.0113334954,-0.0906607509,-18.7027664185,10.3857898712,-45.6819038391
        0.7222001553,        0.1047274470,0.0113334954,-0.0906607509,-17.2684402466,9.9432849884,-45.6819038391
        0.7247641087,       -0.0202725530,-0.0052680671,-0.0843130946,-17.2684402466,9.9432849884,-49.5881538391
        0.7273271084,        0.0876376033,-0.0052680671,-0.0843130946,-16.2155838013,10.0195789337,-45.7429389954
        0.7299439907,        0.0876376033,-0.0052680671,-0.0843130946,-16.2155838013,10.0195789337,-45.7429389954
        0.7325091362,        0.0876376033,-0.0052680671,-0.0843130946,-15.1322097778,9.7906970978,-45.2393989563
        0.7350730896,        0.0788485408,-0.0433540046,-0.0657584071,-15.1322097778,9.7906970978,-45.2393989563
        0.7376410961,        0.0788485408,-0.0433540046,-0.0657584071,-14.7812576294,9.7754383087,-45.3614692688
        0.7404470444,        0.0788485408,-0.0433540046,-0.0657584071,-14.7812576294,9.7754383087,-45.3614692688
        0.7431340218,        0.0788485408,-0.0433540046,-0.0657584071,-15.7273025513,9.6686267853,-44.9494819641
        0.7458119392,        0.0847079158,-0.0389594734,-0.0750357509,-15.7273025513,9.6686267853,-44.9494819641
        0.7485060692,        0.0847079158,-0.0389594734,-0.0750357509,-17.0242996216,9.3176746368,-44.9952583313
        0.7511880398,        0.0847079158,-0.0389594734,-0.0750357509,-17.0242996216,9.3176746368,-44.9952583313
        0.7538690567,        0.0847079158,-0.0389594734,-0.0750357509,-17.6804275513,8.6920642853,-45.5445747375
        0.7566659451,        0.0983797908,0.0030327141,-0.0686880946,-17.6804275513,8.6920642853,-45.5445747375
        0.7593619823,        0.0983797908,0.0030327141,-0.0686880946,-17.9398269653,8.6005115509,-45.8039741516
        0.7620410919,        0.0983797908,0.0030327141,-0.0686880946,-17.9398269653,8.6005115509,-45.8039741516
        0.7647230625,        0.0983797908,0.0186577141,-0.0486685634,-17.0090408325,8.7378406525,-45.8344917297
        0.7674019337,        0.1017977595,0.0186577141,-0.0486685634,-17.0090408325,8.7378406525,-45.8344917297
        0.7700941563,        0.1017977595,0.0186577141,-0.0486685634,-15.7273025513,9.1650867462,-46.2769966125
        0.7727749348,        0.1017977595,0.0186577141,-0.0486685634,-15.7273025513,9.1650867462,-46.2769966125
        0.7754571438,        0.1198641658,0.0152397454,-0.0555045009,-14.5828933716,9.5618152618,-46.6279487610
        0.7781441212,        0.1198641658,0.0152397454,-0.0555045009,-14.5828933716,9.5618152618,-46.6279487610
        0.7808301449,        0.1198641658,0.0152397454,-0.0555045009,-13.7894363403,9.3939685822,-46.9026069641
        0.7835099697,        0.1198641658,0.0152397454,-0.0555045009,-13.7894363403,9.3939685822,-46.9026069641
        0.7861881256,        0.1237704158,0.0113334954,-0.0559927821,-12.8281326294,9.5923328400,-47.0246772766
        0.7888860703,        0.1237704158,0.0113334954,-0.0559927821,-12.8281326294,9.5923328400,-47.0246772766
        0.7915811539,        0.1237704158,0.0113334954,-0.0559927821,-12.3703689575,9.5160388947,-47.6502876282
        0.7943551540,        0.1237704158,0.0113334954,-0.0559927821,-12.3703689575,9.5160388947,-47.6502876282
        0.7970581055,        0.1057040095,0.0049858391,-0.0603873134,-11.5769119263,9.5618152618,-48.1080513000
        0.7999341488,        0.1057040095,0.0049858391,-0.0603873134,-11.5769119263,9.5618152618,-48.1080513000
        0.8026371002,        0.1057040095,0.0049858391,-0.0603873134,-11.1649246216,9.4092273712,-48.3064155579
        0.8053300381,        0.1057040095,0.0059624016,-0.0725943446,-11.1649246216,9.4092273712,-48.3064155579
        0.8080711365,        0.1081454158,0.0059624016,-0.0725943446,-10.5698318481,9.6838855743,-47.8486518860
        0.8107719421,        0.1081454158,0.0059624016,-0.0725943446,-10.5698318481,9.6838855743,-47.8486518860
        0.8134641647,        0.1081454158,0.0059624016,-0.0725943446,-10.8444900513,9.6228504181,-48.0012397766
        0.8161571026,        0.1037508845,0.0049858391,-0.0760123134,-10.8444900513,9.6228504181,-48.0012397766
        0.8188979626,        0.1037508845,0.0049858391,-0.0760123134,-11.3938064575,9.4550037384,-48.3216743469
        0.8217051029,        0.1037508845,0.0049858391,-0.0760123134,-11.3938064575,9.4550037384,-48.3216743469
        0.8244061470,        0.1037508845,0.0049858391,-0.0760123134,-11.5463943481,9.5160388947,-48.2911567688
        0.8271000385,        0.1257235408,0.0152397454,-0.0784537196,-11.5463943481,9.5160388947,-48.2911567688
        0.8297049999,        0.1257235408,0.0152397454,-0.0784537196,-12.3398513794,9.9280261993,-48.2911567688
        0.8322739601,        0.1257235408,0.0152397454,-0.0784537196,-12.3398513794,9.9280261993,-48.2911567688
        0.8348431587,        0.1257235408,0.0152397454,-0.0784537196,-13.2553787231,10.8588123322,-48.1538276672
        0.8374099731,        0.1227938533,0.0025444329,-0.0848013759,-13.2553787231,10.8588123322,-48.1538276672
        0.8400371075,        0.1227938533,0.0025444329,-0.0848013759,-14.6744461060,11.6064929962,-48.1080513000
        0.8426101208,        0.1227938533,0.0025444329,-0.0848013759,-14.6744461060,11.6064929962,-48.1080513000
        0.8451750278,        0.1227938533,0.0025444329,-0.1106802821,-14.6744461060,12.1100330353,-47.2840766907
        0.8479120731,        0.1252352595,0.0108452141,-0.1106802821,-16.2766189575,12.1100330353,-47.2840766907
        0.8504829407,        0.1252352595,0.0108452141,-0.1106802821,-16.2766189575,12.1100330353,-46.2312202454
        0.8530471325,        0.1252352595,0.0108452141,-0.1106802821,-18.2144851685,11.8964099884,-46.2312202454
        0.8556151390,        0.1252352595,0.0108452141,-0.1170279384,-18.2144851685,11.8964099884,-44.7053413391
        0.8582170010,        0.1174227595,0.0152397454,-0.1170279384,-18.6722488403,12.0032215118,-44.7053413391
        0.8609139919,        0.1174227595,0.0152397454,-0.1170279384,-18.6722488403,12.0032215118,-43.2557563782
        0.8636119366,        0.1174227595,0.0152397454,-0.1170279384,-18.3975906372,11.5759754181,-43.2557563782
        0.8663079739,        0.1276766658,-0.0125922859,-0.1028677821,-18.3975906372,11.5759754181,-41.1958198547
        0.8690071106,        0.1276766658,-0.0125922859,-0.1028677821,-18.3823318481,10.8740711212,-41.1958198547
        0.8717069626,        0.1276766658,-0.0125922859,-0.1028677821,-18.3823318481,10.8740711212,-41.1958198547
        0.8744080067,        0.1276766658,-0.0125922859,-0.1028677821,-18.9163894653,10.3400135040,-39.2884712219
        0.8771109581,        0.0861727595,-0.0819282234,-0.1028677821,-18.9163894653,10.3400135040,-35.3822212219
        0.8797161579,        0.0861727595,-0.0819282234,-0.1028677821,-20.0302810669,9.6533679962,-37.2590522766
        0.8822901249,        0.0861727595,-0.0819282234,-0.1028677821,-20.0302810669,9.6533679962,-37.2590522766
        0.8849670887,        0.0861727595,-0.0819282234,-0.1028677821,-22.7768630981,8.3258533478,-35.9467964172
        0.8875391483,        0.0436922908,-0.1649360359,-0.1209341884,-22.7768630981,8.3258533478,-35.9467964172
        0.8902821541,        0.0436922908,-0.1649360359,-0.1209341884,-24.5621414185,7.8986072540,-35.1075630188
        0.8929870129,        0.0436922908,-0.1649360359,-0.1209341884,-24.5621414185,7.8986072540,-35.1075630188
        0.8956961632,        0.0436922908,-0.1649360359,-0.0437857509,-27.5986404419,8.6462879181,-34.1004829407
        0.8984079361,        0.0578524470,-0.0912055671,-0.0437857509,-27.5986404419,8.6462879181,-34.1004829407
        0.9011111259,        0.0578524470,-0.0912055671,-0.0437857509,-30.1468582153,9.3329334259,-31.8574409485
        0.9038259983,        0.0578524470,-0.0912055671,-0.0437857509,-30.1468582153,9.3329334259,-31.8574409485
        0.9065351486,        0.0578524470,-0.0326118171,-0.0315787196,-30.2841873169,9.3176746368,-29.5381050110
        0.9092869759,        0.0773836970,-0.0326118171,-0.0315787196,-30.2841873169,9.3176746368,-29.5381050110
        0.9119961262,        0.0773836970,-0.0326118171,-0.0315787196,-29.7806472778,10.2332019806,-29.1566352844
        0.9148499966,        0.0773836970,-0.0326118171,-0.0315787196,-29.7806472778,10.2332019806,-29.1566352844
        0.9179790020,        0.0998446345,-0.0262641609,-0.0403677821,-29.5517654419,11.1487293243,-28.3784370422
        0.9205579758,        0.0998446345,-0.0262641609,-0.0403677821,-29.5517654419,11.1487293243,-28.3784370422
        0.9231331348,        0.0998446345,-0.0262641609,-0.0403677821,-28.7125320435,11.9727039337,-27.4323921204
        0.9257071018,        0.0998446345,-0.0262641609,-0.0403677821,-28.7125320435,11.9727039337,-27.4323921204
        0.9283299446,        0.1188876033,-0.0287055671,-0.0398795009,-28.3920974731,13.2849597931,-26.1811714172
        0.9310400486,        0.1188876033,-0.0287055671,-0.0398795009,-28.3920974731,13.2849597931,-26.1811714172
        0.9337501526,        0.1188876033,-0.0287055671,-0.0398795009,-29.1550369263,14.1241931915,-25.4334907532
        0.9364531040,        0.1188876033,-0.0008735359,-0.0281607509,-29.1550369263,14.1241931915,-25.4334907532
        0.9391720295,        0.1350008845,-0.0008735359,-0.0281607509,-29.9942703247,14.0326404572,-24.7468452454
        0.9418749809,        0.1350008845,-0.0008735359,-0.0281607509,-29.9942703247,14.0326404572,-24.7468452454
        0.9445860386,        0.1350008845,-0.0008735359,-0.0281607509,-29.3228836060,14.4293689728,-24.1975288391
        0.9472980499,        0.1232821345,0.0308647454,-0.0320670009,-29.3228836060,14.4293689728,-24.1975288391
        0.9500141144,        0.1232821345,0.0308647454,-0.0320670009,-29.2465896606,13.3917713165,-23.6024360657
        0.9525930882,        0.1232821345,0.0308647454,-0.0320670009,-29.2465896606,13.3917713165,-23.6024360657
        0.9551711082,        0.1232821345,0.0308647454,-0.0320670009,-28.6209793091,11.7133045197,-24.8536567688
        0.9577920437,        0.1052157283,-0.0360297859,-0.0291373134,-28.6209793091,11.7133045197,-24.8536567688
        0.9603641033,        0.1052157283,-0.0360297859,-0.0291373134,-22.6853103638,11.4233875275,-28.4089546204
        0.9629390240,        0.1052157283,-0.0360297859,-0.0291373134,-22.6853103638,11.4233875275,-28.4089546204
        0.9655110836,        0.1052157283,-0.0360297859,-0.0291373134,-18.7943191528,12.1558094025,-30.9113960266
        0.9682199955,        0.0759188533,0.0992241204,-0.0076529384,-18.7943191528,12.1558094025,-30.9113960266
        0.9707911015,        0.0759188533,0.0992241204,-0.0076529384,-15.7273025513,13.4070301056,-31.9337348938
        0.9733600616,        0.0759188533,0.0992241204,-0.0076529384,-15.7273025513,13.4070301056,-31.9337348938
        0.9759409428,        0.0759188533,0.0992241204,-0.0076529384,-11.8210525513,14.1547107697,-33.5511665344
        0.9786410332,        0.0939852595,0.1641655266,-0.0296255946,-12.4771804810,14.1547107697,-33.5511665344
        0.9813330173,        0.0939852595,0.1641655266,-0.0296255946,-12.4771804810,13.2849597931,-35.9162788391
        0.9840140343,        0.0939852595,0.1641655266,-0.0296255946,-9.9442214966,13.2849597931,-35.9162788391
        0.9866981506,        0.0939852595,0.0391655266,-0.0379263759,-6.0379714966,13.3002185822,-38.6628608704
        0.9893910885,        0.1022860408,0.1133842766,-0.0379263759,-7.3960037231,13.3002185822,-38.6628608704
        0.9920821190,        0.1022860408,0.1133842766,-0.0379263759,-7.3960037231,14.1699695587,-40.4939155579
        0.9947609901,        0.1022860408,0.1133842766,-0.0379263759,-3.2761306763,14.1699695587,-40.4939155579
        0.9974429607,        0.1022860408,0.0918999016,-0.0520865321,-3.2761306763,14.7803211212,-41.9892768860
        1.0001361370,        0.0998446345,0.0918999016,-0.0520865321,-0.8194656372,14.7803211212,-41.9892768860
        1.0028190613,        0.0998446345,0.0918999016,-0.0520865321,-0.8194656372,14.7803211212,-43.0573921204
        1.0055041313,        0.0998446345,0.0918999016,-0.0520865321,0.1113204956,14.9023914337,-43.0573921204
        1.0081930161,        0.0983797908,0.0723686516,-0.0745474696,0.1113204956,14.9023914337,-44.0492134094
        1.0108790398,        0.0983797908,0.0723686516,-0.0745474696,-0.7431716919,14.9634265900,-44.0492134094
        1.0136680603,        0.0983797908,0.0723686516,-0.0745474696,-0.7431716919,14.9634265900,-44.4154243469
        1.0163500309,        0.0983797908,0.0723686516,-0.0745474696,-2.8794021606,15.7416248322,-44.4154243469
        1.0191330910,        0.1042391658,0.0582084954,-0.0989615321,-2.8794021606,15.7416248322,-44.0339546204
        1.0218160152,        0.1042391658,0.0582084954,-0.0989615321,-4.8783035278,17.0691394806,-44.0339546204
        1.0244929790,        0.1042391658,0.0582084954,-0.0989615321,-4.8783035278,20.9753894806,-43.3320503235
        1.0271749496,        0.1042391658,-0.0667915046,-0.1067740321,-7.1518630981,18.8544178009,-43.3320503235
        1.0298750401,        0.1325594783,0.0035209954,-0.1067740321,-7.1518630981,18.8544178009,-42.2334175110
        1.0325570107,        0.1325594783,0.0035209954,-0.1067740321,-10.0357742310,21.2195301056,-42.2334175110
        1.0354740620,        0.1325594783,0.0035209954,-0.1067740321,-10.0357742310,25.1257801056,-40.8601264954
        1.0385661125,        0.1491610408,-0.0536079109,-0.0955435634,-14.0030593872,23.6609363556,-40.8601264954
        1.0412371159,        0.1491610408,-0.0536079109,-0.0955435634,-17.9093093872,24.3018054962,-38.7544136047
        1.0439071655,        0.1491610408,-0.0536079109,-0.0955435634,-18.2297439575,24.3018054962,-38.7544136047
        1.0466041565,        0.1491610408,-0.0536079109,-0.0955435634,-22.1359939575,23.5541248322,-36.5724067688
        1.0493321419,        0.1345126033,-0.0516547859,-0.0760123134,-22.2122879028,23.5541248322,-36.5724067688
        1.0520341396,        0.1345126033,-0.0516547859,-0.0760123134,-26.1185379028,22.5317859650,-34.5735054016
        1.0547461510,        0.1345126033,-0.0516547859,-0.0760123134,-24.8367996216,22.5317859650,-34.5735054016
        1.0574541092,        0.1345126033,-0.0516547859,-0.0662466884,-24.8367996216,22.9132556915,-33.3985786438
        1.0601711273,        0.0944735408,-0.0125922859,-0.0662466884,-27.4307937622,22.9132556915,-33.3985786438
        1.0628800392,        0.0944735408,-0.0125922859,-0.0662466884,-27.4307937622,23.7372303009,-32.4983100891
        1.0655889511,        0.0944735408,-0.0125922859,-0.0662466884,-28.0106277466,23.7372303009,-32.4983100891
        1.0682971478,        0.0778719783,0.0342827141,-0.0755240321,-28.0106277466,23.6456775665,-30.6519966125
        1.0708739758,        0.0778719783,0.0342827141,-0.0755240321,-27.3087234497,23.6456775665,-30.6519966125
        1.0734500885,        0.0778719783,0.0342827141,-0.0755240321,-27.3087234497,23.6456775665,-29.4770698547
        1.0760300159,        0.0778719783,0.0342827141,-0.0755240321,-27.0493240356,23.7219715118,-29.4770698547
        1.0788290501,        0.0881258845,0.0518608391,-0.0598990321,-27.0493240356,23.7219715118,-27.6612739563
        1.0814111233,        0.0881258845,0.0518608391,-0.0598990321,-25.0504226685,24.0881824493,-27.6612739563
        1.0839929581,        0.0881258845,0.0518608391,-0.0598990321,-25.0504226685,24.0881824493,-23.7550239563
        1.0865700245,        0.0881258845,0.0518608391,-0.0598990321,-23.4787673950,23.5236072540,-25.7844429016
        1.0891959667,        0.1003329158,0.0206108391,-0.0857779384,-23.4787673950,23.5236072540,-25.7844429016
        1.0917720795,        0.1003329158,0.0206108391,-0.0857779384,-22.4869461060,23.2031726837,-24.0296821594
        1.0943450928,        0.1003329158,0.0206108391,-0.0857779384,-22.4869461060,23.2031726837,-24.0296821594
        1.0969231129,        0.1003329158,0.0206108391,-0.0857779384,-22.2275466919,22.9437732697,-21.7561225891
        1.0996870995,        0.0895907283,-0.0189399421,-0.0940787196,-22.2275466919,22.9437732697,-21.7561225891
        1.1023960114,        0.0895907283,-0.0189399421,-0.0940787196,-22.9752273560,22.6538562775,-19.1163520813
        1.1051101685,        0.0895907283,-0.0189399421,-0.0940787196,-22.9752273560,22.6538562775,-19.1163520813
        1.1078310013,        0.0895907283,-0.0189399421,-0.0940787196,-23.8754959106,22.3944568634,-15.6068305969
        1.1105461121,        0.0666415095,-0.0199165046,-0.0940787196,-23.8754959106,22.3944568634,-15.6068305969
        1.1132569313,        0.0666415095,-0.0199165046,-0.0940787196,-25.5081863403,22.1960926056,-11.3648872375
        1.1159651279,        0.0666415095,-0.0199165046,-0.0940787196,-25.5081863403,22.1960926056,-11.3648872375
        1.1186540127,        0.0666415095,-0.0345649421,-0.0891959071,-27.1561355591,21.3110828400,-7.4128608704
        1.1212251186,        0.0676180720,-0.0345649421,-0.0891959071,-27.1561355591,21.3110828400,-7.4128608704
        1.1237931252,        0.0676180720,-0.0345649421,-0.0891959071,-27.7359695435,20.5634021759,-3.1556587219
        1.1263740063,        0.0676180720,-0.0345649421,-0.0891959071,-27.7359695435,20.5634021759,-3.1556587219
        1.1290161610,        0.0671297908,-0.0692329109,-0.0828482509,-26.1795730591,19.9377918243,1.5135307312
        1.1317260265,        0.0671297908,-0.0692329109,-0.0828482509,-26.1795730591,19.9377918243,1.5135307312
        1.1344380379,        0.0671297908,-0.0692329109,-0.0828482509,-23.8297195435,19.1290760040,6.2437553406
        1.1371450424,        0.0671297908,-0.0692329109,-0.0828482509,-23.8297195435,19.1290760040,6.2437553406
        1.1398961544,        0.0612704158,-0.1356391609,-0.0755240321,-21.4188308716,18.1830310822,10.4551811218
        1.1425969601,        0.0612704158,-0.1356391609,-0.0755240321,-21.4188308716,18.1830310822,10.4551811218
        1.1454110146,        0.0612704158,-0.1356391609,-0.0755240321,-18.1381912231,18.2135486603,14.9412651062
        1.1481270790,        0.0612704158,-0.1356391609,-0.0535513759,-18.1381912231,18.2135486603,14.9412651062
        1.1508290768,        0.0524813533,-0.1722602546,-0.0535513759,-14.1403884888,18.7476062775,19.9003715515
        1.1535370350,        0.0524813533,-0.1722602546,-0.0535513759,-14.1403884888,18.7476062775,19.9003715515
        1.1563460827,        0.0524813533,-0.1722602546,-0.0535513759,-10.8902664185,15.4364490509,24.9510307312
        1.1594841480,        0.0710360408,-0.2269477546,-0.0740591884,-10.8902664185,15.4364490509,24.9510307312
        1.1621890068,        0.0710360408,-0.2269477546,-0.0740591884,-6.6635818481,11.3776111603,30.8561820984
        1.1648919582,        0.0710360408,-0.2269477546,-0.0740591884,-6.6635818481,11.3776111603,30.8561820984
        1.1675980091,        0.0710360408,-0.2269477546,-0.0740591884,2.3238449097,10.6909656525,34.4877738953
        1.1701951027,        0.0256258845,-0.2108344734,-0.0555045009,2.3238449097,10.6909656525,34.4877738953
        1.1727681160,        0.0256258845,-0.2108344734,-0.0555045009,7.2066574097,10.6909656525,37.8904838562
        1.1753461361,        0.0256258845,-0.2108344734,-0.0555045009,7.2066574097,10.6909656525,37.8904838562
        1.1779241562,        0.0256258845,-0.2108344734,-0.0555045009,5.2077560425,10.1263904572,43.8719291687
        1.1806240082,       -0.0588467717,-0.1107368171,-0.0642935634,5.2077560425,10.1263904572,43.8719291687
        1.1833319664,       -0.0588467717,-0.1107368171,-0.0642935634,2.4153976440,8.2800769806,50.7078666687
        1.1860389709,       -0.0588467717,-0.1107368171,-0.0642935634,2.4153976440,8.2800769806,50.7078666687
        1.1887221336,       -0.0588467717,-0.1107368171,-0.0384146571,-1.8723220825,6.9373035431,56.2925834656
        1.1912951469,       -0.1228116155,-0.0897407234,-0.0384146571,-1.8723220825,6.9373035431,56.2925834656
        1.1938710213,       -0.1228116155,-0.0897407234,-0.0384146571,-3.5050125122,6.5558338165,61.4653129578
        1.1964430809,       -0.1228116155,-0.0897407234,-0.0384146571,-3.5050125122,6.5558338165,61.4653129578
        1.1990630627,       -0.1228116155,0.0206108391,-0.0310904384,-3.5050125122,6.7694568634,65.2800140381
        1.2016320229,       -0.1276944280,0.0206108391,-0.0310904384,-1.9791336060,6.7694568634,65.2800140381
        1.2042050362,       -0.1276944280,0.0206108391,-0.0310904384,-1.9791336060,6.7694568634,68.1028900146
        1.2067840099,       -0.1276944280,0.0206108391,-0.0310904384,1.6371994019,6.3269519806,68.1028900146
        1.2096500397,       -0.1750577092,0.1500053704,0.0431283116,1.6371994019,2.4207019806,69.9034271240
        1.2122240067,       -0.1750577092,0.1500053704,0.0431283116,7.2829513550,4.5416736603,69.9034271240
        1.2147951126,       -0.1750577092,0.1500053704,0.0431283116,7.2829513550,4.5416736603,70.4832611084
        1.2173669338,       -0.1750577092,0.1500053704,0.0431283116,12.7913742065,3.3820056915,70.4832611084
        1.2202060223,       -0.3596280217,0.1583061516,0.1407845616,12.7913742065,3.3820056915,72.7263031006
        1.2229170799,       -0.3596280217,0.1583061516,0.1407845616,18.4676437378,4.2670154572,72.7263031006
        1.2256209850,       -0.3596280217,0.1583061516,0.1407845616,18.4676437378,4.2670154572,77.5938568115
        1.2283380032,       -0.3596280217,0.1583061516,0.1407845616,30.5526046753,7.5629138947,77.5938568115
        1.2310450077,       -0.5417569280,0.1910209954,0.1505501866,30.5526046753,7.5629138947,80.6303558350
        1.2337491512,       -0.5417569280,0.1910209954,0.1505501866,40.0283126831,9.8975086212,80.6303558350
        1.2364490032,       -0.5417569280,0.1910209954,0.1505501866,40.0283126831,9.8975086212,81.9731292725
        1.2393131256,       -0.5417569280,-0.0589790046,0.2687142491,46.1470870972,11.6675281525,81.9731292725
        1.2418861389,       -0.4768155217,0.0093803704,0.2687142491,46.1470870972,11.6675281525,81.9731292725
        1.2444641590,       -0.4768155217,0.0093803704,0.2687142491,51.3350753784,12.6440906525,82.2020111084
        1.2470390797,       -0.4768155217,0.0093803704,0.2687142491,51.3350753784,12.6440906525,82.2020111084
        1.2498340607,       -0.3518155217,-0.1229438484,0.2818978429,51.7012863159,12.5830554962,82.7055511475
        1.2525069714,       -0.4016202092,-0.1229438484,0.2818978429,51.7012863159,12.5830554962,83.6973724365
        1.2557590008,       -0.4016202092,-0.1229438484,0.2818978429,49.4735031128,11.2860584259,83.6973724365
        1.2584159374,       -0.4016202092,-0.1229438484,0.2818978429,49.4735031128,11.2860584259,83.6668548584
        1.2609910965,       -0.3020108342,-0.1786079109,0.2403939366,43.9803390503,7.5476551056,83.6668548584
        1.2635631561,       -0.3020108342,-0.1786079109,0.2403939366,43.9803390503,7.5476551056,79.7606048584
        1.2661340237,       -0.3020108342,-0.1786079109,0.2403939366,37.0833663940,2.0850086212,80.9965667725
        1.2687139511,       -0.3020108342,-0.1786079109,0.2403939366,37.0833663940,2.0850086212,80.9965667725
        1.2712850571,       -0.1521084905,-0.3119086921,0.1847298741,34.1384201050,-4.2016124725,74.9388275146
        1.2739779949,       -0.1521084905,-0.3119086921,0.1847298741,34.1384201050,-4.2016124725,74.9388275146
        1.2765541077,       -0.1521084905,-0.3119086921,0.1847298741,31.7275314331,-10.6713390350,64.6849212646
        1.2791390419,       -0.1521084905,-0.3119086921,0.1847298741,31.7275314331,-10.6713390350,64.6849212646
        1.2817070484,       -0.0412686467,-0.3958930671,0.0489876866,30.0795822144,-14.5318126678,52.7525444031
        1.2842731476,       -0.0412686467,-0.3958930671,0.0489876866,30.0795822144,-14.5318126678,52.7525444031
        1.2868549824,       -0.0412686467,-0.3958930671,0.0489876866,29.4387130737,-17.0952892303,41.5373344421
        1.2894740105,       -0.0412686467,-0.3958930671,-0.0818716884,29.4387130737,-17.0952892303,41.5373344421
        1.2920501232,        0.0895907283,-0.4456977546,-0.0818716884,24.4185714722,-22.5274181366,30.1542778015
        1.2946259975,        0.0895907283,-0.4456977546,-0.0818716884,24.4185714722,-22.5274181366,30.1542778015
        1.2971961498,        0.0895907283,-0.4456977546,-0.0818716884,10.6704025269,-29.0886974335,15.5516166687
        1.2999341488,        0.0895907283,-0.8206977844,-0.1302115321,10.6704025269,-29.0886974335,15.5516166687
        1.3025090694,        0.1901766658,-0.7826118469,-0.1302115321,-12.7670974731,-33.0865020752,-0.0123481750
        1.3050820827,        0.1901766658,-0.7826118469,-0.1302115321,-9.3338699341,-33.0865020752,-0.0123481750
        1.3076541424,        0.1901766658,-0.7826118469,-0.1302115321,-9.3338699341,-36.9927520752,-13.8368110657
        1.3103120327,        0.1901766658,-0.8377876282,-0.2171255946,-30.5893630981,-35.3295440674,-13.8368110657
        1.3128859997,        0.2785555720,-0.8377876282,-0.2171255946,-30.5893630981,-35.3295440674,-27.0204048157
        1.3154599667,        0.2785555720,-0.8377876282,-0.2171255946,-50.7919998169,-38.6407012939,-27.0204048157
        1.3180820942,        0.2785555720,-0.8377876282,-0.2171255946,-50.7919998169,-38.6407012939,-38.7391548157
        1.3206651211,        0.3234774470,-0.7581977844,-0.2366568446,-67.5461502075,-40.8227081299,-40.6465034485
        1.3232340813,        0.3234774470,-0.7581977844,-0.2366568446,-67.5461502075,-40.8227081299,-40.6465034485
        1.3258061409,        0.3234774470,-0.7581977844,-0.2366568446,-80.7450027466,-39.7545928955,-53.8300971985
        1.3284170628,        0.3234774470,-0.7581977844,-0.2366568446,-80.7450027466,-39.7545928955,-53.8300971985
        1.3311221600,        0.3229891658,-0.7997016907,-0.2390982509,-86.7417068481,-36.6723175049,-67.7613677979
        1.3338320255,        0.3229891658,-0.7997016907,-0.2390982509,-86.7417068481,-36.6723175049,-67.7613677979
        1.3366489410,        0.3229891658,-0.7997016907,-0.2390982509,-89.1983718872,-34.0478057861,-83.2948150635
        1.3393790722,        0.3229891658,-0.7997016907,-0.2390982509,-89.1983718872,-34.0478057861,-83.2948150635
        1.3420939445,        0.2629305720,-0.7015571594,-0.2781607509,-91.1667556763,-32.1557159424,-98.5993804932
        1.3448040485,        0.2629305720,-0.7015571594,-0.2781607509,-91.1667556763,-32.1557159424,-98.5993804932
        1.3475141525,        0.2629305720,-0.7015571594,-0.2781607509,-90.2512283325,-28.7987804413,-114.0107574463
        1.3501119614,        0.2629305720,-0.7015571594,-0.2693716884,-90.2512283325,-28.7987804413,-114.0107574463
        1.3526849747,        0.2404696345,-0.5389595032,-0.2693716884,-82.2556228638,-25.0298595428,-129.9561920166
        1.3552579880,        0.2404696345,-0.5389595032,-0.2693716884,-82.2556228638,-25.0298595428,-129.9561920166
        1.3578190804,        0.2404696345,-0.5389595032,-0.2693716884,-68.8736648560,-20.9557628632,-145.9168853760
        1.3605279922,        0.2404696345,-0.4139594734,-0.2791373134,-68.8736648560,-20.9557628632,-145.9168853760
        1.3632431030,        0.1935946345,-0.4359321296,-0.2791373134,-54.1184158325,-17.3852062225,-161.4961090088
        1.3661761284,        0.1935946345,-0.4359321296,-0.2791373134,-54.1184158325,-17.3852062225,-161.4961090088
        1.3692121506,        0.1935946345,-0.4359321296,-0.2791373134,-38.8901443481,-13.9672374725,-175.3358306885
        1.3719329834,        0.1115633845,-0.3690375984,-0.3045279384,-38.8901443481,-13.9672374725,-175.3358306885
        1.3746409416,        0.1115633845,-0.3690375984,-0.3045279384,-24.1806716919,-9.9846935272,-188.5346832275
        1.3773529530,        0.1115633845,-0.3690375984,-0.3045279384,-24.1806716919,-9.9846935272,-188.5346832275
        1.3801059723,        0.1115633845,-0.3690375984,-0.3045279384,-12.3245925903,-6.5667247772,-200.5891265869
        1.3828120232,        0.0466219783,-0.3558540046,-0.3138052821,-12.3245925903,-6.5667247772,-200.5891265869
        1.3855240345,        0.0466219783,-0.3558540046,-0.3138052821,-3.5965652466,-2.8130626678,-211.8806304932
        1.3882520199,        0.0466219783,-0.3558540046,-0.3138052821,-3.5965652466,-2.8130626678,-211.8806304932
        1.3908281326,        0.0466219783,-0.3558540046,-0.3411490321,1.5914230347,1.1237049103,-221.6004791260
        1.3934099674,       -0.0114834905,-0.3548774421,-0.3411490321,1.5914230347,1.1237049103,-221.6004791260
        1.3959851265,       -0.0114834905,-0.3548774421,-0.3411490321,3.7276535034,4.0991687775,-230.1759185791
        1.3985741138,       -0.0114834905,-0.3548774421,-0.3411490321,3.7276535034,4.0991687775,-230.1759185791
        1.4012520313,       -0.1364834905,-0.3651313484,-0.3362662196,4.3380050659,6.2353992462,-238.1257476807
        1.4038231373,       -0.0578702092,-0.3651313484,-0.3362662196,4.3380050659,6.2353992462,-238.1257476807
        1.4064011574,       -0.0578702092,-0.3651313484,-0.3362662196,1.2404708862,7.7765369415,-245.2210845947
        1.4090220928,       -0.0578702092,-0.3651313484,-0.3362662196,1.2404708862,7.7765369415,-245.2210845947
        1.4115970135,       -0.0905850530,-0.3685493171,-0.3401724696,-4.7562332153,8.7073230743,-251.2177886963
        1.4141740799,       -0.0905850530,-0.3685493171,-0.3401724696,-4.7562332153,8.7073230743,-251.2177886963
        1.4167480469,       -0.0905850530,-0.3685493171,-0.3401724696,-16.4749832153,9.1193103790,-255.2003326416
        1.4194140434,       -0.0905850530,-0.3685493171,-0.3401724696,-13.0875320435,9.1193103790,-255.2003326416
        1.4219861031,       -0.1218350530,-0.3524360359,-0.3196646571,-13.0875320435,9.1193103790,-259.1371154785
        1.4245550632,       -0.1218350530,-0.3524360359,-0.3196646571,-23.5245437622,9.0124988556,-259.1371154785
        1.4271371365,       -0.1218350530,-0.3524360359,-0.3196646571,-23.5245437622,9.0124988556,-261.6548156738
        1.4299120903,       -0.1218350530,-0.3524360359,-0.3196646571,-35.9604568481,8.4174060822,-261.6548156738
        1.4326181412,       -0.1809170842,-0.3231391609,-0.2854849696,-35.9604568481,8.4174060822,-263.4248352051
        1.4353251457,       -0.1809170842,-0.3231391609,-0.2854849696,-48.7625808716,9.1498279572,-263.4248352051
        1.4380619526,       -0.1809170842,-0.3231391609,-0.2854849696,-48.7625808716,9.1498279572,-265.1033020020
        1.4406371117,       -0.1809170842,-0.3231391609,-0.2854849696,-61.2900466919,9.0124988556,-265.1033020020
        1.4432101250,       -0.2263272405,-0.2513618171,-0.2532584071,-61.2900466919,9.0124988556,-265.1033020020
        1.4457850456,       -0.2263272405,-0.2513618171,-0.2532584071,-72.6120681763,9.2413806915,-266.3392639160
        1.4484059811,       -0.2263272405,-0.2513618171,-0.2532584071,-72.6120681763,9.2413806915,-266.3392639160
        1.4511110783,       -0.2263272405,-0.2513618171,-0.2073599696,-80.6381912231,9.8975086212,-266.9801330566
        1.4538149834,       -0.2512295842,-0.1771430671,-0.2073599696,-80.6381912231,9.8975086212,-266.9801330566
        1.4565310478,       -0.2512295842,-0.1771430671,-0.2073599696,-84.7428054810,10.8740711212,-268.0024719238
        1.4592139721,       -0.2512295842,-0.1771430671,-0.2073599696,-84.7428054810,10.8740711212,-268.0024719238
        1.4617941380,       -0.2512295842,-0.0965766609,-0.1819693446,-87.2605056763,12.8577136993,-268.9179992676
        1.4644811153,       -0.2712491155,-0.0965766609,-0.1819693446,-87.2605056763,12.8577136993,-268.9179992676
        1.4670579433,       -0.2712491155,-0.0965766609,-0.1819693446,-87.6724929810,16.1688709259,-269.4673156738
        1.4697549343,       -0.2712491155,-0.0965766609,-0.1819693446,-87.6724929810,16.1688709259,-269.4673156738
        1.4724631310,       -0.2663663030,-0.0052680671,-0.1497427821,-86.4975662231,19.8309803009,-269.9403381348
        1.4751751423,       -0.2663663030,-0.0052680671,-0.1497427821,-86.4975662231,19.8309803009,-269.9403381348
        1.4778981209,       -0.2663663030,-0.0052680671,-0.1497427821,-86.6043777466,25.0342273712,-270.3828430176
        1.4806070328,       -0.2663663030,-0.0052680671,-0.1497427821,-86.6043777466,25.0342273712,-270.3828430176
        1.4833199978,       -0.2360928655,0.0982475579,-0.1341177821,-86.8637771606,32.2211151123,-268.9637756348
        1.4861690998,       -0.2360928655,0.0982475579,-0.1341177821,-86.8637771606,32.2211151123,-268.9637756348
        1.4891159534,       -0.2360928655,0.0982475579,-0.1341177821,-87.1842117310,37.5464324951,-264.0504455566
        1.4917020798,       -0.2360928655,0.2232475579,-0.1009146571,-87.1842117310,37.5464324951,-264.0504455566
        1.4942770004,       -0.2077725530,0.2217827141,-0.1009146571,-87.0316238403,39.6979217529,-257.3060607910
        1.4968609810,       -0.2077725530,0.2217827141,-0.1009146571,-87.0316238403,39.6979217529,-257.3060607910
        1.4995450974,       -0.2077725530,0.2217827141,-0.1009146571,-87.7487869263,40.8575897217,-250.5158843994
        1.5022580624,       -0.2077725530,0.2466850579,-0.0271841884,-87.7487869263,40.8575897217,-250.5158843994
        1.5049710274,       -0.1760342717,0.2466850579,-0.0271841884,-88.5575027466,41.4374237061,-244.0766754150
        1.5076811314,       -0.1760342717,0.2466850579,-0.0271841884,-88.5575027466,41.4374237061,-244.0766754150
        1.5104041100,       -0.1760342717,0.2466850579,-0.0271841884,-88.4812088013,42.3224334717,-237.9273834229
        1.5131220818,       -0.1482022405,0.1646538079,0.0118783116,-88.4812088013,42.3224334717,-237.9273834229
        1.5158281326,       -0.1482022405,0.1646538079,0.0118783116,-87.0774002075,41.7273406982,-231.8543853760
        1.5185320377,       -0.1482022405,0.1646538079,0.0118783116,-87.0774002075,41.7273406982,-231.8543853760
        1.5211069584,       -0.1482022405,0.1646538079,0.0118783116,-84.6359939575,40.9949188232,-227.4293365479
        1.5236899853,       -0.1003506780,0.1065483391,0.0318978429,-84.6359939575,40.9949188232,-227.4293365479
        1.5262739658,       -0.1003506780,0.1065483391,0.0318978429,-80.9891433716,40.4150848389,-223.6298980713
        1.5290081501,       -0.1003506780,0.1065483391,0.0318978429,-80.9891433716,40.4150848389,-223.6298980713
        1.5315840244,       -0.1003506780,0.1065483391,0.0318978429,-75.8927078247,39.6063690186,-219.2201080322
        1.5341689587,       -0.0603116155,0.1109428704,0.0260384679,-75.8927078247,39.6063690186,-219.2201080322
        1.5367450714,       -0.0603116155,0.1109428704,0.0260384679,-69.9265213013,37.8973846436,-213.5590972900
        1.5394520760,       -0.0603116155,0.1109428704,0.0260384679,-69.9265213013,37.8973846436,-213.5590972900
        1.5420329571,       -0.0603116155,0.1109428704,0.0074837804,-66.0202713013,36.6614227295,-206.4790191650
        1.5446100235,       -0.0388272405,0.1890678704,0.0074837804,-65.4099197388,36.6614227295,-206.4790191650
        1.5471920967,       -0.0388272405,0.1890678704,0.0074837804,-65.4099197388,35.9290008545,-198.0866851807
        1.5500240326,       -0.0388272405,0.1890678704,0.0074837804,-62.1445388794,35.9290008545,-198.0866851807
        1.5527391434,        0.0861727595,0.2725639641,0.0069954991,-62.1445388794,35.4559783936,-188.3210601807
        1.5554490089,       -0.0183194280,0.2725639641,0.0069954991,-61.3663406372,35.4559783936,-188.3210601807
        1.5581700802,       -0.0183194280,0.2725639641,0.0069954991,-61.3663406372,34.7540740967,-177.9298248291
        1.5608890057,       -0.0183194280,0.2725639641,0.0069954991,-62.1140213013,34.7540740967,-177.9298248291
        1.5635981560,        0.0007235408,0.3155327141,0.0358040929,-62.1140213013,33.5181121826,-167.8590240479
        1.5663039684,        0.0007235408,0.3155327141,0.0358040929,-62.9837722778,33.5181121826,-167.8590240479
        1.5690240860,        0.0007235408,0.3155327141,0.0358040929,-62.9837722778,32.4194793701,-157.6356353760
        1.5717329979,        0.0007235408,0.3155327141,0.0358040929,-64.8758621216,32.4194793701,-157.6356353760
        1.5744400024,        0.0309969783,0.3453178704,0.0289681554,-64.8758621216,31.9922351837,-147.1223297119
        1.5771541595,        0.0309969783,0.3453178704,0.0289681554,-68.0802078247,31.9922351837,-147.1223297119
        1.5798060894,        0.0309969783,0.3453178704,0.0289681554,-68.0802078247,31.9922351837,-136.2580718994
        1.5823919773,        0.0309969783,0.3453178704,0.0460579991,-70.9488601685,30.6494617462,-136.2580718994
        1.5849640369,        0.0891024470,0.4361381829,0.0460579991,-70.9488601685,30.6494617462,-124.2341461182
        1.5875389576,        0.0891024470,0.4361381829,0.0460579991,-74.3057937622,28.4369373322,-124.2341461182
        1.5901920795,        0.0891024470,0.4361381829,0.0460579991,-74.3057937622,28.4369373322,-108.6091461182
        1.5928759575,        0.0891024470,0.5347709656,0.1109994054,-77.7847976685,25.6598377228,-111.5693511963
        1.5954549313,        0.1511141658,0.5347709656,0.1109994054,-77.7847976685,25.6598377228,-111.5693511963
        1.5980949402,        0.1511141658,0.5347709656,0.1109994054,-79.5395584106,22.4097156525,-99.6827545166
        1.6008031368,        0.1511141658,0.5347709656,0.1109994054,-79.5395584106,22.4097156525,-99.6827545166
        1.6035161018,        0.2067782283,0.5835990906,0.1451790929,-79.9973220825,20.0446033478,-88.0860748291
        1.6063859463,        0.2067782283,0.5835990906,0.1451790929,-79.9973220825,20.0446033478,-75.5128326416
        1.6093490124,        0.2067782283,0.5835990906,0.1451790929,-79.4174880981,16.7487049103,-75.5128326416
        1.6120669842,        0.2067782283,0.5835990906,0.1451790929,-79.4174880981,16.7487049103,-63.0311470032
        1.6147699356,        0.2272860408,0.6583061218,0.1876595616,-77.4948806763,13.0408191681,-63.0311470032
        1.6174781322,        0.2272860408,0.6583061218,0.1876595616,-77.4948806763,13.0408191681,-51.1292915344
        1.6201930046,        0.2272860408,0.6583061218,0.1876595616,-73.9548416138,9.9280261993,-51.1292915344
        1.6228981018,        0.2272860408,0.6583061218,0.2335579991,-73.9548416138,9.9280261993,-39.7462348938
        1.6256041527,        0.2355868220,0.7408256531,0.2335579991,-69.0872879028,6.5558338165,-39.7462348938
        1.6283049583,        0.2355868220,0.7408256531,0.2335579991,-69.0872879028,6.5558338165,-28.0274848938
        1.6308779716,        0.2355868220,0.7408256531,0.2335579991,-62.7548904419,3.6261463165,-27.8901557922
        1.6334619522,        0.2355868220,0.8306694031,0.3097298741,-62.7548904419,3.6261463165,-27.8901557922
        1.6360299587,        0.2658602595,0.8306694031,0.3097298741,-55.4459304810,-0.4632091522,-16.2171821594
        1.6386570930,        0.2658602595,0.8306694031,0.3097298741,-55.4459304810,-0.4632091522,-16.2171821594
        1.6412329674,        0.2658602595,0.8306694031,0.3097298741,-44.8410720825,-5.3917980194,-3.4303169250
        1.6438081264,        0.2809969783,0.9253959656,0.3722298741,-44.8410720825,-5.3917980194,-3.4303169250
        1.6463911533,        0.2809969783,0.9253959656,0.3722298741,-30.8640213013,-10.2288341522,8.8377494812
        1.6490180492,        0.2809969783,0.9253959656,0.3722298741,-30.8640213013,-10.2288341522,8.8377494812
        1.6515929699,        0.2809969783,0.9253959656,0.3722298741,-16.4444656372,-15.6914806366,21.5483207703
        1.6541700363,        0.2853915095,1.0191459656,0.4083626866,-16.4444656372,-15.6914806366,21.5483207703
        1.6568551064,        0.2853915095,1.0191459656,0.4083626866,-2.0554275513,-21.4898204803,34.0452690125
        1.6595661640,        0.2853915095,1.0191459656,0.4083626866,-2.0554275513,-21.4898204803,34.0452690125
        1.6621470451,        0.2853915095,1.0191459656,0.4083626866,13.8900070190,-28.1426525116,45.6419487000
        1.6647219658,        0.2595126033,1.1036186218,0.4772103429,13.8900070190,-28.1426525116,45.6419487000
        1.6673071384,        0.2595126033,1.1036186218,0.4772103429,32.7498703003,-35.6804962158,56.3078422546
        1.6701371670,        0.2595126033,1.1036186218,0.4772103429,32.7498703003,-35.6804962158,56.3078422546
        1.6728460789,        0.2595126033,1.1036186218,0.4772103429,50.3432540894,-43.2030792236,60.8702201843
        1.6755630970,        0.0417391658,0.7305717468,0.3951790929,50.3432540894,-43.2030792236,60.8702201843
        1.6782660484,        0.0417391658,0.7305717468,0.3951790929,70.1796798706,-40.9142608643,59.5427055359
        1.6808421612,        0.0417391658,0.7305717468,0.3951790929,70.1796798706,-40.9142608643,59.5427055359
        1.6834170818,        0.0417391658,0.7305717468,-0.1443716884,70.1796798706,-28.6461925507,62.1672172546
        1.6859970093,       -0.3064053655,-0.0604438484,-0.1443716884,88.7038497925,-28.6461925507,62.1672172546
        1.6886210442,       -0.3064053655,-0.0604438484,-0.1443716884,88.7038497925,-16.9274425507,60.5650444031
        1.6913290024,       -0.3064053655,-0.0604438484,-0.1443716884,84.4924240112,-15.2337169647,60.5650444031
        1.6940369606,       -0.3064053655,-1.3543891907,-0.6194693446,84.4924240112,0.3912830353,50.8451957703
        1.6967401505,       -0.2497647405,-1.3543891907,-0.6194693446,74.1469650269,-0.9362316132,50.8451957703
        1.6994891167,       -0.2497647405,-1.3543891907,-0.6194693446,74.1469650269,6.8762683868,42.2239799500
        1.7022011280,       -0.2497647405,-1.3543891907,-0.6194693446,48.2680587769,6.8915271759,42.2239799500
        1.7049040794,       -0.0959561467,-1.5560493469,-0.5735709071,48.2680587769,6.8915271759,40.5760307312
        1.7076029778,       -0.0959561467,-1.5560493469,-0.5735709071,0.9505538940,5.8234119415,40.5760307312
        1.7103271484,       -0.0959561467,-1.5560493469,-0.5735709071,0.9505538940,1.9171619415,48.4495658875
        1.7130360603,       -0.0959561467,-1.5560493469,-0.5735709071,-45.7413406372,3.3362293243,48.4495658875
        1.7157449722,       -0.0798428655,-0.6600532532,-0.3914420009,-45.7413406372,-0.5700206757,62.4723930359
        1.7185010910,       -0.0798428655,-0.6600532532,-0.3914420009,-88.4659500122,-0.5395030975,62.4723930359
        1.7213079929,       -0.0798428655,-0.6600532532,-0.3914420009,-88.4659500122,-8.3520030975,76.3578948975
        1.7241981030,       -0.0798428655,0.1187553704,-0.1375357509,-125.3311843872,-7.4669933319,76.3578948975
        1.7269041538,       -0.0949795842,0.1187553704,-0.1375357509,-144.8624267578,-13.7230968475,86.5660247803
        1.7296919823,       -0.0949795842,0.1187553704,-0.1375357509,-144.9844970703,-13.7230968475,86.5660247803
        1.7322721481,       -0.0949795842,0.1187553704,-0.1375357509,-144.9844970703,-21.5355968475,93.7376556396
        1.7348489761,       -0.1037686467,0.3824272454,-0.0120474696,-149.5163574219,-19.6587657928,93.7376556396
        1.7374320030,       -0.1037686467,0.3824272454,-0.0120474696,-149.5163574219,-19.6587657928,95.9806976318
        1.7401480675,       -0.1037686467,0.3824272454,-0.0120474696,-148.8754882812,-25.3960704803,95.9806976318
        1.7428579330,       -0.1037686467,0.3824272454,-0.0120474696,-148.8754882812,-25.3960704803,91.1436614990
        1.7455720901,       -0.0612881780,0.4107475579,-0.0213248134,-140.9866943359,-27.4407482147,91.1436614990
        1.7482991219,       -0.0612881780,0.4107475579,-0.0213248134,-140.9866943359,-27.4407482147,79.1197357178
        1.7510130405,       -0.0612881780,0.4107475579,-0.0213248134,-118.6936111450,-27.9442882538,79.1197357178
        1.7537260056,       -0.0612881780,0.4107475579,-0.0213248134,-118.6936111450,-27.9442882538,65.8598480225
        1.7564411163,        0.1403719783,0.5845756531,-0.0833365321,-86.0092849731,-28.9361095428,65.8598480225
        1.7591090202,        0.1403719783,0.5845756531,-0.0833365321,-86.0092849731,-28.9361095428,56.7808647156
        1.7616820335,        0.1403719783,0.5845756531,-0.0833365321,-51.5396804810,-29.7906017303,56.7808647156
        1.7642610073,        0.1403719783,0.5845756531,-0.0188834071,-51.5396804810,-29.7906017303,56.7808647156
        1.7668430805,        0.0397860408,0.7173881531,-0.0188834071,-20.6406326294,-30.1110363007,53.5307426453
        1.7694680691,        0.0397860408,0.7173881531,-0.0188834071,-20.6406326294,-30.1110363007,53.5307426453
        1.7720479965,        0.0397860408,0.7173881531,-0.0188834071,2.0186691284,-30.0805187225,52.1421928406
        1.7746219635,        0.0397860408,0.4673881829,0.0348275304,2.0186691284,-30.0805187225,52.1421928406
        1.7771990299,       -0.0647061467,0.4791069329,0.0348275304,14.2409591675,-29.4854259491,48.7852592468
        1.7799410820,       -0.0647061467,0.4791069329,0.0348275304,14.2409591675,-29.4854259491,48.7852592468
        1.7825200558,       -0.0647061467,0.4791069329,0.0348275304,18.8185958862,-28.8903331757,44.0855522156
        1.7851040363,        0.0602938533,0.3126030266,0.1359017491,18.8185958862,-28.8903331757,44.0855522156
        1.7879149914,        0.0075594783,0.3126030266,0.1359017491,20.4512863159,-30.2178478241,41.1100883484
        1.7906219959,        0.0075594783,0.3126030266,0.1359017491,20.4512863159,-30.2178478241,41.1100883484
        1.7933390141,        0.0075594783,0.3126030266,0.1359017491,19.8714523315,-32.1099395752,39.5384330750
        1.7960441113,        0.0778719783,0.3018608391,0.1691048741,19.8714523315,-32.1099395752,39.5384330750
        1.7987720966,        0.0778719783,0.3018608391,0.1691048741,17.5063400269,-31.6674327850,37.2496147156
        1.8014881611,        0.0778719783,0.3018608391,0.1691048741,17.5063400269,-31.6674327850,37.2496147156
        1.8041920662,        0.0778719783,0.3018608391,0.1691048741,14.2714767456,-29.5312023163,33.7553520203
        1.8068971634,        0.0905672908,0.2461967766,0.1285775304,14.2714767456,-29.5312023163,33.7553520203
        1.8096129894,        0.0905672908,0.2461967766,0.1285775304,11.3112716675,-27.3034191132,30.9324760437
        1.8123209476,        0.0905672908,0.2461967766,0.1285775304,11.3112716675,-27.3034191132,30.9324760437
        1.8150329590,        0.0905672908,0.2461967766,0.1017220616,7.0693283081,-25.3045177460,28.8267631531
        1.8177390099,        0.0715243220,0.1812553704,0.1017220616,7.0693283081,-25.3045177460,28.8267631531
        1.8203539848,        0.0715243220,0.1812553704,0.1017220616,-0.4379959106,-24.0990734100,26.9346733093
        1.8229329586,        0.0715243220,0.1812553704,0.1017220616,-0.4379959106,-24.0990734100,26.9346733093
        1.8255100250,        0.0715243220,0.1685600579,0.1212533116,-8.1894607544,-23.5650157928,24.4322319031
        1.8282270432,        0.0583407283,0.1685600579,0.1212533116,-8.1894607544,-23.5650157928,24.4322319031
        1.8308031559,        0.0583407283,0.1685600579,0.1212533116,-12.4314041138,-22.4358654022,21.2431449890
        1.8333780766,        0.0583407283,0.1685600579,0.1212533116,-12.4314041138,-22.4358654022,21.2431449890
        1.8359620571,        0.0632235408,0.1788139641,0.1222298741,-16.3376541138,-19.8876476288,18.2676811218
        1.8386759758,        0.0632235408,0.1788139641,0.1222298741,-13.5300369263,-19.8876476288,18.2676811218
        1.8413381577,        0.0632235408,0.1788139641,0.1222298741,-9.6237869263,-17.2173595428,14.8649711609
        1.8441460133,        0.0632235408,0.1788139641,0.1222298741,-10.9513015747,-17.2173595428,14.8649711609
        1.8468489647,        0.0646883845,0.2046928704,0.0675423741,-5.7938308716,-14.0740489960,10.7756156921
        1.8499691486,        0.0646883845,0.2046928704,0.0675423741,-5.7938308716,-14.0740489960,10.7756156921
        1.8527870178,        0.0646883845,0.2046928704,0.0675423741,-2.2232742310,-11.4190196991,6.9761772156
        1.8554980755,        0.0646883845,0.1876030266,0.0460579991,-2.2232742310,-11.4190196991,6.9761772156
        1.8582160473,        0.0788485408,0.1876030266,0.0460579991,-0.3617019653,-9.9083995819,3.7565727234
        1.8609211445,        0.0788485408,0.1876030266,0.0460579991,-0.3617019653,-9.9083995819,3.7565727234
        1.8636269569,        0.0788485408,0.1876030266,0.0460579991,0.2028732300,-8.8250255585,0.5674858093
        1.8663401604,        0.0842196345,0.1490288079,0.0621712804,0.2028732300,-8.8250255585,0.5674858093
        1.8690330982,        0.0842196345,0.1490288079,0.0621712804,-0.5905838013,-8.1231212616,-2.3011665344
        1.8716149330,        0.0842196345,0.1490288079,0.0621712804,-0.5905838013,-8.1231212616,-2.3011665344
        1.8741900921,        0.0842196345,0.1490288079,0.0621712804,-1.2924880981,-7.4212169647,-5.2613716125
        1.8767640591,        0.1042391658,0.1573295891,0.0196908116,-1.2924880981,-7.4212169647,-5.2613716125
        1.8793580532,        0.1042391658,0.1573295891,0.0196908116,-1.2924880981,-7.2991466522,-8.2978706360
        1.8819351196,        0.1042391658,0.1573295891,0.0196908116,-1.9791336060,-7.2991466522,-8.2978706360
        1.8845109940,        0.1042391658,0.1573295891,0.0196908116,-1.9791336060,-7.2991466522,-11.2733345032
        1.8870971203,        0.1310946345,0.1773491204,-0.0042349696,-2.4063796997,-7.6195812225,-11.2733345032
        1.8896820545,        0.1310946345,0.1773491204,-0.0042349696,-2.4063796997,-7.6195812225,-14.9201850891
        1.8922629356,        0.1310946345,0.1773491204,-0.0042349696,-2.1469802856,-7.6653575897,-14.9201850891
        1.8948409557,        0.1310946345,0.1773491204,-0.0042349696,-2.1469802856,-7.6653575897,-14.9201850891
        1.8974161148,        0.1213290095,0.1607475579,-0.0281607509,-1.9486160278,-8.0926036835,-18.4297065735
        1.9001359940,        0.1213290095,0.1607475579,-0.0281607509,-1.9486160278,-8.0926036835,-18.4297065735
        1.9027070999,        0.1213290095,0.1607475579,-0.0281607509,-1.8570632935,-8.5808849335,-21.3441352844
        1.9052801132,        0.1213290095,0.1607475579,-0.0281607509,-1.8570632935,-8.5808849335,-21.3441352844
        1.9079720974,        0.1120516658,0.1294975579,-0.0511099696,-2.4826736450,-9.7558116913,-23.7245063782
        1.9106941223,        0.1120516658,0.1294975579,-0.0511099696,-2.4826736450,-9.7558116913,-23.7245063782
        1.9134111404,        0.1120516658,0.1294975579,-0.0511099696,-3.3829421997,-11.6173839569,-26.2269477844
        1.9162230492,        0.1120516658,0.1065483391,-0.0701529384,-3.3829421997,-11.6173839569,-26.2269477844
        1.9188950062,        0.1066805720,0.1065483391,-0.0701529384,-2.8641433716,-12.8228282928,-28.9124946594
        1.9214761257,        0.1066805720,0.1065483391,-0.0701529384,-2.8641433716,-12.8228282928,-28.9124946594
        1.9240419865,        0.1066805720,0.1065483391,-0.0701529384,-0.9567947388,-13.5399913788,-30.9266548157
        1.9266190529,        0.1066805720,0.0787163079,-0.0789420009,-0.9567947388,-13.5399913788,-30.9266548157
        1.9293169975,        0.0978915095,0.0787163079,-0.0789420009,0.6301193237,-14.1656017303,-33.0628852844
        1.9320311546,        0.0978915095,0.0787163079,-0.0789420009,0.6301193237,-14.1656017303,-33.0628852844
        1.9347431660,        0.0978915095,0.0787163079,-0.0789420009,2.7663497925,-13.8909435272,-35.2906684875
        1.9374511242,        0.1115633845,-0.0047797859,-0.0740591884,2.7663497925,-13.8909435272,-35.2906684875
        1.9401731491,        0.1115633845,-0.0047797859,-0.0740591884,3.3767013550,-14.0282726288,-37.2895698547
        1.9428861141,        0.1115633845,-0.0047797859,-0.0740591884,3.3767013550,-14.0282726288,-37.2895698547
        1.9455931187,        0.1115633845,-0.0047797859,-0.0740591884,4.1854171753,-14.0435314178,-39.0443305969
        1.9483139515,        0.1237704158,-0.0072211921,-0.0359732509,4.1854171753,-14.0435314178,-39.0443305969
        1.9510231018,        0.1237704158,-0.0072211921,-0.0359732509,7.7712326050,-13.8604259491,-40.9059028625
        1.9537291527,        0.1237704158,-0.0072211921,-0.0359732509,7.7712326050,-13.8604259491,-40.9059028625
        1.9564399719,        0.1237704158,0.1177788079,0.0030892491,13.1728439331,-12.5939464569,-42.8742866516
        1.9591619968,        0.1013094783,0.0508842766,0.0030892491,13.1728439331,-12.5939464569,-42.8742866516
        1.9618639946,        0.1013094783,0.0508842766,0.0030892491,19.0322189331,-12.0293712616,-44.3543891907
        1.9646339417,        0.1013094783,0.0508842766,0.0030892491,19.0322189331,-12.0293712616,-44.3543891907
        1.9673321247,        0.1320711970,0.0333061516,0.0377572179,25.1967697144,-12.8380870819,-44.9189643860
        1.9703910351,        0.1320711970,0.0333061516,0.0377572179,25.1967697144,-12.8380870819,-44.9189643860
        1.9729640484,        0.1320711970,0.0333061516,0.0377572179,31.0408859253,-13.9672374725,-44.6137886047
        1.9755380154,        0.1320711970,0.0333061516,0.0377572179,31.0408859253,-13.9672374725,-44.6137886047
        1.9781279564,        0.1350008845,-0.0331000984,0.0401986241,35.8321456909,-14.5623302460,-43.9576606750
        1.9809460640,        0.1350008845,-0.0331000984,0.0401986241,35.8321456909,-14.5623302460,-43.9576606750
        1.9836521149,        0.1350008845,-0.0331000984,0.0401986241,38.0751876831,-13.4789562225,-43.1794624329
        1.9863660336,        0.1350008845,-0.0331000984,0.0309212804,38.0751876831,-13.4789562225,-43.1794624329
        1.9890880585,        0.1227938533,-0.0594672859,0.0309212804,36.0610275269,-11.9988536835,-40.8448677063
        1.9917981625,        0.1227938533,-0.0594672859,0.0309212804,36.0610275269,-11.9988536835,-40.8448677063
        1.9945061207,        0.1227938533,-0.0594672859,0.0309212804,33.2991867065,-10.7628917694,-38.2813911438
        1.9972131252,        0.1227938533,-0.0863227546,0.0177376866,33.2991867065,-10.7628917694,-38.2813911438
        1.9998400211,        0.1105868220,-0.0863227546,0.0177376866,31.0408859253,-10.0457286835,-35.3211860657
        2.0024180412,        0.1105868220,-0.0863227546,0.0177376866,31.0408859253,-10.0457286835,-35.3211860657
        2.0049951077,        0.1105868220,-0.0863227546,0.0177376866,28.2637863159,-9.4353771210,-32.3609809875
        2.0075769424,        0.1174227595,-0.0477485359,0.0343392491,28.2637863159,-9.4353771210,-32.3609809875
        2.0102050304,        0.1174227595,-0.0477485359,0.0343392491,24.3575363159,-8.1536388397,-30.2552680969
        2.0127871037,        0.1174227595,-0.0477485359,0.0343392491,24.8915939331,-8.1536388397,-30.2552680969
        2.0153629780,        0.1174227595,-0.0477485359,0.0343392491,24.8915939331,-8.1536388397,-28.4242134094
        2.0179350376,        0.1271883845,-0.0169868171,0.0157845616,21.0158615112,-6.9176769257,-28.4242134094
        2.0205211639,        0.1271883845,-0.0169868171,0.0157845616,21.0158615112,-6.9176769257,-26.8678169250
        2.0230970383,        0.1271883845,-0.0169868171,0.0157845616,19.9172286987,-6.7345714569,-26.8678169250
        2.0256750584,        0.1271883845,-0.0169868171,0.0157845616,19.9172286987,-6.7345714569,-22.9615669250
        2.0284190178,        0.1208407283,-0.0101508796,0.0524056554,21.1684494019,-6.0326671600,-25.2198677063
        2.0311141014,        0.1208407283,-0.0101508796,0.0524056554,21.1684494019,-6.0326671600,-23.6024360657
        2.0338129997,        0.1208407283,-0.0101508796,0.0524056554,21.3973312378,-5.8343029022,-23.6024360657
        2.0365059376,        0.1208407283,-0.0101508796,0.0524056554,21.3973312378,-5.8343029022,-19.6961860657
        2.0391941071,        0.1042391658,-0.0086860359,0.0279915929,19.3221359253,-6.2920665741,-21.4356880188
        2.0418710709,        0.1042391658,-0.0086860359,0.0279915929,19.3221359253,-6.2920665741,-21.4356880188
        2.0446569920,        0.1042391658,-0.0086860359,0.0279915929,16.7281417847,-7.1618175507,-19.5588569641
        2.0473389626,        0.1042391658,-0.0111274421,0.0382454991,16.7281417847,-7.1618175507,-15.6526069641
        2.0501050949,        0.0783602595,-0.0111274421,0.0382454991,16.6518478394,-7.5432872772,-17.1021919250
        2.0528199673,        0.0783602595,-0.0111274421,0.0382454991,16.6518478394,-7.5432872772,-17.1021919250
        2.0555341244,        0.0783602595,-0.0111274421,0.0382454991,18.6354904175,-7.1770763397,-14.5997505188
        2.0582890511,        0.0764071345,0.0577202141,0.0358040929,18.6354904175,-7.1770763397,-10.6935005188
        2.0610051155,        0.0764071345,0.0577202141,0.0358040929,21.0921554565,-7.6043224335,-12.9365425110
        2.0637209415,        0.0764071345,0.0577202141,0.0358040929,21.0921554565,-7.6043224335,-12.9365425110
        2.0664341450,        0.0764071345,0.0577202141,0.0358040929,22.5264816284,-7.8942394257,-11.6853218079
        2.0691399574,        0.0602938533,0.0787163079,0.0314095616,22.5264816284,-7.8942394257,-7.7790718079
        2.0717229843,        0.0602938533,0.0787163079,0.0314095616,24.7237472534,-8.0468273163,-10.2357368469
        2.0742981434,        0.0602938533,0.0787163079,0.0314095616,24.7237472534,-8.0468273163,-10.2357368469
        2.0768830776,        0.0602938533,0.0787163079,0.0314095616,26.8142013550,-8.8250255585,-7.7485542297
        2.0795559883,        0.0661532283,0.0757866204,0.0416634679,26.8142013550,-8.8250255585,-7.7485542297
        2.0822639465,        0.0661532283,0.0757866204,0.0416634679,28.2027511597,-9.3896007538,-5.8412055969
        2.0851321220,        0.0661532283,0.0757866204,0.0416634679,28.2027511597,-9.3896007538,-5.8412055969
        2.0882279873,        0.0661532283,0.0665092766,0.0104134679,26.3869552612,-9.1759777069,-3.4150581360
        2.0909430981,        0.0617586970,0.0665092766,0.0104134679,26.3869552612,-9.1759777069,0.4911918640
        2.0936551094,        0.0617586970,0.0665092766,0.0104134679,23.3199386597,-8.7029552460,-0.2717475891
        2.0963671207,        0.0617586970,0.0665092766,0.0104134679,23.3199386597,-8.7029552460,3.6345024109
        2.0990920067,        0.0725008845,0.0518608391,0.0465462804,21.7788009644,-8.7792491913,2.5663871765
        2.1017940044,        0.0725008845,0.0518608391,0.0465462804,21.7788009644,-8.7792491913,2.5663871765
        2.1045060158,        0.0725008845,0.0518608391,0.0465462804,21.6872482300,-9.5727062225,4.8704643250
        2.1072170734,        0.0725008845,0.0518608391,0.0465462804,21.6872482300,-9.5727062225,8.7767143250
        2.1100480556,        0.0851961970,0.0665092766,0.0611947179,22.7858810425,-10.3051280975,7.1745414734
        2.1127610207,        0.0851961970,0.0665092766,0.0611947179,22.7858810425,-10.3051280975,10.3636283875
        2.1154711246,        0.0851961970,0.0665092766,0.0611947179,26.2191085815,-9.2217540741,10.3636283875
        2.1181819439,        0.0851961970,0.0098686516,0.0157845616,26.2191085815,-9.2217540741,14.2698783875
        2.1207640171,        0.0529696345,0.0098686516,0.0157845616,28.9351730347,-8.9776134491,13.6900444031
        2.1233429909,        0.0529696345,0.0098686516,0.0157845616,28.9351730347,-8.9776134491,13.6900444031
        2.1259181499,        0.0529696345,0.0098686516,0.0157845616,30.2932052612,-9.5727062225,17.5810356140
        2.1285099983,        0.0529696345,-0.0658149421,0.0387337804,30.2932052612,-9.5727062225,17.5810356140
        2.1310861111,        0.0056063533,-0.0658149421,0.0387337804,31.9564132690,-8.5656261444,21.8382377625
        2.1336679459,        0.0056063533,-0.0658149421,0.0387337804,31.9564132690,-8.5656261444,21.8382377625
        2.1362421513,        0.0056063533,-0.0658149421,0.0387337804,32.3836593628,-7.2533702850,26.4921684265
        2.1389751434,       -0.0398038030,0.0171928704,0.0279915929,32.3836593628,-7.2533702850,26.4921684265
        2.1415600777,       -0.0398038030,0.0171928704,0.0279915929,34.3215255737,-7.0855236053,32.3973197937
        2.1441380978,       -0.0398038030,0.0171928704,0.0279915929,34.3215255737,-7.0855236053,32.3973197937
        2.1467089653,       -0.0398038030,0.0171928704,0.0279915929,35.1455001831,-8.0926036835,37.4479789734
        2.1495020390,       -0.1345303655,-0.0389594734,0.0533822179,35.1455001831,-8.0926036835,37.4479789734
        2.1522109509,       -0.1345303655,-0.0389594734,0.0533822179,37.4343185425,-7.2686290741,41.1558647156
        2.1549220085,       -0.1345303655,-0.0389594734,0.0533822179,37.4343185425,-7.2686290741,41.1558647156
        2.1576261520,       -0.1345303655,-0.0389594734,0.0533822179,38.4413986206,-5.8495616913,45.5656547546
        2.1603391171,       -0.2868741155,-0.0482368171,-0.0330435634,38.4413986206,-5.8495616913,45.5656547546
        2.1630530357,       -0.2868741155,-0.0482368171,-0.0330435634,36.5493087769,-4.4915294647,51.0588188171
        2.1657590866,       -0.2868741155,-0.0482368171,-0.0330435634,36.5493087769,-4.4915294647,51.0588188171
        2.1684520245,       -0.2868741155,-0.0482368171,-0.0320670009,36.6713790894,-4.5678234100,56.5367240906
        2.1710281372,       -0.3449795842,0.0162163079,-0.0320670009,36.6713790894,-4.5678234100,56.5367240906
        2.1737120152,       -0.3449795842,0.0162163079,-0.0320670009,39.8604660034,-5.0103282928,61.5416069031
        2.1762931347,       -0.3449795842,0.0162163079,-0.0320670009,39.8604660034,-5.0103282928,61.5416069031
        2.1789460182,       -0.3449795842,0.0259819329,-0.0784537196,44.4533615112,-4.1558361053,65.8140716553
        2.1816530228,       -0.4045498967,0.0259819329,-0.0784537196,44.4533615112,-4.1558361053,65.8140716553
        2.1843690872,       -0.4045498967,0.0259819329,-0.0784537196,46.7116622925,-2.8283214569,69.8576507568
        2.1870739460,       -0.4045498967,0.0259819329,-0.0784537196,46.7116622925,-2.8283214569,69.8576507568
        2.1897900105,       -0.4470303655,0.0191459954,-0.0950552821,46.7116622925,-2.8893566132,74.1301116943
        2.1925089359,       -0.4470303655,0.0191459954,-0.0950552821,49.5345382690,-2.8893566132,74.1301116943
        2.1952130795,       -0.4470303655,0.0191459954,-0.0950552821,53.4407882690,-3.2250499725,78.2194671631
        2.1979370117,       -0.4470303655,0.0191459954,-0.0950552821,51.4113693237,-3.2250499725,78.2194671631
        2.2006440163,       -0.4934170842,-0.1092719734,-0.0725943446,51.4113693237,-2.8893566132,82.4003753662
        2.2033531666,       -0.4934170842,-0.1092719734,-0.0725943446,51.0756759644,-2.8893566132,82.4003753662
        2.2062129974,       -0.4934170842,-0.1092719734,-0.0725943446,48.9699630737,-0.9820079803,86.2150726318
        2.2092499733,       -0.4934170842,-0.1888618171,-0.0808951259,48.9699630737,-0.9820079803,86.2150726318
        2.2119679451,       -0.5144131780,-0.1888618171,-0.0808951259,45.7656173706,1.0321521759,90.1518402100
        2.2146761417,       -0.5144131780,-0.1888618171,-0.0808951259,45.7656173706,1.0321521759,90.1518402100
        2.2173850536,       -0.5144131780,-0.1888618171,-0.0808951259,44.0566329956,1.4899158478,95.3093109131
        2.2199971676,       -0.5427334905,-0.3065375984,-0.0481802821,44.0566329956,1.4899158478,95.3093109131
        2.2225670815,       -0.5427334905,-0.3065375984,-0.0481802821,44.2397384644,1.6882801056,100.4210052490
        2.2251479626,       -0.5427334905,-0.3065375984,-0.0481802821,44.2397384644,1.6882801056,100.4210052490
        2.2277171612,       -0.5427334905,-0.3065375984,-0.0481802821,44.2397384644,2.1918201447,105.0444183350
        2.2304270267,       -0.5505459905,-0.4886665046,-0.0076529384,45.0484542847,2.1918201447,105.0444183350
        2.2331409454,       -0.5505459905,-0.4886665046,-0.0076529384,45.0484542847,1.1389636993,110.3544769287
        2.2358460426,       -0.5505459905,-0.4886665046,-0.0076529384,45.2163009644,1.1389636993,110.3544769287
        2.2386469841,       -0.5505459905,-0.4886665046,-0.0076529384,45.2163009644,-0.5089855194,115.6340179443
        2.2412290573,       -0.5993741155,-0.6395454407,0.0543587804,45.7808761597,-0.5089855194,115.6340179443
        2.2438030243,       -0.5993741155,-0.6395454407,0.0543587804,45.7808761597,-4.4152355194,121.4628753662
        2.2463829517,       -0.5993741155,-0.6395454407,0.0543587804,48.2222824097,-2.7978038788,121.4628753662
        2.2489650249,       -0.5993741155,-0.6395454407,0.1168587804,48.2222824097,-2.7978038788,126.4372406006
        2.2515470982,       -0.6325772405,-0.7274360657,0.1168587804,54.9514083862,-6.7956066132,126.4372406006
        2.2541241646,       -0.6325772405,-0.7274360657,0.1168587804,54.9514083862,-6.7956066132,126.4372406006
        2.2567000389,       -0.6325772405,-0.7274360657,0.1168587804,64.7628097534,-11.2053966522,129.4584808350
        2.2594151497,       -0.6325772405,-0.7274360657,0.1744759679,64.7628097534,-11.2053966522,129.4584808350
        2.2619991302,       -0.6877530217,-0.8280220032,0.1744759679,77.0613937378,-17.0952892303,130.9538421631
        2.2645771503,       -0.6877530217,-0.8280220032,0.1744759679,77.0613937378,-17.0952892303,130.9538421631
        2.2671589851,       -0.6877530217,-0.8280220032,0.1744759679,89.5888595581,-22.8020763397,131.3505706787
        2.2698960304,       -0.6877530217,-0.7162055969,0.2179329991,89.5888595581,-22.8020763397,131.3505706787
        2.2724721432,       -0.7590420842,-0.7162055969,0.2179329991,103.0471115112,-28.1273937225,130.4045257568
        2.2750539780,       -0.7590420842,-0.7162055969,0.2179329991,103.0471115112,-28.1273937225,130.4045257568
        2.2776291370,       -0.7590420842,-0.7162055969,0.2179329991,117.4666671753,-33.5290069580,129.8857269287
        2.2803330421,       -0.9909756780,-0.4798774421,0.0748665929,117.4666671753,-33.5290069580,129.8857269287
        2.2830481529,       -0.9909756780,-0.4798774421,0.0748665929,126.6829757690,-35.1006622314,134.5854339600
        2.2857570648,       -0.9909756780,-0.4798774421,0.0748665929,126.6829757690,-35.1006622314,134.5854339600
        2.2884809971,       -0.9909756780,-0.4798774421,0.0748665929,120.8541183472,-29.0886974335,148.3793792725
        2.2911889553,       -1.1086513996,-0.4789008796,0.1715462804,120.8541183472,-29.0886974335,148.3793792725
        2.2938921452,       -1.1086513996,-0.4789008796,0.1715462804,101.4601974487,-20.6658458710,164.3400726318
        2.2966070175,       -1.1086513996,-0.4789008796,0.1715462804,101.4601974487,-20.6658458710,164.3400726318
        2.2992579937,       -1.1086513996,-0.4789008796,0.1715462804,74.0096359253,-16.8511486053,175.6010589600
        2.3019461632,       -0.9343350530,-0.7635688782,0.2154915929,74.0096359253,-16.8511486053,175.6010589600
        2.3045301437,       -0.9343350530,-0.7635688782,0.2154915929,44.0871505737,-14.5318126678,177.5389251709
        2.3071000576,       -0.9343350530,-0.7635688782,0.2154915929,44.0871505737,-14.5318126678,177.5389251709
        2.3097779751,       -0.9343350530,-0.7635688782,0.3404915929,22.1755294800,-11.1748790741,170.9166107178
        2.3123519421,       -0.7585538030,-0.6820259094,0.3404915929,22.1755294800,-11.1748790741,170.9166107178
        2.3149261475,       -0.7585538030,-0.6820259094,0.3404915929,10.4567794800,-7.9552745819,158.3281097412
        2.3175041676,       -0.7585538030,-0.6820259094,0.3404915929,7.9695968628,-7.9552745819,158.3281097412
        2.3201670647,       -0.7585538030,-0.5501899719,0.1744759679,7.9695968628,-0.1427745819,143.6186370850
        2.3227429390,       -0.5280850530,-0.5501899719,0.1744759679,6.3369064331,-1.0583019257,143.6186370850
        2.3254380226,       -0.5280850530,-0.5501899719,0.1744759679,6.3369064331,10.6604480743,133.9750823975
        2.3284749985,       -0.5280850530,-0.5501899719,0.1744759679,14.7292404175,11.1487293243,133.9750823975
        2.3311810493,       -0.3713467717,-0.2381782234,-0.1380240321,14.7292404175,19.3579578400,132.4949798584
        2.3338930607,       -0.3713467717,-0.2381782234,-0.1380240321,15.7515792847,19.3579578400,132.4949798584
        2.3366000652,       -0.3713467717,-0.2381782234,-0.1380240321,0.1265792847,17.2064685822,132.7391204834
        2.3393220901,       -0.3713467717,-0.2381782234,-0.1380240321,1.5609054565,17.2064685822,132.7391204834
        2.3420310020,       -0.0197842717,0.2383842766,0.0729134679,-29.6890945435,3.5193347931,132.5102386475
        2.3447370529,       -0.0197842717,0.2383842766,0.0729134679,-30.4672927856,3.5193347931,132.5102386475
        2.3474440575,       -0.0197842717,0.2383842766,0.0729134679,-69.5297927856,-21.2151622772,119.1740570068
        2.3501639366,       -0.0197842717,0.2383842766,0.4991829991,-70.9030838013,-21.2151622772,119.1740570068
        2.3528771400,        0.5041415095,0.1299858391,0.4991829991,-70.9030838013,-44.0880889893,83.8652191162
        2.3555879593,        0.5041415095,0.1299858391,0.4991829991,-83.3847732544,-44.0880889893,83.8652191162
        2.3582911491,        0.5041415095,0.1299858391,0.4991829991,-83.3847732544,-53.3043975830,44.9705619812
        2.3608751297,        0.3791415095,-0.1458930671,0.3497689366,-67.2409744263,-53.3043975830,44.9705619812
        2.3634519577,        0.3513094783,-0.1458930671,0.3497689366,-67.2409744263,-53.3043975830,11.8284721375
        2.3661420345,        0.3513094783,-0.1458930671,0.3497689366,-45.8939285278,-56.9970245361,11.8284721375
        2.3687341213,        0.3513094783,-0.1458930671,0.3497689366,-45.8939285278,-56.9970245361,-22.1528511047
        2.3713121414,        0.3024813533,-0.6581001282,0.1261361241,-18.2450027466,-51.8853302002,-22.1528511047
        2.3738861084,        0.3024813533,-0.6581001282,0.1261361241,-18.2450027466,-51.8853302002,-22.1528511047
        2.3764591217,        0.3024813533,-0.6581001282,0.1261361241,10.8687667847,-34.2156524658,-56.2562446594
        2.3791899681,        0.3024813533,-0.6581001282,0.1261361241,10.8687667847,-34.2156524658,-56.2562446594
        2.3817629814,        0.3747469783,-0.7411079407,-0.1643912196,37.3275070190,-17.6446056366,-85.3242340088
        2.3843369484,        0.3747469783,-0.7411079407,-0.1643912196,37.3275070190,-17.6446056366,-85.3242340088
        2.3869130611,        0.3747469783,-0.7411079407,-0.1643912196,51.4266281128,-10.6255626678,-109.4178619385
        2.3895969391,        0.3747469783,-0.7411079407,-0.1643912196,51.4266281128,-10.6255626678,-109.4178619385
        2.3921761513,        0.5798251033,-0.6873970032,-0.2610709071,49.8702316284,-10.5187511444,-131.5888824463
        2.3947510719,        0.5798251033,-0.6873970032,-0.2610709071,49.8702316284,-10.5187511444,-131.5888824463
        2.3973209858,        0.5798251033,-0.6873970032,-0.2610709071,37.1291427612,-13.4179210663,-153.6683502197
        2.3999021053,        0.5798251033,-0.6873970032,-0.2610709071,37.1291427612,-13.4179210663,-153.6683502197
        2.4024860859,        0.6325594783,-0.6263618469,-0.2156607509,21.6109542847,-17.0495128632,-172.9707183838
        2.4050590992,        0.6325594783,-0.6263618469,-0.2156607509,21.6109542847,-17.0495128632,-172.9707183838
        2.4076371193,        0.6325594783,-0.6263618469,-0.2156607509,6.7183761597,-19.1247081757,-188.6414947510
        2.4102301598,        0.6325594783,-0.6263618469,-0.2156607509,6.7183761597,-19.1247081757,-188.6414947510
        2.4128029346,        0.5583407283,-0.5174751282,-0.1546255946,6.7183761597,-19.3078136444,-203.2594146729
        2.4153840542,        0.5583407283,-0.5174751282,-0.1546255946,-7.7011795044,-19.3078136444,-203.2594146729
        2.4180171490,        0.5583407283,-0.5174751282,-0.1546255946,-7.7011795044,-15.4015636444,-218.1977691650
        2.4205880165,        0.5583407283,-0.5174751282,-0.1546255946,-24.6842117310,-16.4544200897,-218.1977691650
        2.4231629372,        0.4460360408,-0.4330024421,-0.1385123134,-24.6842117310,-16.4544200897,-233.8227691650
        2.4257400036,        0.4460360408,-0.4330024421,-0.1385123134,-45.1767654419,-11.2206554413,-233.8227691650
        2.4284460545,        0.4460360408,-0.4330024421,-0.1385123134,-45.1767654419,-11.2206554413,-249.1883697510
        2.4311530590,        0.4460360408,-0.4330024421,-0.1975943446,-66.4932937622,-5.2086925507,-249.1883697510
        2.4338650703,        0.3356844783,-0.4017524421,-0.1975943446,-66.4932937622,-5.2086925507,-260.9071350098
        2.4365861416,        0.3356844783,-0.4017524421,-0.1975943446,-87.4741287231,-0.5547618866,-263.3943176270
        2.4393060207,        0.3356844783,-0.4017524421,-0.1975943446,-87.4741287231,-0.5547618866,-279.0193176270
        2.4420170784,        0.2614657283,-0.3377875984,-0.2185904384,-105.7999343872,2.8937244415,-276.1964416504
        2.4448821545,        0.2614657283,-0.3377875984,-0.2185904384,-105.7999343872,2.8937244415,-287.2438049316
        2.4480299950,        0.2614657283,-0.3377875984,-0.2185904384,-117.8543777466,6.3116931915,-287.2438049316
        2.4506151676,        0.2614657283,-0.3377875984,-0.2185904384,-117.8543777466,6.3116931915,-297.2840881348
        2.4531919956,        0.1926180720,-0.2645454109,-0.2347037196,-126.0788650513,9.8822498322,-297.2840881348
        2.4557681084,        0.1926180720,-0.2645454109,-0.2347037196,-126.0788650513,9.8822498322,-308.0415344238
        2.4583859444,        0.1926180720,-0.2645454109,-0.2347037196,-131.9840087891,14.1089344025,-308.0415344238
        2.4610950947,        0.1926180720,-0.2645454109,-0.2420279384,-131.9840087891,14.1089344025,-318.6463928223
        2.4638080597,        0.1589266658,-0.2181586921,-0.2420279384,-136.7142333984,19.2511463165,-318.6463928223
        2.4665160179,        0.1589266658,-0.2181586921,-0.2420279384,-136.7142333984,19.2511463165,-330.3651428223
        2.4692230225,        0.1589266658,-0.2181586921,-0.2420279384,-137.5534667969,24.7137928009,-328.8240051270
        2.4719381332,        0.1589266658,-0.1493110359,-0.1619498134,-137.5534667969,24.7137928009,-336.6365051270
        2.4746460915,        0.1032626033,-0.1493110359,-0.1619498134,-133.3572998047,30.0696277618,-338.6506652832
        2.4773609638,        0.1032626033,-0.1493110359,-0.1619498134,-133.3572998047,30.0696277618,-350.3694152832
        2.4799780846,        0.1032626033,-0.1493110359,-0.1619498134,-125.2854080200,36.2341766357,-348.0195617676
        2.4825580120,        0.0495516658,-0.0204047859,-0.1219107509,-125.2854080200,36.2341766357,-348.0195617676
        2.4851379395,        0.0495516658,-0.0204047859,-0.1219107509,-114.0701980591,41.0864715576,-356.2898254395
        2.4877181053,        0.0495516658,-0.0204047859,-0.1219107509,-114.0701980591,41.0864715576,-356.2898254395
        2.4902989864,        0.0495516658,-0.0204047859,-0.1219107509,-102.2751541138,44.9316864014,-365.3230285645
        2.4928810596,        0.0075594783,0.1260795891,-0.1199576259,-102.2751541138,44.9316864014,-365.3230285645
        2.4955711365,        0.0075594783,0.1260795891,-0.1199576259,-89.0610427856,47.9071502686,-373.9747619629
        2.4982471466,        0.0075594783,0.1260795891,-0.1199576259,-89.0610427856,47.9071502686,-373.9747619629
        2.5008430481,        0.0075594783,0.1260795891,-0.1199576259,-74.1684646606,50.8978729248,-382.1382141113
        2.5034210682,       -0.0632413030,0.1807670891,-0.1365591884,-74.1684646606,50.8978729248,-382.1382141113
        2.5060009956,       -0.0632413030,0.1807670891,-0.1365591884,-60.7865066528,54.3616180420,-389.9659729004
        2.5086159706,       -0.0632413030,0.1807670891,-0.1365591884,-60.7865066528,54.3616180420,-389.9659729004
        2.5111939907,       -0.0632413030,0.1807670891,-0.1365591884,-51.0208816528,57.8406219482,-396.6798400879
        2.5137729645,       -0.1091397405,0.1519584954,-0.1541373134,-51.0208816528,57.8406219482,-396.6798400879
        2.5163481236,       -0.1091397405,0.1519584954,-0.1541373134,-47.1146316528,59.6259002686,-403.2563781738
        2.5189330578,       -0.1091397405,0.1519584954,-0.1541373134,-45.1615066528,59.6259002686,-403.2563781738
        2.5215139389,       -0.1091397405,0.1519584954,-0.1541373134,-45.1615066528,59.6259002686,-409.4209289551
        2.5240900517,       -0.1999600530,0.1197319329,-0.1468130946,-41.2552566528,60.0378875732,-409.4209289551
        2.5266730785,       -0.1999600530,0.1197319329,-0.1468130946,-41.2552566528,60.0378875732,-414.3952941895
        2.5293469429,       -0.1999600530,0.1197319329,-0.1468130946,-36.8149490356,60.1599578857,-414.3952941895
        2.5319190025,       -0.1999600530,0.1197319329,-0.1077505946,-36.8149490356,60.1599578857,-418.3015441895
        2.5344951153,       -0.2883389592,0.1265678704,-0.1077505946,-32.8934402466,60.4803924561,-419.0492248535
        2.5370690823,       -0.2883389592,0.1265678704,-0.1077505946,-32.8934402466,60.4803924561,-419.0492248535
        2.5397491455,       -0.2883389592,0.1265678704,-0.1077505946,-29.9790115356,60.8008270264,-424.0541076660
        2.5423259735,       -0.2883389592,0.1265678704,-0.0979849696,-29.9790115356,60.8008270264,-424.0541076660
        2.5448999405,       -0.4265225530,0.1241264641,-0.0979849696,-28.1326980591,60.5261688232,-429.5014953613
        2.5474779606,       -0.4265225530,0.1241264641,-0.0979849696,-28.1326980591,60.5261688232,-429.5014953613
        2.5501720905,       -0.4265225530,0.1241264641,-0.0979849696,-30.3299636841,61.8231658936,-433.7586975098
        2.5527470112,       -0.5515225530,0.1841850579,-0.0921255946,-30.3299636841,61.8231658936,-433.7586975098
        2.5553209782,       -0.5778897405,0.1841850579,-0.0921255946,-35.5789871216,62.9980926514,-436.7494201660
        2.5580880642,       -0.5778897405,0.1841850579,-0.0921255946,-35.5789871216,62.9980926514,-436.7494201660
        2.5606570244,       -0.5778897405,0.1841850579,-0.0921255946,-43.9713211060,64.2340545654,-438.8551330566
        2.5632319450,       -0.6931241155,0.2374077141,-0.1048209071,-43.9713211060,64.2340545654,-438.8551330566
        2.5658850670,       -0.6931241155,0.2374077141,-0.1048209071,-53.8437576294,65.3784637451,-440.5030822754
        2.5687730312,       -0.6931241155,0.2374077141,-0.1048209071,-53.8437576294,65.3784637451,-440.5030822754
        2.5717511177,       -0.6931241155,0.2374077141,-0.1048209071,-66.3559646606,66.0651092529,-440.4878234863
        2.5744700432,       -0.7990811467,0.2896538079,-0.0696646571,-66.3559646606,66.0651092529,-440.4878234863
        2.5771811008,       -0.7990811467,0.2896538079,-0.0696646571,-80.4856033325,66.7975311279,-438.5652160645
        2.5799100399,       -0.7990811467,0.2896538079,-0.0696646571,-80.4856033325,66.7975311279,-438.5652160645
        2.5826270580,       -0.7990811467,0.4146538079,-0.0345084071,-92.8757400513,67.7588348389,-434.7505187988
        2.5853371620,       -0.9182217717,0.4200249016,-0.0345084071,-92.8757400513,67.7588348389,-434.7505187988
        2.5880849361,       -0.9182217717,0.4200249016,-0.0345084071,-103.0228347778,69.1168670654,-429.9440002441
        2.5906691551,       -0.9182217717,0.4200249016,-0.0345084071,-103.0228347778,69.1168670654,-429.9440002441
        2.5932500362,       -0.9182217717,0.5879936218,0.0397103429,-111.4304275513,72.3059539795,-422.8639221191
        2.5958340168,       -1.0295498371,0.5879936218,0.0397103429,-111.4304275513,72.3059539795,-422.8639221191
        2.5984680653,       -1.0295498371,0.5879936218,0.0397103429,-116.0538406372,77.4634246826,-413.5408020020
        2.6010510921,       -1.0295498371,0.5879936218,0.0397103429,-116.0538406372,77.4634246826,-413.5408020020
        2.6036360264,       -1.0622646809,0.6631889343,0.1085579991,-117.3203201294,83.0481414795,-401.6389465332
        2.6062090397,       -1.0622646809,0.6631889343,0.1085579991,-117.3203201294,83.0481414795,-401.6389465332
        2.6088550091,       -1.0622646809,0.6631889343,0.1085579991,-121.2265701294,85.2606658936,-384.2591857910
        2.6114389896,       -1.0622646809,0.6631889343,0.1085579991,-118.2663650513,85.2606658936,-384.2591857910
        2.6140170097,       -0.9773038030,0.8951225281,0.2296517491,-118.2663650513,85.2606658936,-363.0342102051
        2.6166031361,       -0.9773038030,0.8951225281,0.2296517491,-126.2314529419,83.9789276123,-363.0342102051
        2.6193439960,       -0.9773038030,0.8951225281,0.2296517491,-126.2314529419,83.9789276123,-344.8457336426
        2.6220381260,       -0.9773038030,0.8951225281,0.2296517491,-139.6744384766,80.6982879639,-344.8457336426
        2.6246249676,       -0.5876553655,1.2193412781,0.4928353429,-139.6744384766,80.6982879639,-327.0539855957
        2.6272039413,       -0.5876553655,1.2193412781,0.4928353429,-144.4962158203,71.9397430420,-327.0539855957
        2.6299231052,       -0.5876553655,1.2193412781,0.4928353429,-144.4962158203,71.9397430420,-303.6164855957
        2.6324999332,       -0.5876553655,1.2193412781,0.4928353429,-138.9572753906,58.5272674561,-306.0121154785
        2.6350769997,       -0.1418545842,1.9566459656,0.7418587804,-138.9572753906,58.5272674561,-306.0121154785
        2.6376600266,       -0.1418545842,1.9566459656,0.7418587804,-126.8875808716,44.2450408936,-281.0945129395
        2.6403920650,       -0.1418545842,1.9566459656,0.7418587804,-126.8875808716,44.2450408936,-281.0945129395
        2.6431000233,       -0.1418545842,1.9566459656,0.8829720616,-105.0522537231,31.6870594025,-254.0711822510
        2.6458160877,        0.0725008845,2.4761772156,0.8829720616,-105.0522537231,31.6870594025,-254.0711822510
        2.6485390663,        0.0725008845,2.4761772156,0.8829720616,-73.1461257935,18.7628650665,-222.7906646729
        2.6512460709,        0.0725008845,2.4761772156,0.8829720616,-73.1461257935,18.7628650665,-222.7906646729
        2.6539521217,        0.1135165095,2.4781303406,0.8570931554,-38.3255691528,7.3187732697,-182.4311676025
        2.6566531658,        0.1135165095,2.4781303406,0.8570931554,-38.3255691528,7.3187732697,-182.4311676025
        2.6593749523,        0.1135165095,2.4781303406,0.8570931554,-3.5202713013,-2.2179698944,-132.2602691650
        2.6620819569,        0.1135165095,2.4781303406,0.8570931554,-3.5202713013,-2.2179698944,-132.2602691650
        2.6647839546,        0.1706454158,2.2706108093,0.6432259679,24.6016769409,-9.5574474335,-75.4670562744
        2.6674981117,        0.1706454158,2.2706108093,0.6432259679,24.6016769409,-9.5574474335,-75.4670562744
        2.6702139378,        0.1706454158,2.2706108093,0.6432259679,39.4637374878,-13.9977550507,-18.8264350891
        2.6729190350,        0.1706454158,2.2706108093,0.6432259679,39.4637374878,-13.9977550507,-18.8264350891
        2.6756320000,        0.0803133845,2.0835990906,0.5065072179,39.3874435425,-16.1645030975,32.9618949890
        2.6783361435,        0.0803133845,2.0835990906,0.5065072179,39.3874435425,-16.1645030975,32.9618949890
        2.6809170246,        0.0803133845,2.0835990906,0.5065072179,25.9597091675,-19.2162609100,76.5715179443
        2.6834950447,        0.0803133845,2.0835990906,0.4689095616,25.9597091675,-19.2162609100,76.5715179443
        2.6862850189,        0.0461336970,1.8838920593,0.4689095616,3.7581710815,-25.5333995819,113.4520111084
        2.6891610622,        0.0461336970,1.8838920593,0.4689095616,3.7581710815,-25.5333995819,113.4520111084
        2.6918680668,        0.0461336970,1.8838920593,0.4689095616,-18.8553543091,-35.4668731689,145.6633148193
        2.6945760250,       -0.0466397405,1.1377983093,0.5177376866,-18.8553543091,-35.4668731689,145.6633148193
        2.6972820759,       -0.0466397405,1.1377983093,0.5177376866,-47.3892898560,-48.7572784424,166.0185394287
        2.6999940872,       -0.0466397405,1.1377983093,0.5177376866,-47.3892898560,-48.7572784424,166.0185394287
        2.7027070522,       -0.0466397405,1.1377983093,0.5177376866,-76.3809890747,-51.6869659424,158.5112152100
        2.7054150105,       -0.5988858342,-1.0711860657,-0.1643912196,-76.3809890747,-51.6869659424,158.5112152100
        2.7081401348,       -0.5988858342,-1.0711860657,-0.1643912196,-72.5815505981,-25.4571056366,132.1287689209
        2.7108399868,       -0.5988858342,-1.0711860657,-0.1643912196,-72.5815505981,-25.4571056366,132.1287689209
        2.7135491371,       -0.5988858342,-1.0711860657,-0.7893912196,-98.4146804810,1.8408679962,97.1556243896
        2.7162549496,       -0.7380459905,-3.0824165344,-0.8348013759,-98.4146804810,1.8408679962,97.1556243896
        2.7189249992,       -0.7380459905,-3.0824165344,-0.8348013759,-102.2904129028,19.8920154572,54.4004936218
        2.7215020657,       -0.7380459905,-3.0824165344,-0.8348013759,-102.2904129028,19.8920154572,54.4004936218
        2.7240869999,       -0.7380459905,-1.8324165344,-0.9627310634,-105.4794998169,15.2533435822,44.5585746765
        2.7266571522,       -0.5695889592,-1.8050727844,-0.9627310634,-105.4794998169,15.2533435822,44.5585746765
        2.7292850018,       -0.5695889592,-1.8050727844,-0.9627310634,-182.5211181641,5.5640125275,81.0728607178
        2.7320821285,       -0.5695889592,-1.8050727844,-0.9627310634,-182.5211181641,5.5640125275,81.0728607178
        2.7346489429,       -0.4445889592,1.0137748718,0.0192025304,-266.2613525391,2.2375965118,133.9903411865
        2.7372231483,       -0.5246670842,1.0137748718,0.0192025304,-266.2613525391,2.2375965118,133.9903411865
        2.7399470806,       -0.5246670842,1.0137748718,0.0192025304,-295.5429687500,-17.1868419647,177.7678070068
        2.7425241470,       -0.5246670842,1.0137748718,0.0192025304,-295.5429687500,-17.1868419647,177.7678070068
        2.7451050282,       -0.7043545842,2.3409233093,0.5734017491,-270.3507080078,-51.7174835205,202.5328216553
        2.7476780415,       -0.7043545842,2.3409233093,0.5734017491,-270.3507080078,-51.7174835205,202.5328216553
        2.7506761551,       -0.7043545842,2.3409233093,0.5734017491,-200.6333007812,-71.4470977783,196.9023284912
        2.7533819675,       -0.7043545842,2.3409233093,0.5734017491,-200.6333007812,-71.4470977783,196.9023284912
        2.7560870647,       -0.9016202092,1.3511772156,-0.0970084071,-105.2201004028,-65.4046173096,162.3259124756
        2.7588009834,       -0.9016202092,1.3511772156,-0.0970084071,-105.2201004028,-65.4046173096,162.3259124756
        2.7615079880,       -0.9016202092,1.3511772156,-0.0970084071,-41.0721511841,-45.6139678955,125.6285247803
        2.7642099857,       -0.9016202092,1.3511772156,-0.2244498134,-41.0721511841,-45.6139678955,125.6285247803
        2.7669179440,       -0.1452725530,0.8658256531,-0.2244498134,-25.3250808716,-33.1170196533,106.7991790771
        2.7696321011,       -0.1452725530,0.8658256531,-0.2244498134,-25.3250808716,-33.1170196533,106.7991790771
        2.7723441124,       -0.1452725530,0.8658256531,-0.2244498134,-21.1441726685,-37.4810333252,98.8340911865
        2.7750461102,        0.2297274470,0.8858451843,0.1319954991,-21.1441726685,-37.4810333252,98.8340911865
        2.7777900696,        0.2658602595,0.8858451843,0.1319954991,-13.0112380981,-47.8722686768,92.7763519287
        2.7803709507,        0.2658602595,0.8858451843,0.1319954991,-13.0112380981,-47.8722686768,92.7763519287
        2.7829430103,        0.2658602595,0.8858451843,0.1319954991,-13.0112380981,-52.7550811768,87.6951751709
        2.7855150700,        0.0236727595,0.6221733093,0.2130501866,-1.0941238403,-52.7550811768,87.6951751709
        2.7881309986,        0.0236727595,0.6221733093,0.2130501866,-1.0941238403,-52.7550811768,81.6679534912
        2.7908329964,        0.0236727595,0.6221733093,0.2130501866,11.3417892456,-52.2210235596,81.6679534912
        2.7935459614,        0.0236727595,0.6221733093,0.2130501866,11.3417892456,-48.3147735596,74.3895111084
        2.7962579727,        0.0026766658,0.3990288079,0.1647103429,19.6273117065,-48.5741729736,74.3895111084
        2.7989780903,        0.0026766658,0.3990288079,0.1647103429,19.6273117065,-44.6679229736,66.1497650146
        2.8016870022,        0.0026766658,0.3990288079,0.1647103429,27.3024826050,-42.8673858643,66.1497650146
        2.8044781685,        0.0026766658,0.3990288079,0.1647103429,27.3024826050,-38.9611358643,58.0015678406
        2.8071889877,        0.2482821345,0.3794975579,0.2208626866,39.2958908081,-38.9153594971,58.0015678406
        2.8101620674,        0.2482821345,0.3794975579,0.2208626866,51.0146408081,-39.4188995361,51.5623588562
        2.8128709793,        0.2482821345,0.3794975579,0.2208626866,53.3339767456,-39.4188995361,51.5623588562
        2.8156940937,        0.2922274470,0.3545952141,0.2526009679,65.0527267456,-41.7077178955,46.7558403015
        2.8184089661,        0.2922274470,0.3545952141,0.2526009679,65.2205734253,-41.7077178955,46.7558403015
        2.8211181164,        0.2922274470,0.3545952141,0.2526009679,73.0330734253,-43.5692901611,42.7275199890
        2.8238370419,        0.2922274470,0.3545952141,0.2526009679,72.1633224487,-43.5692901611,42.7275199890
        2.8265430927,        0.0388094783,0.3282280266,0.2491829991,76.0695724487,-43.5387725830,40.6370658875
        2.8292391300,        0.0388094783,0.3282280266,0.2491829991,74.8336105347,-43.5387725830,40.6370658875
        2.8318171501,        0.0388094783,0.3282280266,0.2491829991,74.8336105347,-39.6325225830,38.1498832703
