time, acceleration x, acceleration y, acceleration z, gyro x gyro y, gyro z
        0.0000000000,        0.0123251081,-0.0423640981,-0.0413696095,-5.5322217941,4.4671549797,-21.7126846313
        0.0026969910,        0.0123251081,-0.0423640981,-0.0413696095,-5.8831739426,4.5434489250,-21.9568252563
        0.0053911209,        0.0172079206,-0.0467586294,-0.0345336720,-5.8831739426,4.5434489250,-21.9568252563
        0.0080981255,        0.0172079206,-0.0467586294,-0.0345336720,-6.0357618332,5.1232829094,-22.1246719360
        0.0107891560,        0.0172079206,-0.0467586294,-0.0345336720,-6.0357618332,5.1232829094,-22.1246719360
        0.0134849548,        0.0172079206,-0.0467586294,-0.0301391408,-5.5169630051,4.8181071281,-22.1399307251
        0.0161881447,        0.0050008893,-0.0404109731,-0.0301391408,-5.5169630051,4.8181071281,-22.1399307251
        0.0188820362,        0.0050008893,-0.0404109731,-0.0301391408,-5.5627393723,4.8791422844,-22.0026016235
        0.0215790272,        0.0050008893,-0.0404109731,-0.0301391408,-5.5627393723,4.8791422844,-22.0026016235
        0.0242750645,        0.0050008893,-0.0457820669,-0.0291625783,-5.7611036301,4.6960368156,-22.0483779907
        0.0269341469,        0.0098837018,-0.0457820669,-0.0291625783,-5.7611036301,4.6960368156,-22.0483779907
        0.0295031071,        0.0098837018,-0.0457820669,-0.0291625783,-5.7611036301,4.5892252922,-22.5976943970
        0.0320661068,        0.0098837018,-0.0457820669,-0.0291625783,-5.7611036301,4.5892252922,-22.5976943970
        0.0346369743,        0.0089071393,-0.0438289419,-0.0350219533,-5.7611036301,0.6829752922,-22.2620010376
        0.0372700691,        0.0089071393,-0.0438289419,-0.0350219533,-5.6542921066,4.4213786125,-22.2620010376
        0.0398399830,        0.0089071393,-0.0438289419,-0.0350219533,-5.6542921066,4.4213786125,-22.3382949829
        0.0424060822,        0.0089071393,-0.0438289419,-0.0350219533,-5.7153272629,4.3756022453,-22.3382949829
        0.0449709892,        0.0123251081,-0.0477351919,-0.0345336720,-5.7153272629,4.3756022453,-22.3382949829
        0.0476610661,        0.0123251081,-0.0477351919,-0.0345336720,-5.7153272629,4.7723307610,-22.3382949829
        0.0502331257,        0.0123251081,-0.0477351919,-0.0345336720,-5.7153272629,4.7723307610,-22.3382949829
        0.0529680252,        0.0123251081,-0.0477351919,-0.0345336720,-5.8679151535,4.6655192375,-22.1857070923
        0.0556411743,        0.0113485456,-0.0423640981,-0.0379516408,-5.8679151535,4.6655192375,-22.1857070923
        0.0584580898,        0.0113485456,-0.0423640981,-0.0379516408,-5.8831739426,4.8028483391,-22.2620010376
        0.0611560345,        0.0113485456,-0.0423640981,-0.0379516408,-5.8831739426,4.8028483391,-26.1682510376
        0.0638589859,        0.0113485456,-0.0423640981,-0.0301391408,-5.9136915207,4.8181071281,-22.5366592407
        0.0665400028,        0.0064657331,-0.0452937856,-0.0301391408,-5.9136915207,4.8181071281,-22.5366592407
        0.0691080093,        0.0064657331,-0.0452937856,-0.0301391408,-5.7458448410,4.3145670891,-22.4451065063
        0.0716781616,        0.0064657331,-0.0452937856,-0.0301391408,-5.7458448410,4.3145670891,-22.4451065063
        0.0742490292,        0.0064657331,-0.0452937856,-0.0350219533,-5.7611036301,4.8333659172,-22.5061416626
        0.0769240856,        0.0147665143,-0.0389461294,-0.0350219533,-5.7611036301,4.8333659172,-22.5061416626
        0.0796201229,        0.0147665143,-0.0389461294,-0.0350219533,-5.5627393723,4.6960368156,-22.2925186157
        0.0823190212,        0.0147665143,-0.0389461294,-0.0350219533,-5.5627393723,4.6960368156,-22.2925186157
        0.0848841667,        0.0147665143,-0.0487117544,-0.0369750783,-5.9442090988,4.5739665031,-22.3382949829
        0.0876660347,        0.0030477643,-0.0487117544,-0.0369750783,-5.9442090988,4.5739665031,-22.3382949829
        0.0903270245,        0.0030477643,-0.0487117544,-0.0369750783,-5.9289503098,4.9859538078,-22.2467422485
        0.0936181545,        0.0030477643,-0.0487117544,-0.0369750783,-5.9289503098,4.9859538078,-22.2467422485
        0.0963301659,        0.0133016706,-0.0467586294,-0.0369750783,-6.3561964035,4.9096598625,-22.1857070923
        0.0990321636,        0.0133016706,-0.0467586294,-0.0369750783,-6.3561964035,4.9096598625,-22.1857070923
        0.1017360687,        0.0133016706,-0.0467586294,-0.0369750783,-6.6461133957,4.8791422844,-22.3077774048
        0.1044361591,        0.0133016706,-0.0467586294,-0.0359985158,-6.6461133957,4.8791422844,-22.3077774048
        0.1070909500,        0.0084188581,-0.0448055044,-0.0359985158,-6.4019727707,4.6807780266,-22.2620010376
        0.1096570492,        0.0084188581,-0.0448055044,-0.0359985158,-6.4019727707,4.6807780266,-22.2620010376
        0.1122241020,        0.0084188581,-0.0448055044,-0.0359985158,-6.3867139816,4.2687907219,-22.2620010376
        0.1147880554,        0.0084188581,-0.0448055044,-0.0345336720,-6.3867139816,4.2687907219,-22.2620010376
        0.1175529957,        0.0089071393,-0.0472469106,-0.0345336720,-6.4172315598,4.4671549797,-22.2467422485
        0.1202521324,        0.0089071393,-0.0472469106,-0.0345336720,-6.4172315598,4.4671549797,-22.2467422485
        0.1229510307,        0.0089071393,-0.0472469106,-0.0345336720,-6.0052442551,4.8181071281,-22.3230361938
        0.1256470680,        0.0093954206,-0.0394344106,-0.0408813283,-6.0052442551,4.8181071281,-22.3230361938
        0.1282379627,        0.0093954206,-0.0394344106,-0.0408813283,-6.2188673019,4.4366374016,-22.3840713501
        0.1308040619,        0.0093954206,-0.0394344106,-0.0408813283,-6.2188673019,4.4366374016,-22.3840713501
        0.1333739758,        0.0093954206,-0.0394344106,-0.0408813283,-6.1273145676,4.7723307610,-22.3840713501
        0.1359930038,        0.0108602643,-0.0487117544,-0.0364867970,-6.1273145676,4.7723307610,-22.3840713501
        0.1385660172,        0.0108602643,-0.0487117544,-0.0364867970,-6.1273145676,4.7875895500,-22.3535537720
        0.1411340237,        0.0108602643,-0.0487117544,-0.0364867970,-6.1273145676,4.7875895500,-22.3535537720
        0.1437001228,        0.0108602643,-0.0487117544,-0.0364867970,-6.1273145676,4.6044840813,-22.3993301392
        0.1464331150,        0.0084188581,-0.0457820669,-0.0320922658,-6.6155958176,4.6044840813,-22.3993301392
        0.1490950584,        0.0084188581,-0.0457820669,-0.0320922658,-6.6155958176,4.9096598625,-22.7960586548
        0.1517570019,        0.0084188581,-0.0457820669,-0.0320922658,-6.4935255051,4.9096598625,-22.7960586548
        0.1544151306,        0.0084188581,-0.0457820669,-0.0320922658,-6.4935255051,4.9706950188,-22.5519180298
        0.1570880413,        0.0079305768,-0.0482234731,-0.0355102345,-6.2799024582,4.9706950188,-22.5519180298
        0.1596550941,        0.0079305768,-0.0482234731,-0.0355102345,-6.2799024582,4.9706950188,-22.2925186157
        0.1622209549,        0.0079305768,-0.0482234731,-0.0355102345,-6.6766309738,4.7723307610,-22.2925186157
        0.1647830009,        0.0079305768,-0.0482234731,-0.0355102345,-6.6766309738,4.7723307610,-18.3862686157
        0.1674370766,        0.0123251081,-0.0467586294,-0.0320922658,-6.3867139816,4.5587077141,-22.2620010376
        0.1701359749,        0.0123251081,-0.0467586294,-0.0320922658,-6.3867139816,4.5587077141,-26.1682510376
        0.1728241444,        0.0123251081,-0.0467586294,-0.0320922658,-6.4477491379,4.5892252922,-22.3993301392
        0.1755199432,        0.0123251081,-0.0384578481,-0.0276977345,-6.4477491379,4.5892252922,-22.3993301392
        0.1782259941,        0.0113485456,-0.0384578481,-0.0276977345,-6.6918897629,4.6655192375,-22.4298477173
        0.1810319424,        0.0113485456,-0.0384578481,-0.0276977345,-6.6918897629,4.6655192375,-18.5235977173
        0.1837329865,        0.0113485456,-0.0384578481,-0.0276977345,-6.8749952316,5.3063883781,-22.2009658813
        0.1864330769,        0.0103719831,-0.0487117544,-0.0374633595,-6.8749952316,5.3063883781,-22.2009658813
        0.1891310215,        0.0103719831,-0.0487117544,-0.0374633595,-6.7834424973,5.1538004875,-22.2314834595
        0.1918280125,        0.0103719831,-0.0487117544,-0.0374633595,-6.7834424973,5.1538004875,-26.1377334595
        0.1945259571,        0.0103719831,-0.0487117544,-0.0374633595,-6.7987012863,4.7723307610,-22.3382949829
        0.1972410679,        0.0084188581,-0.0501765981,-0.0394164845,-6.7987012863,4.7723307610,-18.4320449829
        0.1999411583,        0.0084188581,-0.0501765981,-0.0394164845,-6.6155958176,4.9706950188,-22.1246719360
        0.2027189732,        0.0084188581,-0.0501765981,-0.0394164845,-6.6155958176,4.9706950188,-26.0309219360
        0.2054209709,        0.0084188581,-0.0501765981,-0.0325805470,-6.1425733566,5.1232829094,-22.3840713501
        0.2080211639,        0.0089071393,-0.0428523794,-0.0325805470,-6.1425733566,5.1232829094,-22.3840713501
        0.2105870247,        0.0089071393,-0.0428523794,-0.0325805470,-6.8902540207,4.6044840813,-22.1246719360
        0.2131531239,        0.0089071393,-0.0428523794,-0.0325805470,-6.8902540207,4.6044840813,-22.1246719360
        0.2157151699,        0.0089071393,-0.0428523794,-0.0345336720,-6.7376661301,4.2535319328,-21.7279434204
        0.2184240818,        0.0123251081,-0.0379695669,-0.0345336720,-6.7376661301,4.2535319328,-21.7279434204
        0.2211241722,        0.0123251081,-0.0379695669,-0.0345336720,-6.9360303879,4.4518961906,-22.2925186157
        0.2238180637,        0.0123251081,-0.0379695669,-0.0345336720,-6.9360303879,4.4518961906,-22.2925186157
        0.2265281677,        0.0098837018,-0.0443172231,-0.0413696095,-6.4172315598,4.8333659172,-22.3230361938
        0.2292261124,        0.0098837018,-0.0443172231,-0.0413696095,-6.4172315598,4.8333659172,-22.3230361938
        0.2319259644,        0.0098837018,-0.0443172231,-0.0413696095,-6.2493848801,4.6960368156,-22.1857070923
        0.2346279621,        0.0098837018,-0.0443172231,-0.0413696095,-6.2493848801,4.6960368156,-22.1857070923
        0.2372679710,        0.0118368268,-0.0408992544,-0.0359985158,-6.5850782394,4.3756022453,-22.0941543579
        0.2398371696,        0.0118368268,-0.0408992544,-0.0359985158,-6.5850782394,4.3756022453,-22.0941543579
        0.2424051762,        0.0118368268,-0.0408992544,-0.0359985158,-6.7987012863,4.5281901360,-22.1857070923
        0.2450759411,        0.0118368268,-0.0408992544,-0.0359985158,-6.7987012863,4.5281901360,-22.1857070923
        0.2477631569,        0.0098837018,-0.0413875356,-0.0418578908,-6.8292188644,4.7570719719,-22.0026016235
        0.2503261566,        0.0098837018,-0.0413875356,-0.0418578908,-6.8292188644,4.7570719719,-22.0026016235
        0.2528910637,        0.0098837018,-0.0413875356,-0.0418578908,-6.6918897629,4.9401774406,-21.8957901001
        0.2554650307,        0.0098837018,-0.0413875356,-0.0418578908,-6.6918897629,4.9401774406,-21.8957901001
        0.2581410408,        0.0079305768,-0.0452937856,-0.0257446095,-6.6918897629,4.9249186516,-22.1399307251
        0.2607100010,        0.0079305768,-0.0452937856,-0.0257446095,-6.3409376144,4.9249186516,-22.1399307251
        0.2632730007,        0.0079305768,-0.0452937856,-0.0257446095,-6.3409376144,4.9249186516,-22.0636367798
        0.2658500671,        0.0079305768,-0.0452937856,-0.0359985158,-6.0052442551,5.0012125969,-22.0636367798
        0.2685480118,        0.0152547956,-0.0462703481,-0.0359985158,-6.0052442551,5.0012125969,-21.7126846313
        0.2712399960,        0.0152547956,-0.0462703481,-0.0359985158,-5.4254102707,4.6502604485,-21.7126846313
        0.2739360332,        0.0152547956,-0.0462703481,-0.0359985158,-5.4254102707,4.6502604485,-22.0636367798
        0.2766430378,        0.0152547956,-0.0448055044,-0.0286742970,-5.6085157394,4.4976725578,-22.0636367798
        0.2793409824,        0.0084188581,-0.0448055044,-0.0286742970,-5.6085157394,4.4976725578,-21.6821670532
        0.2820351124,        0.0084188581,-0.0448055044,-0.0286742970,-5.8984327316,4.7723307610,-21.6821670532
        0.2847311497,        0.0084188581,-0.0448055044,-0.0286742970,-5.8984327316,4.7723307610,-21.8347549438
        0.2873539925,        0.0137899518,-0.0418758169,-0.0369750783,-5.7153272629,4.8486247063,-21.8347549438
        0.2899270058,        0.0137899518,-0.0418758169,-0.0369750783,-5.7153272629,4.8486247063,-21.8347549438
        0.2924931049,        0.0137899518,-0.0418758169,-0.0369750783,-6.0662794113,4.4061198235,-21.7737197876
        0.2950639725,        0.0137899518,-0.0418758169,-0.0369750783,-6.0662794113,4.4061198235,-21.7737197876
        0.2976620197,       -0.0008584857,-0.0535945669,-0.0408813283,-6.0510206223,4.6197428703,-22.0788955688
        0.3002250195,       -0.0008584857,-0.0535945669,-0.0408813283,-6.0510206223,4.6197428703,-22.0788955688
        0.3027939796,       -0.0008584857,-0.0535945669,-0.0408813283,-6.5698194504,4.5281901360,-21.9873428345
        0.3053619862,       -0.0008584857,-0.0535945669,-0.0408813283,-6.5698194504,4.5281901360,-21.9873428345
        0.3081369400,        0.0010946393,-0.0443172231,-0.0389282033,-6.2951612473,4.2840495110,-22.0788955688
        0.3108210564,        0.0010946393,-0.0443172231,-0.0389282033,-6.2951612473,4.2840495110,-22.0788955688
        0.3134951591,        0.0010946393,-0.0443172231,-0.0389282033,-6.0510206223,4.5434489250,-22.0788955688
        0.3161830902,        0.0010946393,-0.0443172231,-0.0389282033,-6.0510206223,4.5434489250,-22.0788955688
        0.3188660145,        0.0089071393,-0.0389461294,-0.0355102345,-5.7000684738,4.7875895500,-22.1246719360
        0.3215479851,        0.0089071393,-0.0389461294,-0.0355102345,-5.7000684738,4.7875895500,-22.1246719360
        0.3242349625,        0.0089071393,-0.0389461294,-0.0355102345,-5.9747266769,4.3603434563,-22.3230361938
        0.3269171715,        0.0089071393,-0.0389461294,-0.0301391408,-5.9747266769,4.3603434563,-22.3230361938
        0.3295731544,        0.0093954206,-0.0389461294,-0.0301391408,-5.5322217941,4.1772379875,-22.2467422485
        0.3322329521,        0.0093954206,-0.0389461294,-0.0301391408,-5.5322217941,4.1772379875,-22.2467422485
        0.3348801136,        0.0093954206,-0.0389461294,-0.0301391408,-5.9899854660,4.0246500969,-22.1551895142
        0.3375730515,        0.0079305768,-0.0443172231,-0.0267211720,-5.9899854660,4.0246500969,-22.1551895142
        0.3402781487,        0.0079305768,-0.0443172231,-0.0267211720,-6.3256788254,4.3145670891,-22.0331192017
        0.3429770470,        0.0079305768,-0.0443172231,-0.0267211720,-6.3256788254,4.3145670891,-22.0331192017
        0.3456809521,        0.0079305768,-0.0443172231,-0.0267211720,-6.5240430832,4.2840495110,-22.2620010376
        0.3482689857,        0.0167196393,-0.0408992544,-0.0345336720,-6.5240430832,4.2840495110,-22.2620010376
        0.3508360386,        0.0167196393,-0.0408992544,-0.0345336720,-6.2188673019,4.6044840813,-22.4451065063
        0.3534040451,        0.0167196393,-0.0408992544,-0.0345336720,-6.2188673019,4.6044840813,-22.4451065063
        0.3559751511,        0.0167196393,-0.0408992544,-0.0345336720,-6.2188673019,4.4824137688,-22.5824356079
        0.3586730957,        0.0108602643,-0.0404109731,-0.0364867970,-5.9289503098,4.4824137688,-22.5824356079
        0.3613779545,        0.0108602643,-0.0404109731,-0.0364867970,-5.9289503098,4.2077555656,-22.2925186157
        0.3640720844,        0.0108602643,-0.0404109731,-0.0364867970,-5.6237745285,4.2077555656,-22.2925186157
        0.3667809963,        0.0108602643,-0.0404109731,-0.0247680470,-5.6237745285,4.4671549797,-22.5824356079
        0.3694810867,        0.0113485456,-0.0418758169,-0.0247680470,-5.7153272629,4.4671549797,-22.5824356079
        0.3722760677,        0.0113485456,-0.0418758169,-0.0247680470,-1.8090772629,3.8720622063,-22.7350234985
        0.3749811649,        0.0113485456,-0.0418758169,-0.0247680470,-4.9523878098,3.8720622063,-22.7350234985
        0.3777210712,        0.0113485456,-0.0384578481,-0.0384399220,-4.9523878098,4.2993083000,-22.5214004517
        0.3804161549,        0.0103719831,-0.0384578481,-0.0384399220,-5.3185987473,4.2993083000,-22.5214004517
        0.3831200600,        0.0103719831,-0.0384578481,-0.0384399220,-5.3185987473,4.3145670891,-22.6434707642
        0.3858280182,        0.0103719831,-0.0384578481,-0.0384399220,-5.7763624191,4.3145670891,-22.6434707642
        0.3885171413,        0.0098837018,-0.0384578481,-0.0301391408,-5.7763624191,4.3145670891,-22.8113174438
        0.3910830021,        0.0098837018,-0.0384578481,-0.0301391408,-5.8221387863,4.1924967766,-22.8113174438
        0.3936560154,        0.0098837018,-0.0384578481,-0.0301391408,-5.8221387863,4.1924967766,-22.6434707642
        0.3962960243,        0.0098837018,-0.0384578481,-0.0301391408,-5.6237745285,4.3450846672,-22.6434707642
        0.3989560604,        0.0147665143,-0.0423640981,-0.0394164845,-5.6237745285,4.3450846672,-22.4756240845
        0.4016749859,        0.0147665143,-0.0423640981,-0.0394164845,-5.8984327316,4.2993083000,-22.4756240845
        0.4043500423,        0.0147665143,-0.0423640981,-0.0394164845,-1.9921827316,4.1467204094,-22.6739883423
        0.4077341557,        0.0147665143,-0.0457820669,-0.0413696095,-5.5474805832,4.1467204094,-22.6739883423
        0.4102950096,        0.0084188581,-0.0457820669,-0.0413696095,-5.5474805832,4.1467204094,-22.7045059204
        0.4128580093,        0.0084188581,-0.0457820669,-0.0413696095,-5.9594678879,4.4366374016,-22.7045059204
        0.4154219627,        0.0084188581,-0.0457820669,-0.0413696095,-5.9594678879,4.4366374016,-22.5519180298
        0.4180631638,        0.0084188581,-0.0448055044,-0.0330688283,-6.0662794113,4.3908610344,-22.5519180298
        0.4206249714,        0.0074422956,-0.0448055044,-0.0330688283,-6.0662794113,4.3908610344,-22.5519180298
        0.4231860638,        0.0074422956,-0.0448055044,-0.0330688283,-5.7458448410,4.3908610344,-22.6282119751
        0.4257450104,        0.0074422956,-0.0448055044,-0.0330688283,-5.7458448410,4.3908610344,-22.6282119751
        0.4283111095,        0.0113485456,-0.0365047231,-0.0394164845,-5.6695508957,4.1619791985,-22.6892471313
        0.4308750629,        0.0113485456,-0.0365047231,-0.0394164845,-5.6695508957,4.1619791985,-22.6892471313
        0.4334380627,        0.0113485456,-0.0365047231,-0.0394164845,-5.6085157394,3.8110270500,-22.9791641235
        0.4360599518,        0.0113485456,-0.0365047231,-0.0394164845,-5.6085157394,3.8110270500,-22.9791641235
        0.4387340546,        0.0069540143,-0.0404109731,-0.0267211720,-5.6237745285,4.2535319328,-23.0707168579
        0.4413011074,        0.0069540143,-0.0404109731,-0.0267211720,-5.6237745285,4.2535319328,-23.0707168579
        0.4438719749,        0.0069540143,-0.0404109731,-0.0267211720,-5.5932569504,4.5129313469,-22.6282119751
        0.4465041161,        0.0069540143,-0.0404109731,-0.0267211720,-5.5932569504,4.5129313469,-22.6282119751
        0.4490630627,        0.0098837018,-0.0438289419,-0.0369750783,-5.6237745285,4.2230143547,-22.2620010376
        0.4516291618,        0.0098837018,-0.0438289419,-0.0369750783,-5.6237745285,4.2230143547,-22.2620010376
        0.4541909695,        0.0098837018,-0.0438289419,-0.0369750783,-5.5169630051,4.1467204094,-22.5976943970
        0.4568600655,        0.0098837018,-0.0438289419,-0.0369750783,-5.5169630051,4.1467204094,-22.5976943970
        0.4594311714,        0.0093954206,-0.0428523794,-0.0423461720,-5.5169630051,4.3450846672,-22.7197647095
        0.4619920254,        0.0093954206,-0.0428523794,-0.0423461720,-6.2341260910,4.3450846672,-22.7197647095
        0.4645581245,        0.0093954206,-0.0428523794,-0.0423461720,-6.2341260910,4.3450846672,-22.5824356079
        0.4672820568,        0.0093954206,-0.0428523794,-0.0423461720,-5.8068799973,4.5434489250,-22.5824356079
        0.4699800014,        0.0108602643,-0.0408992544,-0.0340453908,-5.8068799973,4.5434489250,-22.4908828735
        0.4726791382,        0.0108602643,-0.0408992544,-0.0340453908,-5.8526563644,4.2840495110,-22.4908828735
        0.4753789902,        0.0108602643,-0.0408992544,-0.0340453908,-5.8526563644,4.2840495110,-22.6282119751
        0.4780089855,        0.0108602643,-0.0408992544,-0.0350219533,-5.4864454269,4.1772379875,-22.6282119751
        0.4805719852,        0.0123251081,-0.0438289419,-0.0350219533,-5.4864454269,4.1772379875,-22.6282119751
        0.4831399918,        0.0123251081,-0.0438289419,-0.0350219533,-5.5779981613,4.2687907219,-22.4908828735
        0.4857051373,        0.0123251081,-0.0438289419,-0.0350219533,-5.5779981613,4.2687907219,-22.4908828735
        0.4884109497,        0.0123251081,-0.0448055044,-0.0394164845,-5.1354932785,4.1009440422,-22.9181289673
        0.4911110401,        0.0064657331,-0.0448055044,-0.0394164845,-5.1354932785,4.1009440422,-22.9181289673
        0.4938130379,        0.0064657331,-0.0448055044,-0.0394164845,-5.2728223801,4.2382731438,-22.8723526001
        0.4964900017,        0.0064657331,-0.0448055044,-0.0394164845,-5.2728223801,4.2382731438,-22.8723526001
        0.4990530014,        0.0079305768,-0.0452937856,-0.0340453908,-5.3033399582,4.2993083000,-22.5976943970
        0.5017249584,        0.0079305768,-0.0452937856,-0.0340453908,-5.3033399582,4.2993083000,-22.5976943970
        0.5042901039,        0.0079305768,-0.0452937856,-0.0340453908,-5.8984327316,4.4213786125,-22.3535537720
        0.5069620609,        0.0079305768,-0.0452937856,-0.0340453908,-5.8984327316,4.4213786125,-22.3535537720
        0.5096621513,        0.0123251081,-0.0413875356,-0.0350219533,-5.8221387863,4.5434489250,-22.5366592407
        0.5123569965,        0.0123251081,-0.0413875356,-0.0350219533,-5.8221387863,4.5434489250,-22.5366592407
        0.5150570869,        0.0123251081,-0.0413875356,-0.0350219533,-5.6390333176,4.4824137688,-22.7045059204
        0.5177690983,        0.0123251081,-0.0413875356,-0.0350219533,-5.6390333176,4.4824137688,-22.7045059204
        0.5204629898,        0.0108602643,-0.0404109731,-0.0291625783,-5.3796339035,4.2535319328,-22.5976943970
        0.5232520103,        0.0108602643,-0.0404109731,-0.0291625783,-5.3796339035,4.2535319328,-22.5976943970
        0.5259549618,        0.0108602643,-0.0404109731,-0.0291625783,-6.1120557785,4.3603434563,-22.5976943970
        0.5285260677,        0.0108602643,-0.0404109731,-0.0296508595,-6.1120557785,4.3603434563,-22.5976943970
        0.5310981274,        0.0064657331,-0.0462703481,-0.0296508595,-5.4254102707,4.4366374016,-22.8570938110
        0.5336649418,        0.0064657331,-0.0462703481,-0.0296508595,-5.4254102707,4.4366374016,-22.8570938110
        0.5363080502,        0.0064657331,-0.0462703481,-0.0296508595,-4.6319532394,4.2535319328,-22.8113174438
        0.5390040874,        0.0064657331,-0.0399226919,-0.0335571095,-4.6319532394,4.2535319328,-22.8113174438
        0.5417020321,        0.0123251081,-0.0399226919,-0.0335571095,-4.6624708176,4.0399088860,-22.5214004517
        0.5443961620,        0.0123251081,-0.0399226919,-0.0335571095,-4.6624708176,4.0399088860,-22.5214004517
        0.5471069813,        0.0123251081,-0.0399226919,-0.0335571095,-4.7540235519,3.8262858391,-22.7502822876
        0.5498061180,        0.0079305768,-0.0506648794,-0.0330688283,-4.7540235519,3.8262858391,-22.7502822876
        0.5525090694,        0.0079305768,-0.0506648794,-0.0330688283,-4.8150587082,3.9483561516,-22.7045059204
        0.5552051067,        0.0079305768,-0.0506648794,-0.0330688283,-4.8150587082,3.9483561516,-22.7045059204
        0.5578150749,        0.0079305768,-0.0506648794,-0.0330688283,-5.2423048019,3.9788737297,-22.8113174438
        0.5603799820,        0.0103719831,-0.0413875356,-0.0482055470,-5.2423048019,3.9788737297,-22.8113174438
        0.5629501343,        0.0103719831,-0.0413875356,-0.0482055470,-5.2423048019,4.0246500969,-23.0859756470
        0.5656220913,        0.0103719831,-0.0413875356,-0.0482055470,-5.4864454269,4.0246500969,-23.0859756470
        0.5683419704,        0.0103719831,-0.0413875356,-0.0482055470,-9.3926954269,4.2687907219,-22.8265762329
        0.5709199905,        0.0084188581,-0.0448055044,-0.0340453908,-5.7305860519,4.2687907219,-22.8265762329
        0.5734829903,        0.0084188581,-0.0448055044,-0.0340453908,-5.7305860519,4.2687907219,-22.7960586548
        0.5762200356,        0.0084188581,-0.0448055044,-0.0340453908,-5.5779981613,4.0093913078,-22.7960586548
        0.5789210796,        0.0084188581,-0.0448055044,-0.0399047658,-5.5779981613,4.0093913078,-22.5366592407
        0.5816161633,        0.0133016706,-0.0467586294,-0.0399047658,-5.4101514816,4.0551676750,-22.5366592407
        0.5843231678,        0.0133016706,-0.0467586294,-0.0399047658,-5.4101514816,4.0551676750,-22.2467422485
        0.5870230198,        0.0133016706,-0.0467586294,-0.0399047658,-5.4864454269,4.1924967766,-22.2467422485
        0.5897221565,        0.0133016706,-0.0467586294,-0.0442992970,-5.4864454269,4.1924967766,-22.5824356079
        0.5924260616,        0.0025594831,-0.0467586294,-0.0442992970,-5.4559278488,4.0093913078,-22.5824356079
        0.5951240063,        0.0025594831,-0.0467586294,-0.0442992970,-5.4559278488,4.0093913078,-22.6892471313
        0.5978300571,        0.0025594831,-0.0467586294,-0.0442992970,-5.8679151535,4.2077555656,-22.6892471313
        0.6005330086,        0.0113485456,-0.0384578481,-0.0384399220,-5.8679151535,4.2077555656,-22.5366592407
        0.6032309532,        0.0113485456,-0.0384578481,-0.0384399220,-5.9899854660,4.5739665031,-22.5366592407
        0.6059451103,        0.0113485456,-0.0384578481,-0.0384399220,-5.9899854660,4.5739665031,-22.4603652954
        0.6085071564,        0.0113485456,-0.0384578481,-0.0384399220,-5.1660108566,4.2382731438,-22.4603652954
        0.6110711098,        0.0167196393,-0.0369930044,-0.0389282033,-5.1660108566,4.2382731438,-22.4603652954
        0.6136410236,        0.0167196393,-0.0369930044,-0.0389282033,-4.9371290207,3.9025797844,-22.7197647095
        0.6162290573,        0.0167196393,-0.0369930044,-0.0389282033,-4.9371290207,3.9025797844,-22.7197647095
        0.6189329624,        0.0167196393,-0.0369930044,-0.0389282033,-4.8455762863,3.6584391594,-22.7197647095
        0.6216311455,        0.0113485456,-0.0428523794,-0.0325805470,-4.8455762863,3.6584391594,-22.7197647095
        0.6243259907,        0.0113485456,-0.0428523794,-0.0325805470,-4.7540235519,3.8415446281,-23.0859756470
        0.6270320415,        0.0113485456,-0.0428523794,-0.0325805470,-4.7540235519,3.8415446281,-23.0859756470
        0.6298360825,        0.0113485456,-0.0472469106,-0.0296508595,-4.3572950363,3.9330973625,-23.1164932251
        0.6325311661,        0.0167196393,-0.0472469106,-0.0296508595,-4.3572950363,3.9330973625,-23.1164932251
        0.6352291107,        0.0167196393,-0.0472469106,-0.0296508595,-4.6472120285,4.0093913078,-22.9181289673
        0.6379361153,        0.0167196393,-0.0472469106,-0.0296508595,-4.6472120285,4.0093913078,-22.9181289673
        0.6406309605,        0.0108602643,-0.0472469106,-0.0369750783,-5.5932569504,4.2077555656,-22.4756240845
        0.6433351040,        0.0108602643,-0.0472469106,-0.0369750783,-5.5932569504,4.2077555656,-22.4756240845
        0.6460809708,        0.0108602643,-0.0472469106,-0.0369750783,-5.7000684738,4.3603434563,-22.5976943970
        0.6487851143,        0.0108602643,-0.0472469106,-0.0369750783,-5.7000684738,4.3603434563,-22.5976943970
        0.6514811516,        0.0133016706,-0.0404109731,-0.0374633595,-5.6695508957,4.2077555656,-22.6587295532
        0.6541769505,        0.0133016706,-0.0404109731,-0.0374633595,-5.6695508957,4.2077555656,-22.6587295532
        0.6568720341,        0.0133016706,-0.0404109731,-0.0374633595,-5.1965284348,3.9636149406,-22.4908828735
        0.6594381332,        0.0133016706,-0.0404109731,-0.0374633595,-5.1965284348,3.9636149406,-22.4908828735
        0.6620039940,        0.0181844831,-0.0345515981,-0.0296508595,-4.7082471848,3.9178385735,-22.5671768188
        0.6645760536,        0.0181844831,-0.0345515981,-0.0296508595,-4.7082471848,3.9178385735,-22.5671768188
        0.6672589779,        0.0181844831,-0.0345515981,-0.0296508595,-4.5709180832,3.9025797844,-22.3993301392
        0.6699600220,        0.0181844831,-0.0345515981,-0.0438110158,-4.5709180832,3.9025797844,-22.3993301392
        0.6726570129,        0.0186727643,-0.0345515981,-0.0438110158,-4.0368604660,3.8720622063,-22.8570938110
        0.6753571033,        0.0186727643,-0.0345515981,-0.0438110158,-4.0368604660,3.8720622063,-22.8570938110
        0.6781079769,        0.0186727643,-0.0345515981,-0.0438110158,-3.3502149582,3.7194743156,-22.7807998657
        0.6808030605,        0.0147665143,-0.0360164419,-0.0359985158,-3.3502149582,3.7194743156,-22.7807998657
        0.6834969521,        0.0147665143,-0.0360164419,-0.0359985158,-3.1365919113,3.3837809563,-22.9944229126
        0.6862070560,        0.0147665143,-0.0360164419,-0.0359985158,-3.1365919113,3.3837809563,-22.9944229126
        0.6888990402,        0.0147665143,-0.0360164419,-0.0359985158,-2.8771924973,3.7805094719,-23.3911514282
        0.6915991306,        0.0084188581,-0.0457820669,-0.0389282033,-2.8771924973,3.7805094719,-23.3911514282
        0.6943981647,        0.0084188581,-0.0457820669,-0.0389282033,-2.8924512863,3.8262858391,-23.1317520142
        0.6971070766,        0.0084188581,-0.0457820669,-0.0389282033,-2.8924512863,3.8262858391,-23.1317520142
        0.6998121738,        0.0084188581,-0.0457820669,-0.0389282033,-3.7622022629,3.8568034172,-22.9944229126
        0.7025060654,        0.0025594831,-0.0462703481,-0.0394164845,-3.7622022629,3.8568034172,-22.9944229126
        0.7052040100,        0.0025594831,-0.0462703481,-0.0394164845,-4.7540235519,3.8720622063,-22.5824356079
        0.7078211308,        0.0025594831,-0.0462703481,-0.0394164845,-4.7540235519,3.8720622063,-22.5824356079
        0.7103850842,        0.0025594831,-0.0462703481,-0.0340453908,-5.1812696457,4.1924967766,-22.6739883423
        0.7129580975,        0.0069540143,-0.0438289419,-0.0340453908,-5.1812696457,4.1924967766,-22.6739883423
        0.7155220509,        0.0069540143,-0.0438289419,-0.0340453908,-4.8913526535,4.5434489250,-22.5976943970
        0.7182600498,        0.0069540143,-0.0438289419,-0.0340453908,-4.8913526535,4.5434489250,-22.5976943970
        0.7209651470,        0.0069540143,-0.0365047231,-0.0408813283,-4.4793653488,4.4366374016,-22.4451065063
        0.7236640453,        0.0093954206,-0.0365047231,-0.0408813283,-4.4793653488,4.4366374016,-22.4451065063
        0.7263691425,        0.0093954206,-0.0365047231,-0.0408813283,-3.9300489426,4.1772379875,-22.7502822876
        0.7290720940,        0.0093954206,-0.0365047231,-0.0408813283,-3.9300489426,4.1772379875,-22.7502822876
        0.7317709923,        0.0089071393,-0.0443172231,-0.0413696095,-3.5180616379,4.2382731438,-22.8876113892
        0.7344770432,        0.0089071393,-0.0443172231,-0.0413696095,-3.5180616379,4.2382731438,-22.8876113892
        0.7371871471,        0.0089071393,-0.0443172231,-0.0413696095,-3.9147901535,4.0551676750,-22.4298477173
        0.7398850918,        0.0089071393,-0.0443172231,-0.0413696095,-3.9147901535,4.0551676750,-22.4298477173
        0.7425880432,        0.0162313581,-0.0594539419,-0.0394164845,-3.9147901535,3.8262858391,-22.4908828735
        0.7452859879,        0.0162313581,-0.0594539419,-0.0394164845,-4.4335889816,3.8262858391,-22.4908828735
        0.7479951382,        0.0162313581,-0.0594539419,-0.0394164845,-8.3398389816,4.3145670891,-22.2162246704
        0.7506959438,        0.0162313581,-0.0594539419,-0.0521117970,-5.8068799973,4.3145670891,-22.2162246704
        0.7533910275,        0.0123251081,-0.0501765981,-0.0521117970,-5.8068799973,4.5892252922,-21.9568252563
        0.7560951710,        0.0123251081,-0.0501765981,-0.0521117970,-6.2036085129,4.5892252922,-21.9568252563
        0.7587661743,        0.0123251081,-0.0501765981,-0.0521117970,-6.2036085129,5.0469889641,-22.1399307251
        0.7613339424,        0.0123251081,-0.0321101919,-0.0662719533,-6.6613721848,5.0469889641,-22.1399307251
        0.7639091015,       -0.0091592669,-0.0321101919,-0.0662719533,-6.6613721848,5.0469889641,-21.8957901001
        0.7665631771,       -0.0091592669,-0.0321101919,-0.0662719533,-6.3409376144,5.2300944328,-21.8957901001
        0.7692601681,       -0.0091592669,-0.0321101919,-0.0662719533,-6.3409376144,5.2300944328,-21.9873428345
        0.7719659805,        0.0040243268,-0.0282039419,-0.0482055470,-6.0510206223,4.6655192375,-21.9873428345
        0.7746660709,        0.0040243268,-0.0282039419,-0.0482055470,-6.0510206223,4.6655192375,-21.9110488892
        0.7773809433,        0.0040243268,-0.0282039419,-0.0482055470,-6.3104200363,4.4518961906,-21.9110488892
        0.7800760269,        0.0040243268,-0.0282039419,-0.0482055470,-6.3104200363,4.4518961906,-22.0178604126
        0.7827701569,        0.0172079206,-0.0496883169,-0.0281860158,-5.7000684738,4.4518961906,-22.0178604126
        0.7854759693,        0.0172079206,-0.0496883169,-0.0281860158,-5.7000684738,4.4518961906,-22.0483779907
        0.7881860733,        0.0172079206,-0.0496883169,-0.0281860158,-5.5017042160,4.1314616203,-22.0483779907
        0.7908899784,        0.0172079206,-0.0496883169,-0.0281860158,-5.5017042160,4.1314616203,-21.6363906860
        0.7935910225,        0.0186727643,-0.0550594106,-0.0399047658,-5.5169630051,3.8110270500,-21.6363906860
        0.7964680195,        0.0186727643,-0.0550594106,-0.0399047658,-5.5169630051,3.8110270500,-21.4838027954
        0.7990360260,        0.0186727643,-0.0550594106,-0.0399047658,-6.3714551926,3.9788737297,-21.4838027954
        0.8015980721,        0.0186727643,-0.0643367544,-0.0350219533,-6.3714551926,3.9788737297,-21.4838027954
        0.8041591644,        0.0128133893,-0.0643367544,-0.0350219533,-7.0581007004,4.4976725578,-21.1023330688
        0.8069419861,        0.0128133893,-0.0643367544,-0.0350219533,-7.0581007004,4.4976725578,-21.1023330688
        0.8095140457,        0.0128133893,-0.0643367544,-0.0350219533,-7.0275831223,4.8944010735,-20.5377578735
        0.8121750355,        0.0098837018,-0.0589656606,-0.0213500783,-7.0275831223,4.8944010735,-20.5377578735
        0.8154940605,        0.0098837018,-0.0589656606,-0.0213500783,-7.1801710129,4.7723307610,-20.2630996704
        0.8182051182,        0.0098837018,-0.0589656606,-0.0213500783,-7.1801710129,4.7723307610,-19.7595596313
        0.8207731247,        0.0098837018,-0.0589656606,-0.0213500783,-7.9278516769,4.5892252922,-19.7595596313
        0.8234419823,        0.0015829206,-0.0648250356,-0.0135375783,-7.9278516769,4.5892252922,-19.7595596313
        0.8260641098,        0.0015829206,-0.0648250356,-0.0135375783,-8.2940626144,4.4976725578,-19.7900772095
        0.8286221027,        0.0015829206,-0.0648250356,-0.0135375783,-8.2940626144,4.4976725578,-19.7900772095
        0.8311841488,        0.0015829206,-0.0648250356,-0.0135375783,-7.3937940598,4.7418131828,-19.8816299438
        0.8337509632,       -0.0057412982,-0.0550594106,-0.0115844533,-7.3937940598,4.7418131828,-19.8816299438
        0.8363311291,       -0.0057412982,-0.0550594106,-0.0115844533,-7.1038770676,5.0012125969,-19.8511123657
        0.8388991356,       -0.0057412982,-0.0550594106,-0.0115844533,-7.1038770676,5.0012125969,-19.8511123657
        0.8414621353,       -0.0057412982,-0.0550594106,-0.0193969533,-6.4324903488,5.3674235344,-20.1410293579
        0.8440251350,        0.0050008893,-0.0247859731,-0.0193969533,-6.4324903488,5.3674235344,-20.1410293579
        0.8465931416,        0.0050008893,-0.0247859731,-0.0193969533,-6.4324903488,5.4589762688,-20.2630996704
        0.8491599560,        0.0050008893,-0.0247859731,-0.0193969533,-6.4324903488,5.4589762688,-20.2630996704
        0.8517220020,        0.0050008893,-0.0247859731,-0.0154907033,-5.2423048019,5.4131999016,-20.5224990845
        0.8542840481,        0.0035360456,-0.0438289419,-0.0154907033,-5.2423048019,5.4131999016,-20.5224990845
        0.8570120335,        0.0035360456,-0.0438289419,-0.0154907033,-4.1436719894,5.0012125969,-20.4156875610
        0.8595781326,        0.0035360456,-0.0438289419,-0.0154907033,-4.1436719894,5.0012125969,-20.4156875610
        0.8621449471,        0.0035360456,-0.0325984731,-0.0135375783,-4.1436719894,5.1080241203,-20.4156875610
        0.8647100925,        0.0050008893,-0.0325984731,-0.0135375783,-3.7774610519,5.1080241203,-20.4156875610
        0.8674600124,        0.0050008893,-0.0325984731,-0.0135375783,-3.7774610519,5.1080241203,-20.5530166626
        0.8701591492,        0.0050008893,-0.0325984731,-0.0135375783,-3.0755567551,5.4589762688,-20.5530166626
        0.8728611469,        0.0142782331,-0.0321101919,-0.0281860158,-3.0755567551,5.4589762688,-20.8429336548
        0.8755650520,        0.0142782331,-0.0321101919,-0.0281860158,-2.0379590988,5.3674235344,-20.8429336548
        0.8783099651,        0.0142782331,-0.0321101919,-0.0281860158,-2.0379590988,5.3674235344,-20.8734512329
        0.8810091019,        0.0142782331,-0.0321101919,-0.0281860158,-2.0227003098,5.7183756828,-20.8734512329
        0.8837060928,        0.0054891706,-0.0404109731,-0.0311157033,-2.0227003098,5.7183756828,-20.9650039673
        0.8865170479,        0.0054891706,-0.0404109731,-0.0311157033,-2.0074415207,5.6420817375,-20.9650039673
        0.8892199993,        0.0054891706,-0.0404109731,-0.0311157033,-2.0074415207,5.6420817375,-20.9802627563
        0.8919169903,        0.0054891706,-0.0404109731,-0.0355102345,-1.8243360519,5.8251872063,-20.9802627563
        0.8946151733,        0.0142782331,-0.0360164419,-0.0355102345,-1.8243360519,5.8251872063,-21.2091445923
        0.8974671364,        0.0142782331,-0.0360164419,-0.0355102345,-1.9769239426,6.0235514641,-21.2091445923
        0.9000279903,        0.0142782331,-0.0360164419,-0.0355102345,-1.9769239426,6.0235514641,-21.2549209595
        0.9025959969,        0.0142782331,-0.0423640981,-0.0369750783,-2.3889112473,5.8862223625,-21.2549209595
        0.9051561356,        0.0045126081,-0.0423640981,-0.0369750783,-2.3889112473,5.8862223625,-21.3312149048
        0.9078130722,        0.0045126081,-0.0423640981,-0.0369750783,-1.7480421066,6.2066569328,-21.3312149048
        0.9103820324,        0.0045126081,-0.0423640981,-0.0369750783,-1.7480421066,6.2371745110,-21.3312149048
        0.9136970043,        0.0006063581,-0.0413875356,-0.0345336720,-2.4041700363,6.2371745110,-21.3312149048
        0.9163379669,        0.0006063581,-0.0413875356,-0.0345336720,-2.4041700363,6.2371745110,-21.2854385376
        0.9189081192,        0.0006063581,-0.0413875356,-0.0345336720,-2.3583936691,6.2829508781,-21.2854385376
        0.9214680195,        0.0006063581,-0.0413875356,-0.0345336720,-2.3583936691,6.2829508781,-21.2854385376
        0.9240360260,        0.0045126081,-0.0550594106,-0.0316039845,-2.7703809738,6.0693278313,-21.2244033813
        0.9266059399,        0.0045126081,-0.0550594106,-0.0316039845,-2.7703809738,6.0693278313,-21.2244033813
        0.9291679859,        0.0045126081,-0.0550594106,-0.0316039845,-3.0450391769,5.8251872063,-21.1633682251
        0.9317281246,        0.0045126081,-0.0550594106,-0.0316039845,-3.0450391769,5.8251872063,-21.1633682251
        0.9342870712,        0.0113485456,-0.0340633169,-0.0403930470,-3.4722852707,6.0082926750,-21.0260391235
        0.9368951321,        0.0113485456,-0.0340633169,-0.0403930470,-3.4722852707,6.0082926750,-21.0260391235
        0.9394600391,        0.0113485456,-0.0340633169,-0.0403930470,-3.5180616379,6.0998454094,-21.1786270142
        0.9420261383,        0.0113485456,-0.0340633169,-0.0403930470,-3.5180616379,6.0998454094,-21.1786270142
        0.9445950985,        0.0059774518,-0.0472469106,-0.0316039845,-2.9077100754,6.0082926750,-21.1481094360
        0.9471621513,        0.0059774518,-0.0472469106,-0.0316039845,-2.9077100754,6.0082926750,-21.1481094360
        0.9498350620,        0.0059774518,-0.0472469106,-0.0316039845,-3.3044385910,6.2219157219,-21.1175918579
        0.9524040222,        0.0059774518,-0.0472469106,-0.0316039845,-3.3044385910,6.2219157219,-21.1175918579
        0.9549670219,        0.0137899518,-0.0399226919,-0.0389282033,-3.3044385910,6.5118327141,-20.9955215454
        0.9575991631,        0.0137899518,-0.0399226919,-0.0389282033,-3.3044385910,6.5118327141,-20.9955215454
        0.9601690769,        0.0137899518,-0.0399226919,-0.0389282033,-3.3044385910,6.4355387688,-20.7971572876
        0.9627320766,        0.0137899518,-0.0399226919,-0.0423461720,-3.1823682785,6.4355387688,-20.7971572876
        0.9653010368,        0.0123251081,-0.0408992544,-0.0423461720,-3.1823682785,6.6186442375,-21.0870742798
        0.9681651592,        0.0123251081,-0.0408992544,-0.0423461720,-3.4265089035,6.6186442375,-21.0870742798
        0.9708650112,        0.0123251081,-0.0408992544,-0.0423461720,-3.4265089035,6.6186442375,-20.9650039673
        0.9735670090,        0.0123251081,-0.0443172231,-0.0316039845,-2.6025342941,6.6033854485,-20.9650039673
        0.9763100147,        0.0118368268,-0.0443172231,-0.0316039845,-2.6025342941,6.6033854485,-20.8581924438
        0.9790110588,        0.0118368268,-0.0443172231,-0.0316039845,-2.8771924973,6.7101969719,-20.8581924438
        0.9817121029,        0.0118368268,-0.0443172231,-0.0316039845,-2.8771924973,6.7101969719,-20.9192276001
        0.9844059944,        0.0098837018,-0.0443172231,-0.0350219533,-2.6330518723,6.8017497063,-20.9192276001
        0.9871170521,        0.0098837018,-0.0443172231,-0.0350219533,-2.6330518723,6.8017497063,-20.7818984985
        0.9898159504,        0.0098837018,-0.0443172231,-0.0350219533,-2.4194288254,6.8170084953,-20.7818984985
        0.9925069809,        0.0098837018,-0.0443172231,-0.0350219533,-2.4194288254,6.8170084953,-20.6903457642
        0.9952111244,        0.0054891706,-0.0560359731,-0.0491821095,-3.3349561691,6.6186442375,-20.6903457642
        0.9979281425,        0.0054891706,-0.0560359731,-0.0491821095,-3.3349561691,6.6186442375,-20.2630996704
        1.0006239414,        0.0054891706,-0.0560359731,-0.0491821095,-4.4793653488,6.3134684563,-20.2630996704
        1.0033249855,        0.0054891706,-0.0560359731,-0.0384399220,-4.4793653488,6.3134684563,-20.7513809204
        1.0060710907,        0.0001180768,-0.0526180044,-0.0384399220,-4.6166944504,6.5118327141,-20.7513809204
        1.0087749958,        0.0001180768,-0.0526180044,-0.0384399220,-4.6166944504,6.5118327141,-20.9039688110
        1.0114729404,        0.0001180768,-0.0526180044,-0.0384399220,-5.5779981613,6.9085612297,-20.9039688110
        1.0142769814,       -0.0032998919,-0.0257625356,-0.0447875783,-5.5779981613,6.9085612297,-20.6903457642
        1.0169990063,       -0.0032998919,-0.0257625356,-0.0447875783,-6.0815382004,7.0764079094,-20.6903457642
        1.0196969509,       -0.0032998919,-0.0257625356,-0.0447875783,-6.0815382004,7.0764079094,-20.6903457642
        1.0225219727,       -0.0032998919,-0.0257625356,-0.0447875783,-6.2493848801,7.0153727531,-20.6903457642
        1.0252280235,       -0.0032998919,-0.0389461294,-0.0452758595,-6.2493848801,7.0153727531,-20.9192276001
        1.0279371738,       -0.0032998919,-0.0389461294,-0.0452758595,-6.3256788254,7.0001139641,-20.9192276001
        1.0306391716,       -0.0032998919,-0.0389461294,-0.0452758595,-6.3256788254,7.0001139641,-21.2701797485
        1.0333361626,       -0.0032998919,-0.0389461294,-0.0413696095,-6.6308546066,7.4121012688,-21.2701797485
        1.0360829830,        0.0006063581,-0.0286922231,-0.0413696095,-6.6308546066,7.4121012688,-21.2701797485
        1.0387780666,        0.0006063581,-0.0286922231,-0.0413696095,-6.4782667160,7.4578776360,-21.2701797485
        1.0414710045,        0.0006063581,-0.0286922231,-0.0413696095,-6.4782667160,7.4578776360,-21.4227676392
        1.0441660881,        0.0006063581,-0.0340633169,-0.0394164845,-6.9512891769,7.5952067375,-21.4227676392
        1.0469050407,        0.0176962018,-0.0340633169,-0.0394164845,-6.9512891769,7.5952067375,-21.4380264282
        1.0496051311,        0.0176962018,-0.0340633169,-0.0394164845,-6.2341260910,7.6257243156,-21.4380264282
        1.0522980690,        0.0176962018,-0.0340633169,-0.0394164845,-6.2341260910,7.6257243156,-21.3464736938
        1.0549900532,        0.0108602643,-0.0379695669,-0.0301391408,-6.6613721848,7.6104655266,-21.3464736938
        1.0576431751,        0.0108602643,-0.0379695669,-0.0301391408,-6.6613721848,7.6104655266,-21.4990615845
        1.0602130890,        0.0108602643,-0.0379695669,-0.0301391408,-7.2106885910,7.7172770500,-21.4990615845
        1.0627739429,        0.0108602643,-0.0379695669,-0.0301391408,-7.2106885910,7.7172770500,-21.4990615845
        1.0653369427,        0.0152547956,-0.0242976919,-0.0272094533,-6.7681837082,7.8851237297,-21.5753555298
        1.0679960251,        0.0152547956,-0.0242976919,-0.0272094533,-6.7681837082,7.8851237297,-21.5753555298
        1.0705630779,        0.0152547956,-0.0242976919,-0.0272094533,-6.1273145676,8.3734054565,-21.3769912720
        1.0731291771,        0.0152547956,-0.0242976919,-0.0272094533,-6.1273145676,8.3734054565,-21.3769912720
        1.0756900311,        0.0133016706,-0.0189265981,-0.0306274220,-5.0286817551,8.4802169800,-21.3159561157
        1.0785670280,        0.0133016706,-0.0189265981,-0.0306274220,-5.0286817551,8.4802169800,-21.3159561157
        1.0812711716,        0.0133016706,-0.0189265981,-0.0306274220,-4.5098829269,8.2208175659,-21.7584609985
        1.0839660168,        0.0133016706,-0.0189265981,-0.0359985158,-4.5098829269,8.2208175659,-21.7584609985
        1.0867049694,        0.0108602643,-0.0228328481,-0.0359985158,-4.5709180832,8.0834884644,-21.7889785767
        1.0894010067,        0.0108602643,-0.0228328481,-0.0359985158,-4.5709180832,8.0834884644,-21.7889785767
        1.0920929909,        0.0108602643,-0.0228328481,-0.0359985158,-3.4265089035,8.2208175659,-21.8194961548
        1.0947890282,        0.0108602643,-0.0233211294,-0.0442992970,-3.4265089035,8.2208175659,-21.8194961548
        1.0975370407,        0.0211141706,-0.0233211294,-0.0442992970,-2.9229688644,8.4496994019,-22.1551895142
        1.1002359390,        0.0211141706,-0.0233211294,-0.0442992970,-2.9229688644,8.4496994019,-22.1551895142
        1.1029381752,        0.0211141706,-0.0233211294,-0.0442992970,-2.6940870285,8.2513351440,-21.8500137329
        1.1056351662,        0.0001180768,-0.0223445669,-0.0565063283,-2.6940870285,8.2513351440,-21.8500137329
        1.1083421707,        0.0001180768,-0.0223445669,-0.0565063283,-2.1295118332,8.4191818237,-21.3159561157
        1.1110410690,        0.0001180768,-0.0223445669,-0.0565063283,-2.1295118332,8.4191818237,-21.3159561157
        1.1137340069,        0.0001180768,-0.0223445669,-0.0565063283,-1.9311475754,8.8159103394,-21.3159561157
        1.1164431572,        0.0133016706,-0.0252742544,-0.0550414845,-1.9311475754,8.8159103394,-21.3159561157
        1.1191401482,        0.0133016706,-0.0252742544,-0.0550414845,-2.5414991379,9.0600509644,-21.6211318970
        1.1218390465,        0.0133016706,-0.0252742544,-0.0550414845,-2.5414991379,9.0600509644,-21.6211318970
        1.1245391369,        0.0133016706,-0.0252742544,-0.0462524220,-3.1518507004,8.8464279175,-21.6821670532
        1.1272439957,        0.0089071393,-0.0369930044,-0.0462524220,-3.1518507004,8.8464279175,-21.6821670532
        1.1299419403,        0.0089071393,-0.0369930044,-0.0462524220,-2.3126173019,8.8159103394,-21.4380264282
        1.1326420307,        0.0089071393,-0.0369930044,-0.0462524220,-2.3126173019,8.8159103394,-21.4380264282
        1.1353380680,        0.0040243268,-0.0413875356,-0.0442992970,-1.5039014816,9.2584152222,-21.0260391235
        1.1380381584,        0.0040243268,-0.0413875356,-0.0442992970,-1.5039014816,9.2584152222,-21.0260391235
        1.1407310963,        0.0040243268,-0.0413875356,-0.0442992970,-1.9769239426,9.2889328003,-20.9039688110
        1.1434240341,        0.0040243268,-0.0413875356,-0.0442992970,-1.9769239426,9.2889328003,-20.9039688110
        1.1462399960,        0.0123251081,-0.0262508169,-0.0560180470,-2.0379590988,9.4720382690,-20.6903457642
        1.1489391327,        0.0123251081,-0.0262508169,-0.0560180470,-2.0379590988,9.4720382690,-20.6903457642
        1.1516370773,        0.0123251081,-0.0262508169,-0.0560180470,-1.3665723801,9.6551437378,-20.4156875610
        1.1543309689,        0.0123251081,-0.0262508169,-0.0560180470,-1.3665723801,9.6551437378,-20.4156875610
        1.1569759846,        0.0030477643,-0.0306453481,-0.0447875783,-0.3594923019,9.8535079956,-19.8816299438
        1.1595370770,        0.0030477643,-0.0306453481,-0.0447875783,-0.3594923019,9.8535079956,-19.8816299438
        1.1621019840,        0.0030477643,-0.0306453481,-0.0447875783,1.0290575027,9.8382492065,-19.6527481079
        1.1646649837,        0.0030477643,-0.0306453481,-0.0413696095,1.0290575027,9.8382492065,-19.6527481079
        1.1672990322,        0.0054891706,-0.0496883169,-0.0413696095,0.9985399246,9.8382492065,-19.1339492798
        1.1698610783,        0.0054891706,-0.0496883169,-0.0413696095,0.9985399246,9.8382492065,-19.1339492798
        1.1724159718,        0.0054891706,-0.0496883169,-0.0413696095,0.9985399246,9.7619552612,-18.1879043579
        1.1749761105,        0.0054891706,-0.0496883169,-0.0599242970,0.5407762527,9.7619552612,-18.1879043579
        1.1775481701,        0.0069540143,-0.0653133169,-0.0599242970,0.5407762527,9.7619552612,-17.1503067017
        1.1801161766,        0.0069540143,-0.0653133169,-0.0599242970,-0.6036329269,10.3112716675,-17.1503067017
        1.1826729774,        0.0069540143,-0.0653133169,-0.0599242970,-0.6036329269,10.3112716675,-17.1503067017
        1.1852350235,        0.0069540143,-0.0653133169,-0.0609008595,-2.0989942551,10.3417892456,-15.5786514282
        1.1878449917,        0.0069540143,-0.0799617544,-0.0609008595,-2.0989942551,10.3417892456,-15.5786514282
        1.1904070377,        0.0069540143,-0.0799617544,-0.0609008595,-3.1518507004,10.1892013550,-14.4189834595
        1.1929690838,        0.0069540143,-0.0799617544,-0.0609008595,-3.1518507004,10.1892013550,-14.4189834595
        1.1955280304,        0.0069540143,-0.0936336294,-0.0613891408,-3.4722852707,10.3570480347,-13.1830215454
        1.1980919838,        0.0045126081,-0.0936336294,-0.0613891408,-3.4722852707,10.3570480347,-13.1830215454
        1.2006540298,        0.0045126081,-0.0936336294,-0.0613891408,-3.8995313644,10.3723068237,-11.7639541626
        1.2032151222,        0.0045126081,-0.0936336294,-0.0613891408,-3.8995313644,10.3723068237,-11.7639541626
        1.2060251236,       -0.0052530169,-0.0697078481,-0.0667602345,-4.8760938644,10.4791183472,-10.2991104126
        1.2087221146,       -0.0052530169,-0.0697078481,-0.0667602345,-4.8760938644,10.4791183472,-10.2991104126
        1.2113900185,       -0.0052530169,-0.0697078481,-0.0667602345,-4.9066114426,10.3723068237,-9.4141006470
        1.2139570713,       -0.0052530169,-0.0697078481,-0.0667602345,-4.9066114426,10.3723068237,-9.4141006470
        1.2172751427,       -0.0155069232,-0.0496883169,-0.0584594533,-4.0978956223,10.6164474487,-8.5138320923
        1.2198450565,       -0.0155069232,-0.0496883169,-0.0584594533,-4.0978956223,10.6164474487,-8.5138320923
        1.2224149704,       -0.0155069232,-0.0496883169,-0.0584594533,-4.8150587082,10.8300704956,-7.3694229126
        1.2249801159,       -0.0155069232,-0.0496883169,-0.0584594533,-4.8150587082,10.8300704956,-7.3694229126
        1.2275590897,       -0.0116006732,-0.0316219106,-0.0555297658,-5.3338575363,11.1199874878,-6.7438125610
        1.2301211357,       -0.0116006732,-0.0316219106,-0.0555297658,-5.3338575363,11.1199874878,-6.7438125610
        1.2326850891,       -0.0116006732,-0.0316219106,-0.0555297658,-4.2962598801,11.0742111206,-6.3165664673
        1.2352590561,       -0.0116006732,-0.0316219106,-0.0555297658,-4.2962598801,11.0742111206,-6.3165664673
        1.2378649712,       -0.0018350482,-0.0365047231,-0.0526000783,-4.2962598801,10.9826583862,-5.6451797485
        1.2404301167,       -0.0018350482,-0.0365047231,-0.0526000783,-3.3349561691,10.9826583862,-5.6451797485
        1.2429971695,       -0.0018350482,-0.0365047231,-0.0526000783,-3.3349561691,10.9826583862,-4.8364639282
        1.2455620766,       -0.0018350482,-0.0365047231,-0.0408813283,-2.1142530441,11.2115402222,-4.8364639282
        1.2481441498,        0.0020712018,-0.0418758169,-0.0408813283,-2.1142530441,11.2115402222,-4.1345596313
        1.2507140636,        0.0020712018,-0.0418758169,-0.0408813283,-1.7175245285,11.4861984253,-4.1345596313
        1.2532880306,        0.0020712018,-0.0418758169,-0.0408813283,-1.7175245285,11.4861984253,-4.1345596313
        1.2558519840,        0.0020712018,-0.0418758169,-0.0428344533,-1.1682081223,11.4556808472,-3.3411026001
        1.2584180832,        0.0001180768,-0.0457820669,-0.0428344533,-1.1682081223,11.4556808472,-3.3411026001
        1.2609910965,        0.0001180768,-0.0457820669,-0.0428344533,-0.7104444504,11.8066329956,-2.0441055298
        1.2635691166,        0.0001180768,-0.0457820669,-0.0428344533,-0.7104444504,11.8066329956,-2.0441055298
        1.2662529945,        0.0001180768,-0.0516414419,-0.0540649220,-0.7257032394,12.0355148315,-0.2588272095
        1.2688281536,        0.0006063581,-0.0516414419,-0.0540649220,-0.7257032394,12.0355148315,-0.2588272095
        1.2715070248,        0.0006063581,-0.0516414419,-0.0540649220,-0.6951856613,12.1881027222,1.4959335327
        1.2740759850,        0.0006063581,-0.0516414419,-0.0540649220,-0.6951856613,12.1881027222,1.4959335327
        1.2768290043,       -0.0076944232,-0.0560359731,-0.0633422658,-0.9545850754,12.5543136597,3.4643173218
        1.2795341015,       -0.0076944232,-0.0560359731,-0.0633422658,-0.9545850754,12.5543136597,3.4643173218
        1.2822320461,       -0.0076944232,-0.0560359731,-0.0633422658,-0.5578565598,12.7984542847,5.4937362671
        1.2849371433,       -0.0076944232,-0.0560359731,-0.0633422658,-0.5578565598,12.7984542847,5.4937362671
        1.2876369953,       -0.0150186419,-0.0721492544,-0.0740844533,-0.7104444504,12.4475021362,8.1029891968
        1.2903411388,       -0.0150186419,-0.0721492544,-0.0740844533,-0.7104444504,12.4475021362,8.1029891968
        1.2930409908,       -0.0150186419,-0.0721492544,-0.0740844533,-1.5191602707,11.4556808472,10.8648300171
        1.2957420349,       -0.0150186419,-0.0721492544,-0.0740844533,-1.5191602707,11.4556808472,10.8648300171
        1.2984480858,       -0.0194131732,-0.1366023719,-0.0599242970,-2.7398633957,11.1810226440,12.8332138062
        1.3011450768,       -0.0194131732,-0.1366023719,-0.0599242970,-2.7398633957,11.1810226440,12.8332138062
        1.3038439751,       -0.0194131732,-0.1366023719,-0.0599242970,-2.4041700363,11.7455978394,15.0304794312
        1.3065371513,       -0.0194131732,-0.1209773794,-0.0535766408,-2.4041700363,11.7455978394,15.0304794312
        1.3091039658,       -0.0355264544,-0.1209773794,-0.0535766408,-3.1213331223,11.8829269409,18.1737899780
        1.3116769791,       -0.0355264544,-0.1209773794,-0.0535766408,-3.1213331223,11.8829269409,18.1737899780
        1.3142471313,       -0.0355264544,-0.1209773794,-0.0535766408,-5.0134229660,11.7761154175,22.1105575562
        1.3169419765,       -0.0355264544,-0.0877742544,-0.0604125783,-5.0134229660,11.7761154175,22.1105575562
        1.3195149899,       -0.0340616107,-0.0877742544,-0.0604125783,-8.9196729660,11.5930099487,25.1775741577
        1.3220789433,       -0.0340616107,-0.0877742544,-0.0604125783,-6.2951612473,11.5930099487,25.1775741577
        1.3246419430,       -0.0340616107,-0.0877742544,-0.0604125783,-6.2951612473,11.5930099487,27.5426864624
        1.3273210526,       -0.0408975482,-0.0965633169,-0.0574828908,-5.2117872238,10.8453292847,27.5426864624
        1.3298859596,       -0.0408975482,-0.0965633169,-0.0574828908,-5.2117872238,10.8453292847,29.5721054077
        1.3325150013,       -0.0408975482,-0.0965633169,-0.0574828908,-5.1049757004,11.0742111206,29.5721054077
        1.3351991177,       -0.0408975482,-0.0965633169,-0.0574828908,-5.1049757004,11.0742111206,31.9219589233
        1.3378331661,       -0.0599405169,-0.0716609731,-0.0359985158,-4.3725538254,11.3488693237,31.9219589233
        1.3403990269,       -0.0599405169,-0.0716609731,-0.0359985158,-4.3725538254,11.3488693237,31.9219589233
        1.3429601192,       -0.0599405169,-0.0716609731,-0.0359985158,-3.1365919113,12.0202560425,34.8516464233
        1.3455209732,       -0.0599405169,-0.0716609731,-0.0359985158,-3.1365919113,12.0202560425,34.8516464233
        1.3480961323,       -0.0594522357,-0.0506648794,-0.0486938283,-1.8090772629,11.8524093628,37.8271102905
        1.3506641388,       -0.0594522357,-0.0506648794,-0.0486938283,-1.8090772629,11.8524093628,37.8271102905
        1.3532290459,       -0.0594522357,-0.0506648794,-0.0486938283,0.0372362137,11.9592208862,40.4821395874
        1.3558340073,       -0.0594522357,-0.0506648794,-0.0486938283,0.0372362137,11.9592208862,40.4821395874
        1.3584001064,       -0.0643350482,-0.0462703481,-0.0452758595,1.7919969559,12.7374191284,43.1524276733
        1.3609700203,       -0.0643350482,-0.0462703481,-0.0452758595,1.7919969559,12.7374191284,43.1524276733
        1.3635361195,       -0.0643350482,-0.0462703481,-0.0452758595,3.5314989090,13.0578536987,46.2194442749
        1.3661639690,       -0.0643350482,-0.0462703481,-0.0452758595,3.5314989090,13.0578536987,46.2194442749
        1.3687410355,       -0.0701944232,-0.0721492544,-0.0413696095,5.2252244949,13.7292404175,49.4390487671
        1.3713190556,       -0.0701944232,-0.0721492544,-0.0413696095,5.2252244949,13.7292404175,49.4390487671
        1.3738970757,       -0.0701944232,-0.0721492544,-0.0413696095,5.2252244949,14.4158859253,52.3382186890
        1.3766140938,       -0.0701944232,-0.0721492544,-0.0413696095,5.9881639481,14.4158859253,52.3382186890
        1.3791940212,       -0.0887491107,-0.1087703481,-0.0311157033,5.9881639481,14.4158859253,55.3899765015
        1.3817729950,       -0.0887491107,-0.1087703481,-0.0311157033,5.7287645340,14.4921798706,55.3899765015
        1.3843469620,       -0.0887491107,-0.1087703481,-0.0311157033,5.7287645340,14.4921798706,58.4569931030
        1.3870120049,       -0.0887491107,-0.1087703481,-0.0203735158,5.0878953934,13.1188888550,58.4569931030
        1.3895890713,       -0.1029092669,-0.0990047231,-0.0203735158,5.0878953934,13.1188888550,62.3632431030
        1.3921630383,       -0.1029092669,-0.0990047231,-0.0203735158,4.3707323074,11.1810226440,61.8139266968
        1.3947360516,       -0.1029092669,-0.0990047231,-0.0203735158,4.3707323074,11.1810226440,61.8139266968
        1.3975019455,       -0.1029092669,-0.0443172231,0.0103882030,4.6453905106,9.3347091675,66.1626815796
        1.4001910686,       -0.1761514544,-0.0443172231,0.0103882030,4.6453905106,9.3347091675,66.1626815796
        1.4028780460,       -0.1761514544,-0.0443172231,0.0103882030,7.0867967606,7.2900309563,69.4128036499
        1.4055631161,       -0.1761514544,-0.0443172231,0.0103882030,7.0867967606,7.2900309563,69.4128036499
        1.4082951546,       -0.3177530169,-0.0950984731,-0.0189086720,9.2688035965,6.7254557610,70.8166122437
        1.4110059738,       -0.3177530169,-0.0950984731,-0.0189086720,9.2688035965,6.7254557610,70.8166122437
        1.4135799408,       -0.3177530169,-0.0950984731,-0.0189086720,12.2595262527,8.6480636597,71.7016220093
        1.4163050652,       -0.3177530169,-0.0950984731,-0.0189086720,12.2595262527,8.6480636597,71.7016220093
        1.4189829826,       -0.3519327044,-0.1146297231,-0.0833617970,12.7172899246,10.8453292847,75.0585556030
        1.4216489792,       -0.3519327044,-0.1146297231,-0.0833617970,12.7172899246,10.8453292847,75.0585556030
        1.4243230820,       -0.3519327044,-0.1146297231,-0.0833617970,9.9554491043,11.3793869019,77.1337509155
        1.4279000759,       -0.3519327044,-0.1312312782,0.0069702342,9.9554491043,11.3793869019,76.9506454468
        1.4304759502,       -0.2791787982,-0.1312312782,0.0069702342,5.6372117996,12.0202560425,76.9506454468
        1.4330389500,       -0.2791787982,-0.1312312782,0.0069702342,5.6372117996,12.0202560425,76.9506454468
        1.4356019497,       -0.2791787982,-0.1312312782,0.0069702342,0.6475877762,12.5543136597,76.2945175171
        1.4382710457,       -0.1502725482,-0.0990047231,0.0538452342,0.6475877762,12.5543136597,76.2945175171
        1.4408321381,       -0.1502725482,-0.0990047231,0.0538452342,-4.8760938644,12.3406906128,74.1277694702
        1.4434020519,       -0.1502725482,-0.0990047231,0.0538452342,-4.8760938644,12.3406906128,74.1277694702
        1.4459681511,       -0.1502725482,-0.0990047231,0.0538452342,-8.8433790207,10.7385177612,71.6100692749
        1.4485411644,       -0.0623819232,0.0299015269,0.0631225780,-8.8433790207,10.7385177612,71.6100692749
        1.4511129856,       -0.0623819232,0.0299015269,0.0631225780,-9.7283887863,9.0447921753,67.9327011108
        1.4536800385,       -0.0623819232,0.0299015269,0.0631225780,-9.7283887863,9.0447921753,67.9327011108
        1.4562959671,       -0.0623819232,0.0299015269,0.0631225780,-7.0886182785,8.2665939331,62.1496200562
        1.4588701725,       -0.0218545794,-0.0911922231,0.0343139842,-7.0886182785,8.2665939331,62.1496200562
        1.4615459442,       -0.0218545794,-0.0911922231,0.0343139842,-3.0755567551,6.7559733391,53.5284042358
        1.4641151428,       -0.0218545794,-0.0911922231,0.0343139842,-3.0755567551,6.7559733391,53.5284042358
        1.4667179585,       -0.0218545794,-0.0911922231,0.0343139842,-3.1060743332,5.3063883781,44.1595077515
        1.4692890644,        0.0455282331,-0.3665828407,-0.0296508595,-3.1060743332,5.3063883781,44.1595077515
        1.4718601704,        0.0455282331,-0.3665828407,-0.0296508595,-3.1060743332,4.5434489250,34.4244003296
        1.4744281769,        0.0455282331,-0.3665828407,-0.0296508595,-7.5158643723,4.5434489250,34.4244003296
        1.4771831036,        0.0455282331,-0.3665828407,-0.0296508595,-7.5158643723,4.5434489250,26.3830184937
        1.4797651768,        0.1251180768,-0.4041804969,-0.0701782033,-15.6030225754,3.9636149406,26.3830184937
        1.4823391438,        0.1251180768,-0.4041804969,-0.0701782033,-15.6030225754,3.9636149406,18.5857772827
        1.4849190712,        0.1251180768,-0.4041804969,-0.0701782033,-24.2547569275,1.5527262688,18.5857772827
        1.4876010418,        0.1251180768,-0.4041804969,-0.0701782033,-24.2547569275,1.5527262688,9.5067977905
        1.4901731014,        0.1842001081,-0.4227351844,-0.0237914845,-34.9664268494,-2.4603352547,9.5067977905
        1.4927480221,        0.1842001081,-0.4227351844,-0.0237914845,-34.9664268494,-2.4603352547,9.5067977905
        1.4953181744,        0.1842001081,-0.4227351844,-0.0237914845,-45.6933555603,-5.6951985359,-1.9220352173
        1.4979851246,        0.1842001081,-0.4227351844,-0.0189086720,-45.6933555603,-5.6951985359,-1.9220352173
        1.5005631447,        0.1920126081,-0.4715633094,-0.0189086720,-52.9260215759,-6.8548665047,-13.5492324829
        1.5031299591,        0.1920126081,-0.4715633094,-0.0189086720,-52.9260215759,-6.8548665047,-13.5492324829
        1.5057010651,        0.1920126081,-0.4715633094,-0.0189086720,-57.7477989197,-7.5262532234,-25.0085830688
        1.5082740784,        0.1920126081,-0.4715633094,-0.0208617970,-57.7477989197,-7.5262532234,-25.0085830688
        1.5108411312,        0.2198446393,-0.3778133094,-0.0208617970,-60.4638633728,-8.5791091919,-36.3458633423
        1.5134179592,        0.2198446393,-0.3778133094,-0.0208617970,-60.4638633728,-8.5791091919,-36.3458633423
        1.5160400867,        0.2198446393,-0.3778133094,-0.0208617970,-60.8911094666,-9.2504959106,-47.5152969360
        1.5186171532,        0.2198446393,-0.3275203407,-0.0330688283,-60.8911094666,-9.2504959106,-47.5152969360
        1.5211930275,        0.2208212018,-0.3275203407,-0.0330688283,-59.5178184509,-9.4183425903,-58.7762832642
        1.5238699913,        0.2208212018,-0.3275203407,-0.0330688283,-59.5178184509,-9.4183425903,-58.7762832642
        1.5265879631,        0.2208212018,-0.3275203407,-0.0330688283,-57.4578819275,-9.1284255981,-70.1288223267
        1.5291540623,        0.2208212018,-0.3128719032,-0.0306274220,-57.4578819275,-9.1284255981,-70.1288223267
        1.5317211151,        0.1978719831,-0.3128719032,-0.0306274220,-57.4578819275,-7.4041829109,-81.2219619751
        1.5342991352,        0.1978719831,-0.3128719032,-0.0306274220,-54.6807823181,-7.4041829109,-81.2219619751
        1.5369319916,        0.1978719831,-0.3128719032,-0.0306274220,-54.6807823181,-3.4979329109,-91.4300918579
        1.5395050049,        0.1729696393,-0.2777156532,-0.0438110158,-52.1478233337,-6.1224446297,-91.4300918579
        1.5423021317,        0.1729696393,-0.2777156532,-0.0438110158,-52.1478233337,-6.1224446297,-100.9210586548
        1.5448939800,        0.1729696393,-0.2777156532,-0.0438110158,-49.1571006775,-5.6036458015,-100.9210586548
        1.5477859974,        0.1729696393,-0.2777156532,-0.0438110158,-49.1571006775,-5.6036458015,-109.8627090454
        1.5504961014,        0.1378133893,-0.2274226844,-0.0374633595,-45.3881797791,-4.7644124031,-109.8627090454
        1.5532090664,        0.1378133893,-0.2274226844,-0.0374633595,-45.3881797791,-4.7644124031,-118.1482315063
        1.5559339523,        0.1378133893,-0.2274226844,-0.0374633595,-39.6050987244,-3.5131917000,-118.1482315063
        1.5586390495,        0.1378133893,-0.2274226844,-0.0325805470,-39.6050987244,0.3930583000,-125.8996963501
        1.5613501072,        0.1124227643,-0.2015437782,-0.0325805470,-33.7762413025,-2.3993000984,-125.8996963501
        1.5640530586,        0.1124227643,-0.2015437782,-0.0325805470,-33.7762413025,-2.3993000984,-133.4680480957
        1.5667731762,        0.1124227643,-0.2015437782,-0.0325805470,-27.7642784119,-2.3993000984,-133.4680480957
        1.5694861412,        0.1124227643,-0.1893367469,-0.0110961720,-27.7642784119,-2.3993000984,-140.9906311035
        1.5721940994,        0.0592001081,-0.1893367469,-0.0110961720,-20.8215293884,-1.7584309578,-140.9906311035
        1.5748960972,        0.0592001081,-0.1893367469,-0.0110961720,-20.8215293884,-1.7584309578,-146.9568176270
        1.5775401592,        0.0592001081,-0.1893367469,-0.0110961720,-15.2825880051,-2.1246418953,-146.9568176270
        1.5801100731,        0.0069540143,-0.1707820594,-0.0403930470,-15.2825880051,-2.1246418953,-154.7693176270
        1.5826849937,        0.0069540143,-0.1707820594,-0.0403930470,-10.5828809738,-2.3687825203,-152.4499816895
        1.5852501392,        0.0069540143,-0.1707820594,-0.0403930470,-10.5828809738,-2.3687825203,-152.4499816895
        1.5879869461,        0.0069540143,-0.1707820594,-0.0403930470,-6.5393018723,-1.8042073250,-157.2259826660
        1.5905661583,       -0.0262491107,-0.1395320594,-0.0345336720,-6.5393018723,-1.8042073250,-157.2259826660
        1.5931401253,       -0.0262491107,-0.1395320594,-0.0345336720,-3.9758253098,-1.9720540047,-161.4526672363
        1.5957059860,       -0.0262491107,-0.1395320594,-0.0345336720,-3.9758253098,-1.9720540047,-161.4526672363
        1.5983710289,       -0.0262491107,-0.1395320594,-0.0345336720,-2.9229688644,-1.3159260750,-165.1910705566
        1.6009421349,       -0.0560342669,-0.0838680044,-0.0526000783,-2.9229688644,-1.3159260750,-165.1910705566
        1.6035151482,       -0.0560342669,-0.0838680044,-0.0526000783,-2.3126173019,-0.4461750984,-168.2886047363
        1.6062359810,       -0.0560342669,-0.0838680044,-0.0526000783,-2.3126173019,-0.4461750984,-168.2886047363
        1.6089360714,       -0.0560342669,-0.0838680044,-0.0526000783,-3.1976270676,0.0573649406,-169.9060363770
        1.6116471291,       -0.0843545794,-0.0335750356,-0.0648071095,-3.1976270676,0.0573649406,-169.9060363770
        1.6143569946,       -0.0843545794,-0.0335750356,-0.0648071095,-5.3491163254,0.7440104485,-171.0962219238
        1.6171109676,       -0.0843545794,-0.0335750356,-0.0648071095,-5.3491163254,0.7440104485,-171.0962219238
        1.6197781563,       -0.0843545794,0.0240421519,-0.0814086720,-8.3245801926,2.1478190422,-171.9507141113
        1.6226389408,       -0.1180459857,0.0240421519,-0.0814086720,-8.3245801926,2.1478190422,-171.9507141113
        1.6253120899,       -0.1180459857,0.0240421519,-0.0814086720,-11.3000440598,1.7663493156,-171.7676086426
        1.6279690266,       -0.1180459857,0.0240421519,-0.0814086720,-11.3000440598,1.7663493156,-171.7676086426
        1.6305351257,       -0.1058389544,0.0626163706,-0.0613891408,-14.1839551926,1.2933268547,-170.8978576660
        1.6330950260,       -0.1058389544,0.0626163706,-0.0613891408,-14.1839551926,1.2933268547,-170.8978576660
        1.6356630325,       -0.1058389544,0.0626163706,-0.0613891408,-18.1817588806,0.8965983391,-169.4940490723
        1.6382491589,       -0.1058389544,0.0626163706,-0.0613891408,-18.1817588806,0.8965983391,-169.4940490723
        1.6408231258,       -0.0970498919,0.0504093394,-0.0540649220,-21.6607627869,0.1794352531,-168.1817932129
        1.6433920860,       -0.0970498919,0.0504093394,-0.0540649220,-21.6607627869,0.1794352531,-168.1817932129
        1.6459560394,       -0.0970498919,0.0504093394,-0.0540649220,-21.6607627869,-0.7360920906,-167.1136779785
        1.6485259533,       -0.0970498919,0.0504093394,-0.0540649220,-25.2923545837,-0.7360920906,-167.1136779785
        1.6512041092,       -0.1087686419,0.0040226206,-0.0648071095,-25.2923545837,-0.7360920906,-165.5725402832
        1.6537840366,       -0.1087686419,0.0040226206,-0.0648071095,-29.5648155212,-2.5213704109,-165.5725402832
        1.6564459801,       -0.1087686419,0.0040226206,-0.0648071095,-29.5648155212,-2.5213704109,-163.8635559082
        1.6590230465,       -0.1087686419,0.0040226206,-0.0648071095,-34.1882286072,-3.2690510750,-163.8635559082
        1.6615951061,       -0.1253702044,-0.0262508169,-0.0877563283,-34.1882286072,-3.2690510750,-159.9573059082
        1.6641650200,       -0.1253702044,-0.0262508169,-0.0877563283,-40.0933799744,-3.5437092781,-161.8646545410
        1.6668491364,       -0.1253702044,-0.0262508169,-0.0877563283,-40.0933799744,-3.5437092781,-161.8646545410
        1.6694209576,       -0.1253702044,-0.0262508169,-0.0877563283,-45.5560264587,-3.7420735359,-159.4995422363
        1.6719989777,       -0.1351358294,-0.0169734731,-0.1111938283,-45.5560264587,-3.7420735359,-159.4995422363
        1.6745760441,       -0.1351358294,-0.0169734731,-0.1111938283,-49.9047813416,-2.9791340828,-157.1039123535
        1.6772661209,       -0.1351358294,-0.0169734731,-0.1111938283,-49.9047813416,-2.9791340828,-157.1039123535
        1.6798400879,       -0.1351358294,-0.0169734731,-0.0955688283,-52.9565391541,-1.2396321297,-155.0592346191
        1.6824159622,       -0.1532022357,0.0220890269,-0.0955688283,-52.9565391541,-1.2396321297,-155.0592346191
        1.6849911213,       -0.1532022357,0.0220890269,-0.0955688283,-54.9706993103,0.3777995110,-152.5720520020
        1.6876621246,       -0.1532022357,0.0220890269,-0.0955688283,-54.9706993103,0.3777995110,-152.5720520020
        1.6903610229,       -0.1532022357,0.0416202769,-0.0906860158,-56.0235557556,2.4987711906,-149.6271057129
        1.6930701733,       -0.1390420794,0.0416202769,-0.0906860158,-56.0235557556,2.4987711906,-149.6271057129
        1.6958169937,       -0.1390420794,0.0416202769,-0.0906860158,-58.3123741150,4.0246500969,-147.1094055176
        1.6985239983,       -0.1390420794,0.0416202769,-0.0906860158,-58.3123741150,4.0246500969,-147.1094055176
        1.7012259960,       -0.1326944232,0.0484562144,-0.0843383595,-61.2420616150,5.1538004875,-144.3780822754
        1.7039289474,       -0.1326944232,0.0484562144,-0.0843383595,-61.2420616150,5.1538004875,-144.3780822754
        1.7066409588,       -0.1326944232,0.0484562144,-0.0843383595,-63.4545860291,6.5576090813,-141.5246887207
        1.7093460560,       -0.1326944232,0.0484562144,-0.0843383595,-63.4545860291,6.5576090813,-141.5246887207
        1.7120480537,       -0.1229287982,0.0626163706,-0.0740844533,-65.4840011597,8.6938400269,-138.5644836426
        1.7148520947,       -0.1229287982,0.0626163706,-0.0740844533,-65.4840011597,8.6938400269,-138.5644836426
        1.7175750732,       -0.1229287982,0.0626163706,-0.0740844533,-67.2235031128,10.8911056519,-134.9939270020
        1.7202830315,       -0.1229287982,0.0626163706,-0.0740844533,-67.2235031128,10.8911056519,-134.9939270020
        1.7229969501,       -0.0946084857,0.1031437144,-0.0740844533,-70.0463790894,13.2714767456,-131.1334533691
        1.7257001400,       -0.0946084857,0.1031437144,-0.0740844533,-70.0463790894,13.2714767456,-131.1334533691
        1.7282950878,       -0.0946084857,0.1031437144,-0.0740844533,-74.6392745972,14.8278732300,-127.3035049438
        1.7308781147,       -0.0946084857,0.1778507531,-0.0687133595,-74.6392745972,14.8278732300,-127.3035049438
        1.7336421013,       -0.0643350482,0.1778507531,-0.0687133595,-78.1640548706,16.6741867065,-122.5580215454
        1.7368979454,       -0.0643350482,0.1778507531,-0.0687133595,-78.1640548706,16.6741867065,-122.5580215454
        1.7394759655,       -0.0643350482,0.1778507531,-0.0687133595,-81.3684005737,18.3679122925,-115.9967422485
        1.7420501709,       -0.0218545794,0.2554874718,-0.0599242970,-81.3684005737,18.3679122925,-115.9967422485
        1.7446279526,       -0.0218545794,0.2554874718,-0.0599242970,-83.8403244019,18.0627365112,-108.1689834595
        1.7472779751,       -0.0218545794,0.2554874718,-0.0599242970,-83.8403244019,18.0627365112,-108.1689834595
        1.7498569489,       -0.0218545794,0.2554874718,-0.0599242970,-86.4953536987,15.9417648315,-100.7379531860
        1.7524340153,        0.0152547956,0.3057804406,-0.0110961720,-86.4953536987,15.9417648315,-100.7379531860
        1.7550101280,        0.0152547956,0.3057804406,-0.0110961720,-90.4016036987,12.8900070190,-94.5734024048
        1.7576401234,        0.0152547956,0.3057804406,-0.0110961720,-87.8228683472,12.8900070190,-94.5734024048
        1.7602150440,        0.0152547956,0.3057804406,-0.0110961720,-87.8228683472,8.9837570190,-89.3854141235
        1.7627849579,        0.0377157331,0.2960148156,-0.0027953908,-87.8381271362,9.3499679565,-89.3854141235
        1.7653551102,        0.0377157331,0.2960148156,-0.0027953908,-87.8381271362,9.3499679565,-84.0600967407
        1.7679309845,        0.0377157331,0.2960148156,-0.0027953908,-86.5258712769,6.5881266594,-84.0600967407
        1.7705030441,        0.0377157331,0.2960148156,-0.0027953908,-86.5258712769,6.5881266594,-80.1538467407
        1.7730729580,        0.0342977643,0.2725773156,-0.0008422658,-83.3215255737,5.2911295891,-78.4296035767
        1.7756440639,        0.0342977643,0.2725773156,-0.0008422658,-83.3215255737,5.2911295891,-78.4296035767
        1.7782461643,        0.0342977643,0.2725773156,-0.0008422658,-79.2779464722,4.2077555656,-72.4176406860
        1.7809250355,        0.0342977643,0.2725773156,-0.0101196095,-79.2779464722,4.2077555656,-72.4176406860
        1.7835021019,        0.0303915143,0.3018741906,-0.0101196095,-75.2496261597,3.1701579094,-65.7800674438
        1.7862479687,        0.0303915143,0.3018741906,-0.0101196095,-75.2496261597,3.1701579094,-65.7800674438
        1.7888269424,        0.0303915143,0.3018741906,-0.0101196095,-72.4725265503,2.1478190422,-58.9136123657
        1.7914071083,        0.0303915143,0.3062687218,-0.0062133595,-72.4725265503,2.1478190422,-58.9136123657
        1.7939851284,        0.0455282331,0.3062687218,-0.0062133595,-69.8632736206,1.2628092766,-51.5893936157
        1.7967231274,        0.0455282331,0.3062687218,-0.0062133595,-69.8632736206,1.2628092766,-51.5893936157
        1.7994339466,        0.0455282331,0.3062687218,-0.0062133595,-67.5286788940,0.5609049797,-43.5327529907
        1.8021380901,        0.0391805768,0.3048038781,0.0045288280,-67.5286788940,0.5609049797,-43.5327529907
        1.8048400879,        0.0391805768,0.3048038781,0.0045288280,-65.2398605347,-0.4461750984,-35.1861953735
        1.8075599670,        0.0391805768,0.3048038781,0.0045288280,-65.2398605347,-0.4461750984,-35.1861953735
        1.8102641106,        0.0391805768,0.3048038781,0.0045288280,-61.2420616150,-1.6973958015,-27.2821426392
        1.8129661083,        0.0416219831,0.3106632531,0.0216186717,-61.2420616150,-1.6973958015,-27.2821426392
        1.8156700134,        0.0416219831,0.3106632531,0.0216186717,-57.2747764587,-2.9943928719,-20.3851699829
        1.8183810711,        0.0416219831,0.3106632531,0.0216186717,-57.2747764587,-2.9943928719,-20.3851699829
        1.8211441040,        0.0416219831,0.3106632531,0.0216186717,-53.2464561462,-4.0777668953,-13.3203506470
        1.8237140179,        0.0650594831,0.3004093468,0.0313842967,-53.2464561462,-4.0777668953,-13.3203506470
        1.8264641762,        0.0650594831,0.3004093468,0.0313842967,-50.2404747009,-6.1529622078,-6.5912246704
        1.8290519714,        0.0650594831,0.3004093468,0.0313842967,-50.2404747009,-6.1529622078,-6.5912246704
        1.8317270279,        0.0650594831,0.2413273156,0.0631225780,-49.6148643494,-9.3420486450,-0.6402969360
        1.8344860077,        0.0543172956,0.2413273156,0.0631225780,-49.6148643494,-9.3420486450,-0.6402969360
        1.8371310234,        0.0543172956,0.2413273156,0.0631225780,-48.9129600525,-11.2188796997,6.4550399780
        1.8397021294,        0.0543172956,0.2413273156,0.0631225780,-48.9129600525,-11.2188796997,6.4550399780
        1.8422739506,        0.0543172956,0.2847843468,0.0479858592,-47.4786338806,-12.6837234497,14.8778915405
        1.8449571133,        0.0391805768,0.2847843468,0.0479858592,-47.4786338806,-12.6837234497,14.8778915405
        1.8475461006,        0.0391805768,0.2847843468,0.0479858592,-51.3848838806,-12.6989822388,23.8500595093
        1.8501181602,        0.0391805768,0.2847843468,0.0479858592,-49.2028770447,-12.6989822388,23.8500595093
        1.8526890278,       -0.0028116107,0.2383976281,0.0191772655,-49.2028770447,-12.6989822388,31.4641952515
        1.8552670479,       -0.0028116107,0.2383976281,0.0191772655,-50.2862510681,-11.4477615356,31.4641952515
        1.8578670025,       -0.0028116107,0.2383976281,0.0191772655,-50.2862510681,-11.4477615356,32.4102401733
        1.8604440689,       -0.0028116107,0.2383976281,0.0191772655,-49.1876182556,-9.8913650513,32.4102401733
        1.8635339737,       -0.0570108294,-0.2279109657,-0.0872680470,-49.1876182556,-9.8913650513,26.5508651733
        1.8661489487,       -0.0570108294,-0.2279109657,-0.0872680470,-43.9996299744,-7.9077229500,26.5508651733
        1.8687241077,       -0.0570108294,-0.2279109657,-0.0872680470,-43.9996299744,-7.9077229500,18.5552597046
        1.8712999821,       -0.0570108294,-0.2279109657,-0.0872680470,-35.4089317322,-6.9006428719,18.5552597046
        1.8738689423,       -0.0491983294,-0.5843563080,-0.1507446170,-35.4089317322,-6.9006428719,10.7427597046
        1.8765079975,       -0.0491983294,-0.5843563080,-0.1507446170,-28.1915245056,-8.0145339966,11.8719100952
        1.8790891171,       -0.0491983294,-0.5843563080,-0.1507446170,-28.1915245056,-8.0145339966,11.8719100952
        1.8816671371,       -0.0491983294,-0.5843563080,-0.2757446170,-24.9414024353,-7.4499592781,7.9351425171
        1.8842451572,       -0.1180459857,-0.6136531830,-0.2484008670,-24.9414024353,-7.4499592781,7.9351425171
        1.8869249821,       -0.1180459857,-0.6136531830,-0.2484008670,-24.4988975525,-4.3066487312,8.1335067749
        1.8896360397,       -0.1180459857,-0.6136531830,-0.2484008670,-24.4988975525,-4.3066487312,8.1335067749
        1.8923389912,       -0.1180459857,-0.3299617469,-0.2181274295,-31.8536338806,-2.3077473640,12.8637313843
        1.8950409889,       -0.1297647357,-0.3299617469,-0.2181274295,-31.8536338806,-2.3077473640,12.8637313843
        1.8976731300,       -0.1297647357,-0.3299617469,-0.2181274295,-43.2519493103,-2.0025715828,18.2806015015
        1.9002511501,       -0.1297647357,-0.3299617469,-0.2181274295,-43.2519493103,-2.0025715828,18.2806015015
        1.9028270245,       -0.1297647357,-0.0872859731,-0.1487914920,-52.2698936462,-3.1927571297,23.8958358765
        1.9054000378,       -0.0828897357,-0.0872859731,-0.1487914920,-52.2698936462,-3.1927571297,23.8958358765
        1.9082500935,       -0.0828897357,-0.0872859731,-0.1487914920,-55.5352745056,-5.1001057625,29.6483993530
        1.9108281136,       -0.0828897357,-0.0872859731,-0.1487914920,-55.5352745056,-5.1001057625,29.6483993530
        1.9134020805,       -0.0853311419,0.0206241831,-0.0789672658,-56.1608848572,-8.9758377075,34.2260360718
        1.9161570072,       -0.0853311419,0.0206241831,-0.0789672658,-56.1608848572,-8.9758377075,34.2260360718
        1.9187381268,       -0.0853311419,0.0206241831,-0.0789672658,-55.5963096619,-13.5839920044,35.8739852905
        1.9213180542,       -0.0853311419,0.0206241831,-0.0789672658,-55.5963096619,-13.5839920044,35.8739852905
        1.9240591526,       -0.0955850482,-0.0169734731,-0.0491821095,-51.3391075134,-17.2461013794,35.7213973999
        1.9268600941,       -0.0955850482,-0.0169734731,-0.0491821095,-51.3391075134,-17.2461013794,35.7213973999
        1.9295310974,       -0.0955850482,-0.0169734731,-0.0491821095,-44.9304161072,-19.5654373169,35.0042343140
        1.9324669838,       -0.0955850482,-0.0169734731,-0.0833617970,-44.9304161072,-19.5654373169,35.0042343140
        1.9350550175,       -0.0936319232,-0.0228328481,-0.0833617970,-39.5440635681,-20.5267410278,33.3562850952
        1.9377040863,       -0.0936319232,-0.0228328481,-0.0833617970,-39.5440635681,-20.5267410278,33.3562850952
        1.9402780533,       -0.0936319232,-0.0228328481,-0.0833617970,-36.1566123962,-20.1757888794,31.7846298218
        1.9428491592,       -0.0936319232,0.0098819956,-0.1360961795,-36.1566123962,-20.1757888794,31.7846298218
        1.9454300404,       -0.0828897357,0.0098819956,-0.1360961795,-36.1566123962,-19.3670730591,31.3726425171
        1.9480509758,       -0.0828897357,0.0098819956,-0.1360961795,-34.9206504822,-19.3670730591,31.3726425171
        1.9506289959,       -0.0828897357,0.0098819956,-0.1360961795,-34.9206504822,-19.3670730591,31.9982528687
        1.9532029629,       -0.0828897357,0.0396671519,-0.1317016482,-35.3631553650,-19.0008621216,31.9982528687
        1.9558269978,       -0.0579873919,0.0396671519,-0.1317016482,-35.3631553650,-19.0008621216,31.9982528687
        1.9584071636,       -0.0579873919,0.0396671519,-0.1317016482,-35.8209190369,-18.9398269653,31.9982528687
        1.9609801769,       -0.0579873919,0.0396671519,-0.1317016482,-35.8209190369,-18.9398269653,31.9982528687
        1.9635579586,       -0.0472452044,0.0508976206,-0.1107055470,-33.9288291931,-17.9937820435,31.4641952515
        1.9661550522,       -0.0472452044,0.0508976206,-0.1107055470,-33.9288291931,-17.9937820435,31.4641952515
        1.9687261581,       -0.0472452044,0.0508976206,-0.1107055470,-30.7397422791,-16.9409255981,30.5486679077
        1.9714119434,       -0.0472452044,0.0508976206,-0.1107055470,-30.7397422791,-16.9409255981,30.5486679077
        1.9739911556,       -0.0189248919,0.0460148081,-0.0604125783,-27.6116905212,-16.4526443481,28.5955429077
        1.9766540527,       -0.0189248919,0.0460148081,-0.0604125783,-27.6116905212,-16.4526443481,28.5955429077
        1.9792449474,       -0.0189248919,0.0460148081,-0.0604125783,-24.8040733337,-15.7659988403,26.8865585327
        1.9818279743,       -0.0189248919,0.0460148081,-0.0604125783,-24.8040733337,-15.7659988403,26.8865585327
        1.9844100475,        0.0142782331,0.0382023081,-0.0369750783,-22.8814659119,-15.5523757935,25.3606796265
        1.9870729446,        0.0142782331,0.0382023081,-0.0369750783,-22.8814659119,-15.5523757935,25.3606796265
        1.9897871017,        0.0142782331,0.0382023081,-0.0369750783,-23.2781944275,-16.4221267700,23.9416122437
        1.9924941063,        0.0142782331,0.0382023081,-0.0369750783,-23.2781944275,-16.4221267700,23.9416122437
        1.9952061176,        0.0225790143,-0.0062312856,0.0172241405,-25.1092491150,-17.7649002075,21.8511581421
        1.9979310036,        0.0225790143,-0.0062312856,0.0172241405,-25.1092491150,-17.7649002075,21.8511581421
        2.0006461143,        0.0225790143,-0.0062312856,0.0172241405,-27.8405723572,-19.2602615356,19.6844100952
        2.0033531189,        0.0225790143,-0.0062312856,0.0265014842,-27.8405723572,-19.2602615356,19.6844100952
        2.0061149597,        0.0328329206,-0.0418758169,0.0265014842,-30.4803428650,-19.1534500122,17.1056747437
        2.0087029934,        0.0328329206,-0.0418758169,0.0265014842,-30.4803428650,-19.1534500122,17.1056747437
        2.0112841129,        0.0328329206,-0.0418758169,0.0265014842,-33.2879600525,-19.0924148560,14.9847030640
        2.0138590336,        0.0328329206,-0.0521297231,0.0396850780,-33.2879600525,-19.0924148560,14.9847030640
        2.0165221691,        0.0450399518,-0.0521297231,0.0396850780,-35.9887657166,-19.0771560669,12.8484725952
        2.0192339420,        0.0450399518,-0.0521297231,0.0396850780,-35.9887657166,-19.0771560669,12.8484725952
        2.0219509602,        0.0450399518,-0.0521297231,0.0396850780,-36.3549766541,-19.0618972778,10.6512069702
        2.0246570110,        0.0504110456,-0.0316219106,0.0182007030,-36.3549766541,-19.0618972778,10.6512069702
        2.0273809433,        0.0504110456,-0.0316219106,0.0182007030,-35.1342735291,-19.1381912231,7.6299667358
        2.0300991535,        0.0504110456,-0.0316219106,0.0182007030,-35.1342735291,-19.1381912231,7.6299667358
        2.0328061581,        0.0504110456,-0.0316219106,0.0182007030,-30.8618125916,-18.7872390747,5.2953720093
        2.0356290340,        0.0367391706,-0.0296687856,-0.0042602345,-30.8618125916,-18.7872390747,5.2953720093
        2.0383560658,        0.0367391706,-0.0296687856,-0.0042602345,-26.6046104431,-18.8482742310,3.0675888062
        2.0410680771,        0.0367391706,-0.0296687856,-0.0042602345,-26.6046104431,-18.8482742310,3.0675888062
        2.0438461304,        0.0367391706,-0.0448055044,0.0094116405,-23.5986289978,-18.7109451294,1.5264511108
        2.0465481281,        0.0284383893,-0.0448055044,0.0094116405,-23.5986289978,-18.7109451294,1.5264511108
        2.0491249561,        0.0284383893,-0.0448055044,0.0094116405,-20.2111778259,-19.2907791138,-0.0299453735
        2.0517020226,        0.0284383893,-0.0448055044,0.0094116405,-20.2111778259,-19.2907791138,-0.0299453735
        2.0542781353,        0.0284383893,-0.0448055044,-0.0110961720,-20.2111778259,-19.1839675903,-1.4947891235
        2.0569469929,        0.0137899518,-0.0448055044,-0.0110961720,-15.7403516769,-19.1839675903,-1.4947891235
        2.0596570969,        0.0137899518,-0.0448055044,-0.0110961720,-15.7403516769,-18.2074050903,-2.5476455688
        2.0623600483,        0.0137899518,-0.0448055044,-0.0110961720,-10.2319288254,-18.2074050903,-2.5476455688
        2.0650680065,        0.0015829206,-0.0706844106,-0.0423461720,-10.2319288254,-17.3071365356,-3.2037734985
        2.0677850246,        0.0015829206,-0.0706844106,-0.0423461720,-6.6003370285,-17.3071365356,-3.2037734985
        2.0704870224,        0.0015829206,-0.0706844106,-0.0423461720,-6.6003370285,-18.9093093872,-3.8141250610
        2.0731911659,        0.0015829206,-0.0706844106,-0.0423461720,-3.3807325363,-18.9093093872,-3.8141250610
        2.0759041309,        0.0167196393,-0.0848445669,-0.0643188283,-3.3807325363,-18.9093093872,-4.3939590454
        2.0784771442,        0.0167196393,-0.0848445669,-0.0643188283,-0.3747510910,-19.8095779419,-4.3939590454
        2.0810511112,        0.0167196393,-0.0848445669,-0.0643188283,-0.3747510910,-19.8095779419,-4.9737930298
        2.0836191177,        0.0167196393,-0.0848445669,-0.0643188283,1.5631151199,-19.5959548950,-4.9737930298
        2.0862569809,        0.0030477643,-0.0770320669,-0.0726196095,1.5631151199,-19.5959548950,-4.9737930298
        2.0888381004,        0.0030477643,-0.0770320669,-0.0726196095,3.4399461746,-19.8095779419,-5.1263809204
        2.0914111137,        0.0030477643,-0.0770320669,-0.0726196095,3.4399461746,-19.8095779419,-5.1263809204
        2.0939869881,        0.0030477643,-0.0770320669,-0.0384399220,5.0421190262,-20.3436355591,-5.3400039673
        2.0966820717,       -0.0116006732,-0.0653133169,-0.0384399220,5.0421190262,-20.3436355591,-5.3400039673
        2.0993659496,       -0.0116006732,-0.0653133169,-0.0384399220,5.7897996902,-20.2215652466,-5.5078506470
        2.1019411087,       -0.0116006732,-0.0653133169,-0.0384399220,5.7897996902,-20.2215652466,-5.5078506470
        2.1045100689,       -0.0116006732,-0.0521297231,-0.0286742970,7.6666307449,-20.1605300903,-5.7977676392
        2.1071591377,       -0.0311319232,-0.0521297231,-0.0286742970,7.6666307449,-20.1605300903,-5.7977676392
        2.1098580360,       -0.0311319232,-0.0521297231,-0.0286742970,9.4671678543,-19.7638015747,-5.9045791626
        2.1125490665,       -0.0311319232,-0.0521297231,-0.0286742970,9.4671678543,-19.7638015747,-5.9045791626
        2.1152451038,       -0.0277139544,-0.0531062856,-0.0233032033,11.7407274246,-19.2907791138,-5.6299209595
        2.1179471016,       -0.0277139544,-0.0531062856,-0.0233032033,11.7407274246,-19.2907791138,-5.6299209595
        2.1206381321,       -0.0277139544,-0.0531062856,-0.0233032033,13.8159227371,-19.0008621216,-5.2331924438
        2.1233301163,       -0.0277139544,-0.0531062856,-0.0233032033,13.8159227371,-19.0008621216,-5.2331924438
        2.1261041164,       -0.0282022357,-0.0623836294,0.0025757030,15.7080125809,-18.8635330200,-5.4315567017
        2.1286971569,       -0.0282022357,-0.0623836294,0.0025757030,15.7080125809,-18.8635330200,-5.4315567017
        2.1312751770,       -0.0282022357,-0.0623836294,0.0025757030,16.3031044006,-18.4820632935,-5.3705215454
        2.1338460445,       -0.0282022357,-0.0623836294,0.0025757030,16.3031044006,-18.4820632935,-5.3705215454
        2.1365110874,       -0.0116006732,-0.0990047231,0.0128296092,16.3946571350,-17.5970535278,-4.8364639282
        2.1391890049,       -0.0116006732,-0.0990047231,0.0128296092,16.3946571350,-17.5970535278,-4.8364639282
        2.1419429779,       -0.0116006732,-0.0990047231,0.0128296092,15.7385301590,-16.6662673950,-4.3634414673
        2.1446249485,       -0.0116006732,-0.0990047231,0.0338257030,15.7385301590,-16.6662673950,-4.3634414673
        2.1485309601,       -0.0013467669,-0.0955867544,0.0338257030,15.2807664871,-16.1474685669,-3.8141250610
        2.1513280869,       -0.0013467669,-0.0955867544,0.0338257030,15.2807664871,-16.1474685669,-3.8141250610
        2.1539039612,       -0.0013467669,-0.0955867544,0.0338257030,13.2360887527,-15.6134109497,-2.9901504517
        2.1565599442,        0.0020712018,-0.0931453481,0.0645874217,13.2360887527,-15.6134109497,-2.9901504517
        2.1591341496,        0.0020712018,-0.0931453481,0.0645874217,11.8322801590,-14.5910720825,-2.7460098267
        2.1617090702,        0.0020712018,-0.0931453481,0.0645874217,11.8322801590,-14.5910720825,-2.7460098267
        2.1644051075,        0.0020712018,-0.0931453481,0.0645874217,11.5118455887,-14.0722732544,-2.8985977173
        2.1669869423,        0.0069540143,-0.0985164419,0.0694702342,11.5118455887,-14.0722732544,-2.8985977173
        2.1695661545,        0.0069540143,-0.0985164419,0.0694702342,11.3592576981,-13.2940750122,-3.6157608032
        2.1721429825,        0.0069540143,-0.0985164419,0.0694702342,11.3592576981,-13.2940750122,-3.6157608032
        2.1747190952,        0.0069540143,-0.0985164419,0.0655639842,11.0998582840,-12.2717361450,-4.0582656860
        2.1773040295,        0.0181844831,-0.0540828481,0.0655639842,11.0998582840,-12.2717361450,-4.0582656860
        2.1798789501,        0.0181844831,-0.0540828481,0.0655639842,12.1679735184,-11.4019851685,-4.5618057251
        2.1824550629,        0.0181844831,-0.0540828481,0.0655639842,12.1679735184,-11.4019851685,-4.5618057251
        2.1850380898,        0.0181844831,-0.0540828481,0.0626342967,16.0742225647,-11.0357742310,-4.9432754517
        2.1876590252,        0.0211141706,-0.0164851919,0.0626342967,14.1668748856,-11.0357742310,-4.9432754517
        2.1902401447,        0.0211141706,-0.0164851919,0.0626342967,14.1668748856,-11.0357742310,-5.5688858032
        2.1928119659,        0.0211141706,-0.0164851919,0.0626342967,16.1199989319,-10.4254226685,-5.5688858032
        2.1953861713,        0.0211141706,-0.0379695669,0.0421264842,16.1199989319,-10.4254226685,-6.3165664673
        2.1981539726,        0.0152547956,-0.0379695669,0.0421264842,17.9510536194,-9.5251541138,-6.3165664673
        2.2007369995,        0.0152547956,-0.0379695669,0.0421264842,17.9510536194,-9.5251541138,-7.3846817017
        2.2033190727,        0.0152547956,-0.0379695669,0.0421264842,20.7128944397,-8.3654861450,-7.3846817017
        2.2059669495,        0.0079305768,-0.0462703481,0.0357788280,20.7128944397,-8.3654861450,-7.3846817017
        2.2086920738,        0.0079305768,-0.0462703481,0.0357788280,21.7352333069,-7.2668538094,-7.9645156860
        2.2114100456,        0.0079305768,-0.0462703481,0.0357788280,21.7352333069,-7.2668538094,-7.9645156860
        2.2141170502,        0.0079305768,-0.0462703481,0.0357788280,20.8197059631,-7.2363362312,-8.2239151001
        2.2168300152,        0.0220907331,-0.0408992544,0.0225952342,20.8197059631,-7.2363362312,-8.2239151001
        2.2195401192,        0.0220907331,-0.0408992544,0.0225952342,20.2551307678,-7.3431477547,-8.8800430298
        2.2222471237,        0.0220907331,-0.0408992544,0.0225952342,20.2551307678,-7.3431477547,-8.8800430298
        2.2249579430,        0.0220907331,-0.0408992544,0.0225952342,19.9041786194,-7.1295247078,-9.0784072876
        2.2278370857,        0.0206258893,-0.0575008169,0.0089233592,19.9041786194,-7.1295247078,-9.4293594360
        2.2304739952,        0.0206258893,-0.0575008169,0.0089233592,18.4240760803,-7.0990071297,-9.4293594360
        2.2330510616,        0.0206258893,-0.0575008169,0.0089233592,18.4240760803,-7.0990071297,-9.4293594360
        2.2356281281,        0.0206258893,-0.0770320669,0.0074585155,16.9439735413,-7.1447834969,-9.6735000610
        2.2383680344,        0.0176962018,-0.0770320669,0.0074585155,16.9439735413,-7.1447834969,-9.6735000610
        2.2409470081,        0.0176962018,-0.0770320669,0.0074585155,15.1739549637,-7.0837483406,-10.0854873657
        2.2438051701,        0.0176962018,-0.0770320669,0.0074585155,15.1739549637,-7.0837483406,-10.0854873657
        2.2465031147,        0.0338094831,-0.0692195669,0.0230835155,14.0753221512,-7.1142659187,-10.5737686157
        2.2490839958,        0.0338094831,-0.0692195669,0.0230835155,14.0753221512,-7.1142659187,-10.5737686157
        2.2516560555,        0.0338094831,-0.0692195669,0.0230835155,13.4039354324,-7.1600422859,-10.7416152954
        2.2542350292,        0.0338094831,-0.0692195669,0.0230835155,13.4039354324,-7.1600422859,-10.7416152954
        2.2568099499,        0.0323446393,-0.0545711294,0.0133178905,12.3968553543,-7.2973713875,-10.8789443970
        2.2593810558,        0.0323446393,-0.0545711294,0.0133178905,12.3968553543,-7.2973713875,-10.8789443970
        2.2619600296,        0.0323446393,-0.0545711294,0.0133178905,12.4884080887,-7.5262532234,-10.6958389282
        2.2645311356,        0.0323446393,-0.0545711294,0.0133178905,12.4884080887,-7.5262532234,-10.6958389282
        2.2671151161,        0.0435751081,-0.0614070669,0.0308960155,13.2208299637,-7.4194417000,-11.3824844360
        2.2696859837,        0.0435751081,-0.0614070669,0.0308960155,13.2208299637,-7.4194417000,-11.3824844360
        2.2722570896,        0.0435751081,-0.0614070669,0.0308960155,13.7396287918,-7.2058186531,-11.2756729126
        2.2748291492,        0.0435751081,-0.0614070669,0.0308960155,13.7396287918,-7.2058186531,-11.2756729126
        2.2774641514,        0.0357626081,-0.0882625356,0.0372436717,13.7396287918,-7.0379719734,-10.9247207642
        2.2800359726,        0.0357626081,-0.0882625356,0.0372436717,13.2666063309,-7.0379719734,-10.9247207642
        2.2826099396,        0.0357626081,-0.0882625356,0.0372436717,13.2666063309,-7.0379719734,-10.7873916626
        2.2851819992,        0.0357626081,-0.0882625356,0.0372436717,12.6409959793,-6.2750325203,-10.7873916626
        2.2877950668,        0.0308797956,-0.1024226919,0.0528686717,12.6409959793,-6.2750325203,-9.9481582642
        2.2904789448,        0.0308797956,-0.1024226919,0.0528686717,11.6949510574,-5.6189045906,-9.9481582642
        2.2930510044,        0.0308797956,-0.1024226919,0.0528686717,11.6949510574,-5.6189045906,-9.9481582642
        2.2956249714,        0.0308797956,-0.1024226919,0.0528686717,10.1080369949,-5.6646809578,-8.5901260376
        2.2983441353,        0.0372274518,-0.1043758169,0.0470092967,10.1080369949,-5.6646809578,-8.5901260376
        2.3009171486,        0.0372274518,-0.1043758169,0.0470092967,8.7347459793,-6.1834797859,-7.2778701782
        2.3034861088,        0.0372274518,-0.1043758169,0.0470092967,8.7347459793,-6.1834797859,-7.2778701782
        2.3061001301,        0.0372274518,-0.1043758169,0.0352905467,7.9870653152,-6.3665852547,-6.6064834595
        2.3086760044,        0.0425985456,-0.1341609657,0.0352905467,7.9870653152,-6.3665852547,-6.6064834595
        2.3112511635,        0.0425985456,-0.1341609657,0.0352905467,7.5293016434,-5.8325276375,-6.2555313110
        2.3138191700,        0.0425985456,-0.1341609657,0.0352905467,7.5293016434,-5.8325276375,-6.2555313110
        2.3164210320,        0.0425985456,-0.1341609657,0.0352905467,6.7358446121,-5.4968342781,-5.4925918579
        2.3191151619,        0.0445516706,-0.1200008169,0.0352905467,6.7358446121,-5.4968342781,-5.4925918579
        2.3218030930,        0.0445516706,-0.1200008169,0.0352905467,4.8742723465,-5.8172688484,-4.4244766235
        2.3244919777,        0.0445516706,-0.1200008169,0.0352905467,4.8742723465,-5.8172688484,-4.4244766235
        2.3271811008,        0.0391805768,-0.0950984731,0.0411499217,3.6840867996,-5.7104573250,-3.1579971313
        2.3298449516,        0.0391805768,-0.0950984731,0.0411499217,3.6840867996,-5.7104573250,-3.1579971313
        2.3326630592,        0.0391805768,-0.0950984731,0.0411499217,1.8225145340,-5.2832112312,-1.9830703735
        2.3352320194,        0.0391805768,-0.0950984731,0.0411499217,1.8225145340,-5.2832112312,-1.9830703735
        2.3380210400,        0.0386922956,-0.0604305044,0.0416382030,-0.0543165207,-4.6576008797,-1.1896133423
        2.3405930996,        0.0386922956,-0.0604305044,0.0416382030,-0.0543165207,-4.6576008797,-1.1896133423
        2.3438160419,        0.0386922956,-0.0604305044,0.0416382030,-0.5578565598,-4.6728596687,-0.7013320923
        2.3464701176,        0.0386922956,-0.0604305044,0.0499389842,-0.5578565598,-4.6728596687,-0.7013320923
        2.3490421772,        0.0245321393,-0.0452937856,0.0499389842,-1.7633008957,-5.3747639656,-0.2588272095
        2.3516149521,        0.0245321393,-0.0452937856,0.0499389842,-1.7633008957,-5.3747639656,-0.2588272095
        2.3542890549,        0.0245321393,-0.0452937856,0.0499389842,-3.2281446457,-5.1001057625,0.0616073608
        2.3569061756,        0.0245321393,-0.0452937856,0.0142944530,-3.2281446457,-5.1001057625,0.0616073608
        2.3594801426,        0.0020712018,-0.0687312856,0.0142944530,-3.1518507004,-4.3524250984,0.7635116577
        2.3620469570,        0.0020712018,-0.0687312856,0.0142944530,-3.1518507004,-4.3524250984,0.7635116577
        2.3646199703,        0.0020712018,-0.0687312856,0.0142944530,-3.1518507004,-3.6505208015,1.8316268921
        2.3672289848,        0.0020712018,-0.0159969106,0.0006225780,-2.0989942551,-3.6505208015,1.8316268921
        2.3697919846,       -0.0023233294,-0.0159969106,0.0006225780,-2.0989942551,0.2557291985,3.3727645874
        2.3723659515,       -0.0023233294,-0.0159969106,0.0006225780,-1.0919141769,-3.1927571297,3.3727645874
        2.3749320507,       -0.0023233294,-0.0159969106,0.0006225780,-1.0919141769,-3.1927571297,4.3645858765
        2.3775889874,       -0.0023233294,0.0196476206,-0.0115844533,-0.8630323410,-2.5976643562,4.3645858765
        2.3801641464,       -0.0028116107,0.0196476206,-0.0115844533,-0.8630323410,-2.5976643562,4.3645858765
        2.3827230930,       -0.0028116107,0.0196476206,-0.0115844533,-0.8325147629,-3.1164631844,4.3340682983
        2.3852920532,       -0.0028116107,0.0196476206,-0.0115844533,-0.8325147629,-3.1164631844,4.3340682983
        2.3880009651,       -0.0120889544,-0.0091609731,-0.0340453908,-0.7409620285,-3.5742268562,4.4866561890
        2.3905701637,       -0.0120889544,-0.0091609731,-0.0340453908,-0.7409620285,-3.5742268562,4.4866561890
        2.3931479454,       -0.0120889544,-0.0091609731,-0.0340453908,-0.3289747238,-3.8336262703,4.9291610718
        2.3957209587,       -0.0120889544,-0.0091609731,-0.0340453908,-0.3289747238,-3.8336262703,4.9291610718
        2.3985130787,       -0.0155069232,-0.0257625356,-0.0301391408,-0.2069044113,-3.9404377937,5.9209823608
        2.4012041092,       -0.0155069232,-0.0257625356,-0.0301391408,-0.2069044113,-3.9404377937,5.9209823608
        2.4038820267,       -0.0155069232,-0.0257625356,-0.0301391408,0.9375047684,-2.4603352547,6.7602157593
        2.4065790176,       -0.0155069232,-0.0257625356,-0.0301391408,0.9375047684,-2.4603352547,6.7602157593
        2.4092609882,       -0.0184366107,0.0001163706,0.0001342967,1.5478563309,-1.5448079109,6.6076278687
        2.4119451046,       -0.0184366107,0.0001163706,0.0001342967,1.5478563309,-1.5448079109,6.6076278687
        2.4146320820,       -0.0184366107,0.0001163706,0.0001342967,3.3178758621,-1.8805012703,6.3634872437
        2.4174251556,       -0.0184366107,0.1251163781,-0.0125610158,3.3178758621,-1.8805012703,6.3634872437
        2.4201109409,       -0.0174600482,0.0220890269,-0.0125610158,5.5304002762,-2.4908528328,6.5313339233
        2.4228000641,       -0.0174600482,0.0220890269,-0.0125610158,5.5304002762,-2.4908528328,6.5313339233
        2.4254879951,       -0.0174600482,0.0220890269,-0.0125610158,5.9271287918,-3.0401692390,6.9128036499
        2.4281880856,       -0.0037881732,0.0069523081,0.0084350780,5.9271287918,-3.0401692390,6.9128036499
        2.4308760166,       -0.0037881732,0.0069523081,0.0084350780,7.1173143387,-2.8418049812,7.1569442749
        2.4335639477,       -0.0037881732,0.0069523081,0.0084350780,7.1173143387,-2.8418049812,7.1569442749
        2.4363200665,       -0.0037881732,0.0069523081,0.0084350780,9.0856981277,-2.4298176765,7.3095321655
        2.4390101433,        0.0211141706,-0.0033015981,0.0416382030,9.0856981277,-2.4298176765,7.3095321655
        2.4416971207,        0.0211141706,-0.0033015981,0.0416382030,9.5434617996,-1.8042073250,8.1640243530
        2.4443931580,        0.0211141706,-0.0033015981,0.0416382030,9.5434617996,-1.8042073250,8.1640243530
        2.4471349716,        0.0211141706,-0.0033015981,0.0416382030,8.9636278152,-1.4227375984,8.4081649780
        2.4498419762,        0.0269735456,-0.0008601919,0.0313842967,8.9636278152,-1.4227375984,8.4081649780
        2.4526989460,        0.0269735456,-0.0008601919,0.0313842967,7.2699022293,-1.7126545906,8.6828231812
        2.4554071426,        0.0269735456,-0.0008601919,0.0313842967,7.2699022293,-1.7126545906,8.6828231812
        2.4581241608,        0.0269735456,-0.0067195669,0.0772827342,6.0491991043,-1.3464436531,9.0642929077
        2.4608261585,        0.0167196393,-0.0067195669,0.0772827342,6.0491991043,-1.3464436531,9.0642929077
        2.4635319710,        0.0167196393,-0.0067195669,0.0772827342,5.8355760574,-0.7360920906,8.8964462280
        2.4662411213,        0.0167196393,-0.0067195669,0.0772827342,5.8355760574,-0.7360920906,8.8964462280
        2.4689450264,        0.0352743268,0.0216007456,0.0699585155,5.6677293777,-0.4003987312,9.3694686890
        2.4716541767,        0.0352743268,0.0216007456,0.0699585155,5.6677293777,-0.4003987312,9.3694686890
        2.4743561745,        0.0352743268,0.0216007456,0.0699585155,6.1407518387,-0.5835042000,9.3236923218
        2.4771010876,        0.0352743268,0.0216007456,0.0699585155,6.1407518387,-0.5835042000,9.3236923218
        2.4798030853,        0.0484579206,0.0440616831,0.0470092967,5.8050584793,-0.6140217781,9.1405868530
        2.4825000763,        0.0484579206,0.0440616831,0.0470092967,5.8050584793,-0.6140217781,9.1405868530
        2.4853100777,        0.0484579206,0.0440616831,0.0470092967,6.4306688309,-0.2325520515,9.2016220093
        2.4879260063,        0.0484579206,0.0440616831,0.0582397655,6.4306688309,-0.2325520515,9.2016220093
        2.4904990196,        0.0460165143,0.0274601206,0.0582397655,6.8731737137,-0.1104817390,9.3847274780
        2.4930701256,        0.0460165143,0.0274601206,0.0582397655,6.8731737137,-0.1104817390,9.3847274780
        2.4956431389,        0.0460165143,0.0274601206,0.0582397655,7.1936082840,-0.0341877937,9.5983505249
        2.4983429909,        0.0460165143,0.0274601206,0.0543335155,7.1936082840,-0.0341877937,9.5983505249
        2.5009169579,        0.0401571393,0.0220890269,0.0543335155,7.3461961746,-0.1715168953,9.7051620483
        2.5034880638,        0.0401571393,0.0220890269,0.0543335155,7.3461961746,-0.1715168953,9.7051620483
        2.5062220097,        0.0401571393,0.0220890269,0.0543335155,7.3461961746,-0.0189290047,10.0713729858
        2.5089290142,        0.0401571393,0.0093937144,0.0387085155,7.2546434402,-0.0189290047,10.0713729858
        2.5116341114,        0.0391805768,0.0093937144,0.0387085155,7.2546434402,0.3472819328,10.4681015015
        2.5143401623,        0.0391805768,0.0093937144,0.0387085155,6.5374803543,0.3472819328,10.4681015015
        2.5170459747,        0.0391805768,0.0093937144,0.0387085155,2.6312303543,0.6066813469,11.1394882202
        2.5197491646,        0.0220907331,0.0152530894,0.0411499217,5.5151414871,0.6066813469,11.1394882202
        2.5224490166,        0.0220907331,0.0152530894,0.0411499217,5.5151414871,1.1254801750,12.0702743530
        2.5251510143,        0.0220907331,0.0152530894,0.0411499217,4.3707323074,1.1254801750,12.0702743530
        2.5278611183,        0.0220907331,0.0152530894,0.0411499217,4.3707323074,0.8813395500,12.5432968140
        2.5305650234,        0.0396688581,0.0167179331,0.0406616405,3.5467576981,0.8813395500,12.5432968140
        2.5332570076,        0.0396688581,0.0167179331,0.0406616405,3.5467576981,1.0797038078,12.7416610718
        2.5359511375,        0.0396688581,0.0167179331,0.0406616405,2.1429491043,1.0797038078,12.7416610718
        2.5385229588,        0.0396688581,0.0167179331,0.0489624217,2.1429491043,1.0797038078,12.9705429077
        2.5410931110,        0.0391805768,0.0416202769,0.0489624217,1.7462205887,0.9118571281,12.9705429077
        2.5436651707,        0.0391805768,0.0416202769,0.0489624217,1.7462205887,0.9118571281,12.8484725952
        2.5462510586,        0.0391805768,0.0416202769,0.0489624217,2.3718309402,0.1489176750,12.8484725952
        2.5490410328,        0.0391805768,0.0455265269,0.0518921092,2.3718309402,0.1489176750,12.9705429077
        2.5517270565,        0.0391805768,0.0455265269,0.0518921092,2.7075242996,-0.0036702156,12.9705429077
        2.5544080734,        0.0391805768,0.0455265269,0.0518921092,2.7075242996,-0.0036702156,12.6958847046
        2.5570931435,        0.0391805768,0.0455265269,0.0518921092,3.1195116043,-0.1104817390,12.6958847046
        2.5597569942,        0.0416219831,0.0591984019,0.0308960155,3.1195116043,-0.1104817390,16.6021347046
        2.5624420643,        0.0416219831,0.0591984019,0.0308960155,3.2873582840,-0.5987629890,13.1536483765
        2.5653729439,        0.0416219831,0.0591984019,0.0308960155,3.2873582840,-0.5987629890,13.2909774780
        2.5681190491,        0.0416219831,0.0591984019,0.0308960155,3.0737352371,-0.9344563484,13.2909774780
        2.5708191395,        0.0382040143,0.0626163706,0.0279663280,3.0737352371,-0.9344563484,13.4588241577
        2.5735261440,        0.0382040143,0.0626163706,0.0279663280,2.8753709793,-0.8734211922,13.4588241577
        2.5762281418,        0.0382040143,0.0626163706,0.0279663280,2.8753709793,-0.8734211922,13.7792587280
        2.5789330006,        0.0382040143,0.0626163706,0.0284546092,2.8601121902,-1.0412678719,13.7792587280
        2.5816349983,        0.0152547956,0.0811710581,0.0284546092,2.8601121902,-1.0412678719,14.4048690796
        2.5843379498,        0.0152547956,0.0811710581,0.0284546092,2.7380418777,-0.0341877937,14.4048690796
        2.5869891644,        0.0152547956,0.0811710581,0.0284546092,2.7380418777,-0.0341877937,14.4048690796
        2.5895540714,        0.0152547956,0.0870304331,0.0167358592,3.9892625809,0.2557291985,14.8321151733
        2.5921239853,        0.0152547956,0.0870304331,0.0167358592,3.9892625809,0.2557291985,14.8321151733
        2.5946929455,        0.0152547956,0.0870304331,0.0167358592,6.0186815262,-0.4461750984,15.1372909546
        2.5973711014,        0.0152547956,0.0870304331,0.0167358592,6.0186815262,-0.4461750984,15.1372909546
        2.6000730991,        0.0015829206,0.0933780894,0.0211303905,7.7734422684,-0.4614338875,15.3203964233
        2.6027791500,        0.0015829206,0.0933780894,0.0211303905,7.7734422684,-0.4614338875,15.3203964233
        2.6054861546,        0.0015829206,0.0933780894,0.0211303905,9.9401903152,-0.3851399422,15.6408309937
        2.6082041264,        0.0015829206,0.0933780894,0.0211303905,9.9401903152,-0.3851399422,15.6408309937
        2.6109061241,       -0.0125772357,0.0831241831,0.0142944530,11.5271043777,-0.2783284187,16.6784286499
        2.6137211323,       -0.0125772357,0.0831241831,0.0142944530,11.5271043777,-0.2783284187,16.6784286499
        2.6164309978,       -0.0125772357,0.0831241831,0.0142944530,12.8698778152,-0.3851399422,17.5481796265
        2.6191360950,       -0.0125772357,0.0831241831,0.0001342967,12.8698778152,-0.3851399422,17.5481796265
        2.6218390465,       -0.0062295794,0.0616398081,0.0001342967,13.8464403152,-0.3851399422,18.4942245483
        2.6245410442,       -0.0062295794,0.0616398081,0.0001342967,13.8464403152,-0.3851399422,18.4942245483
        2.6272480488,       -0.0062295794,0.0616398081,0.0001342967,14.4720506668,-1.3006672859,19.3792343140
        2.6299510002,       -0.0062295794,0.0591984019,0.0225952342,14.4720506668,-1.3006672859,19.3792343140
        2.6326529980,       -0.0057412982,0.0591984019,0.0225952342,14.4567918777,-1.7126545906,20.5846786499
        2.6353540421,       -0.0057412982,0.0591984019,0.0225952342,14.4567918777,-1.7126545906,20.5846786499
        2.6379520893,       -0.0057412982,0.0591984019,0.0225952342,14.5330858231,-1.8957600594,21.7596054077
        2.6405210495,       -0.0037881732,0.0684757456,0.0352905467,14.5330858231,-1.8957600594,21.7596054077
        2.6430931091,       -0.0037881732,0.0684757456,0.0352905467,14.7924852371,-2.0330891609,23.2549667358
        2.6456720829,       -0.0037881732,0.0684757456,0.0352905467,14.7924852371,-2.0330891609,23.2549667358
        2.6483840942,       -0.0037881732,0.0684757456,0.0352905467,14.8230028152,-2.5671467781,24.2773056030
        2.6510879993,       -0.0125772357,0.0924015269,0.0328491405,14.8230028152,-2.5671467781,24.2773056030
        2.6537849903,       -0.0125772357,0.0924015269,0.0328491405,15.8300828934,-3.2690510750,25.1317977905
        2.6565279961,       -0.0125772357,0.0924015269,0.0328491405,15.8300828934,-3.2690510750,25.1317977905
        2.6592359543,       -0.0125772357,0.0924015269,0.0328491405,17.5238075256,-3.5894856453,25.3911972046
        2.6619410515,       -0.0238077044,0.1304874718,0.0562866405,17.5238075256,-3.5894856453,25.3911972046
        2.6646440029,       -0.0238077044,0.1304874718,0.0562866405,19.2633094788,-4.0930256844,25.2080917358
        2.6673631668,       -0.0238077044,0.1304874718,0.0562866405,19.2633094788,-4.0930256844,25.2080917358
        2.6700639725,       -0.0238077044,0.1304874718,0.0582397655,20.6366004944,-4.2608723640,25.9557723999
        2.6727659702,       -0.0257608294,0.1197452769,0.0582397655,20.6366004944,-4.2608723640,25.9557723999
        2.6754691601,       -0.0257608294,0.1197452769,0.0582397655,22.0861854553,-3.4368977547,26.5813827515
        2.6782951355,       -0.0257608294,0.1197452769,0.0582397655,22.0861854553,-3.4368977547,26.5813827515
        2.6809999943,       -0.0399209857,0.0987491831,0.0704467967,22.4066200256,-2.9028401375,27.3900985718
        2.6837041378,       -0.0399209857,0.0987491831,0.0704467967,22.4066200256,-2.9028401375,27.3900985718
        2.6864011288,       -0.0399209857,0.0987491831,0.0704467967,22.3608436584,-2.1856770515,28.1835556030
        2.6889779568,       -0.0399209857,0.0987491831,0.0704467967,22.3608436584,-2.1856770515,28.1835556030
        2.6915500164,       -0.0496866107,0.1011905894,0.0704467967,22.8949012756,-1.6973958015,28.5955429077
        2.6941220760,       -0.0496866107,0.1011905894,0.0704467967,22.8949012756,-1.6973958015,28.5955429077
        2.6967630386,       -0.0496866107,0.1011905894,0.0704467967,23.7493934631,-1.8347249031,29.3584823608
        2.6994669437,       -0.0496866107,0.1011905894,0.0704467967,23.7493934631,-1.8347249031,29.3584823608
        2.7021679878,       -0.0828897357,0.0914249644,0.0528686717,23.7493934631,-1.3617024422,30.4723739624
        2.7048771381,       -0.0828897357,0.0914249644,0.0528686717,25.5041542053,-1.3617024422,30.4723739624
        2.7075951099,       -0.0828897357,0.0914249644,0.0528686717,29.4104042053,-1.1938557625,32.4102401733
        2.7102980614,       -0.0828897357,0.0914249644,0.0606811717,27.2131385803,-1.1938557625,32.4102401733
        2.7129969597,       -0.0950967669,0.0767765269,0.0606811717,27.2131385803,-1.5600667000,34.4091415405
        2.7157020569,       -0.0950967669,0.0767765269,0.0606811717,28.4338417053,-1.5600667000,34.4091415405
        2.7184181213,       -0.0950967669,0.0767765269,0.0606811717,28.4338417053,-2.0788655281,35.5230331421
        2.7211229801,       -0.1141397357,0.0284366831,0.0377319530,28.1286659241,-2.0788655281,35.5230331421
        2.7238290310,       -0.1141397357,0.0284366831,0.0377319530,28.1286659241,-1.5142903328,37.5982284546
        2.7265400887,       -0.1141397357,0.0284366831,0.0377319530,26.5722694397,-1.5142903328,37.5982284546
        2.7292490005,       -0.1141397357,0.0284366831,0.0377319530,22.6660194397,0.4693522453,40.8941268921
        2.7319519520,       -0.1702920794,0.0152530894,0.0294311717,25.4278602600,0.4693522453,40.8941268921
        2.7346520424,       -0.1702920794,0.0152530894,0.0294311717,25.4278602600,1.2017741203,44.2968368530
        2.7373039722,       -0.1702920794,0.0152530894,0.0294311717,25.3973426819,1.2017741203,44.2968368530
        2.7398791313,       -0.1702920794,0.0152530894,0.0294311717,25.3973426819,1.2017741203,47.4859237671
        2.7427320480,       -0.1649209857,0.0020694956,0.0055053905,23.5968055725,0.7287516594,47.4859237671
        2.7453181744,       -0.1649209857,0.0020694956,0.0055053905,23.5968055725,0.6829752922,50.7513046265
        2.7481660843,       -0.1649209857,0.0020694956,0.0055053905,21.6436805725,0.6829752922,50.7513046265
        2.7508339882,       -0.1649209857,0.1270695031,-0.0115844533,21.6436805725,-3.2232747078,54.1387557983
        2.7534911633,       -0.1678506732,0.0313663706,-0.0115844533,20.7128944397,-0.0189290047,54.1387557983
        2.7569050789,       -0.1678506732,0.0313663706,-0.0115844533,21.5673866272,-0.7513508797,58.0755233765
        2.7594840527,       -0.1678506732,0.0313663706,-0.0115844533,21.5673866272,-0.7513508797,58.0755233765
        2.7620530128,       -0.1859170794,0.0513859019,0.0035522655,25.4736366272,-1.3617024422,61.7071151733
        2.7646281719,       -0.1859170794,0.0513859019,0.0035522655,22.9864540100,-1.3617024422,61.7071151733
        2.7672760487,       -0.1859170794,0.0513859019,0.0035522655,22.9864540100,-2.4450764656,64.8504257202
        2.7698450089,       -0.1859170794,0.0513859019,0.0035522655,24.2834510803,-2.4450764656,64.8504257202
        2.7724230289,       -0.1922647357,0.0245304331,-0.0023071095,24.2834510803,-2.4450764656,67.6733016968
        2.7749929428,       -0.1922647357,0.0245304331,-0.0023071095,26.0534706116,-4.0472493172,67.6733016968
        2.7775681019,       -0.1922647357,0.0245304331,-0.0023071095,26.0534706116,-4.0472493172,67.6733016968
        2.7801501751,       -0.1922647357,0.0245304331,-0.0023071095,28.3117713928,-5.2984700203,70.5114364624
        2.7827200890,       -0.2166787982,0.0030460581,0.0225952342,28.3117713928,-5.2984700203,70.5114364624
        2.7852959633,       -0.2166787982,0.0030460581,0.0225952342,30.7531776428,-7.2058186531,73.5631942749
        2.7878730297,       -0.2166787982,0.0030460581,0.0225952342,30.7531776428,-7.2058186531,73.5631942749
        2.7904460430,       -0.2166787982,0.0030460581,0.0225952342,31.7907752991,-9.5404129028,76.0808944702
        2.7930240631,       -0.2489053607,-0.0228328481,0.0152710155,31.7907752991,-9.5404129028,76.0808944702
        2.7955980301,       -0.2489053607,-0.0228328481,0.0152710155,33.0114784241,-11.3104324341,78.7969589233
        2.7982201576,       -0.2489053607,-0.0228328481,0.0152710155,33.0114784241,-11.3104324341,78.7969589233
        2.8007991314,       -0.2489053607,-0.0228328481,0.0152710155,34.3389930725,-13.6755447388,81.7266464233
        2.8033740520,       -0.2454873919,0.0074405894,0.0113647655,34.3389930725,-13.6755447388,81.7266464233
        2.8062610626,       -0.2454873919,0.0074405894,0.0113647655,36.9329872131,-17.1087722778,83.5424423218
        2.8088450432,       -0.2454873919,0.0074405894,0.0113647655,36.9329872131,-17.1087722778,83.5424423218
        2.8114180565,       -0.2454873919,0.1324405968,0.0269897655,41.2054481506,-20.8013992310,83.6187362671
        2.8140039444,       -0.2410928607,0.0684757456,0.0269897655,41.2054481506,-20.8013992310,83.6187362671
        2.8167271614,       -0.2410928607,0.0684757456,0.0269897655,45.7373085022,-23.3190994263,82.7947616577
        2.8194370270,       -0.2410928607,0.0684757456,0.0269897655,45.7373085022,-23.3190994263,82.7947616577
        2.8221521378,       -0.2830850482,0.0811710581,0.0118530467,53.0004920959,-24.9823074341,81.6961288452
        2.8248550892,       -0.2830850482,0.0811710581,0.0118530467,53.0004920959,-24.9823074341,81.6961288452
        2.8275730610,       -0.2830850482,0.0811710581,0.0118530467,61.2097206116,-24.7229080200,79.9108505249
        2.8302831650,       -0.2830850482,0.0811710581,0.0118530467,61.2097206116,-24.7229080200,79.9108505249
        2.8329880238,       -0.3509561419,0.0948429331,0.0020874217,68.5644607544,-22.8308181763,78.4002304077
        2.8357031345,       -0.3509561419,0.0948429331,0.0020874217,68.5644607544,-22.8308181763,78.4002304077
        2.8382990360,       -0.3509561419,0.0948429331,0.0020874217,76.3769607544,-20.8929519653,76.7980575562
        2.8408751488,       -0.3509561419,0.0948429331,0.0020874217,75.7055740356,-20.8929519653,76.7980575562
        2.8436181545,       -0.3446084857,0.0611515269,-0.0018188283,83.5180740356,-19.3060379028,75.4095077515
        2.8462920189,       -0.3446084857,0.0611515269,-0.0018188283,82.7093582153,-19.3060379028,75.4095077515
        2.8489680290,       -0.3446084857,0.0611515269,-0.0018188283,82.7093582153,-16.5747146606,75.4858016968
