time, acceleration x, acceleration y, acceleration z, gyro x gyro y, gyro z
        0.0000000000,        0.0574972630,-0.0507111475,-0.0682803318,-4.6196231842,8.0484199524,-36.3730430603
        0.0034360886,        0.0657980442,-0.0507111475,-0.0731631443,-4.6196231842,8.0484199524,-36.3730430603
        0.0059959888,        0.0657980442,-0.0507111475,-0.0731631443,-5.2147159576,8.1857490540,-36.4493370056
        0.0085620880,        0.0657980442,-0.0507111475,-0.0731631443,-5.2147159576,8.1857490540,-36.4493370056
        0.0111200809,        0.0657980442,-0.0507111475,-0.0731631443,-4.8027286530,8.0789375305,-36.9681358337
        0.0136761665,        0.0638449192,-0.0502228662,-0.0756045505,-4.8027286530,8.0789375305,-36.9681358337
        0.0162320137,        0.0638449192,-0.0502228662,-0.0756045505,-4.2686710358,8.0789375305,-36.7545127869
        0.0187911987,        0.0638449192,-0.0502228662,-0.0756045505,-4.2686710358,8.0789375305,-36.7545127869
        0.0213520527,        0.0638449192,-0.0502228662,-0.0756045505,-4.3449649811,7.7890205383,-36.6934776306
        0.0239050388,        0.0550558567,-0.0590119287,-0.0648623630,-4.3449649811,7.7890205383,-36.6934776306
        0.0264620781,        0.0550558567,-0.0590119287,-0.0648623630,-4.6196231842,8.1552314758,-36.6629600525
        0.0290641785,        0.0550558567,-0.0590119287,-0.0648623630,-4.6196231842,8.1552314758,-36.6629600525
        0.0316190720,        0.0550558567,-0.0590119287,-0.0648623630,-4.8332462311,8.2010078430,-36.4340782166
        0.0341861248,        0.0657980442,-0.0551056787,-0.0726748630,-4.8332462311,8.2010078430,-36.4340782166
        0.0367541313,        0.0657980442,-0.0551056787,-0.0726748630,-4.8332462311,8.1094551086,-36.7239952087
        0.0394752026,        0.0657980442,-0.0551056787,-0.0726748630,-4.7416934967,8.1094551086,-36.7239952087
        0.0420479774,        0.0657980442,-0.0551056787,-0.0726748630,-4.7416934967,8.2773017883,-36.6782188416
        0.0446121693,        0.0609152317,-0.0468048975,-0.0843936130,-4.6348819733,8.2773017883,-36.6782188416
        0.0471770763,        0.0609152317,-0.0468048975,-0.0843936130,-4.6348819733,8.2773017883,-36.1746788025
        0.0497970581,        0.0609152317,-0.0468048975,-0.0843936130,-4.1160831451,7.9416084290,-36.1746788025
        0.0525131226,        0.0609152317,-0.0468048975,-0.0843936130,-4.1160831451,7.9416084290,-36.1441612244
        0.0550780296,        0.0609152317,-0.0536408350,-0.0585147068,-3.7956485748,7.7585029602,-36.1441612244
        0.0577130318,        0.0609152317,-0.0536408350,-0.0585147068,-3.7956485748,7.7585029602,-36.1441612244
        0.0602731705,        0.0609152317,-0.0536408350,-0.0585147068,-4.2076358795,7.8500556946,-36.4188194275
        0.0628411770,        0.0609152317,-0.0536408350,-0.0663272068,-4.2076358795,7.8500556946,-36.4188194275
        0.0654060841,        0.0653097630,-0.0463166162,-0.0663272068,-4.6348819733,8.1704902649,-36.4951133728
        0.0679790974,        0.0653097630,-0.0463166162,-0.0663272068,-4.6348819733,8.1704902649,-36.4951133728
        0.0705451965,        0.0653097630,-0.0463166162,-0.0663272068,-4.7416934967,8.3993721008,-36.6019248962
        0.0731050968,        0.0653097630,-0.0463166162,-0.0702334568,-4.7416934967,8.3993721008,-36.6019248962
        0.0756671429,        0.0667746067,-0.0511994287,-0.0702334568,-4.5433292389,8.2162666321,-36.4951133728
        0.0783061981,        0.0667746067,-0.0511994287,-0.0702334568,-4.5433292389,8.2162666321,-36.4951133728
        0.0808720589,        0.0667746067,-0.0511994287,-0.0702334568,-4.6196231842,8.0636787415,-36.4645957947
        0.0835430622,        0.0667746067,-0.0453400537,-0.0760928318,-4.6196231842,8.0636787415,-36.4645957947
        0.0861051083,        0.0628683567,-0.0453400537,-0.0760928318,-3.7193546295,7.8958320618,-36.1594200134
        0.0888459682,        0.0628683567,-0.0453400537,-0.0760928318,-3.7193546295,7.8958320618,-36.1594200134
        0.0914101601,        0.0628683567,-0.0453400537,-0.0760928318,-4.0397891998,7.7890205383,-36.2051963806
        0.0942070484,        0.0570089817,-0.0516877100,-0.0585147068,-4.0397891998,7.7890205383,-36.2051963806
        0.0967831612,        0.0570089817,-0.0516877100,-0.0585147068,-4.0397891998,8.0331611633,-36.4035606384
        0.0993471146,        0.0570089817,-0.0516877100,-0.0585147068,-4.4365177155,8.0331611633,-36.4035606384
        0.1019020081,        0.0570089817,-0.0516877100,-0.0585147068,-4.4365177155,4.1269111633,-36.2357139587
        0.1044681072,        0.0672628880,-0.0477814600,-0.0570498630,-4.1313419342,7.6059150696,-36.2357139587
        0.1070270538,        0.0672628880,-0.0477814600,-0.0570498630,-4.1313419342,7.6059150696,-36.4035606384
        0.1096370220,        0.0672628880,-0.0477814600,-0.0570498630,-4.7416934967,7.8500556946,-36.4035606384
        0.1122000217,        0.0672628880,-0.0477814600,-0.0570498630,-4.7416934967,7.8500556946,-36.4035606384
        0.1148750782,        0.0628683567,-0.0502228662,-0.0668154880,-4.8942813873,8.0026435852,-36.3120079041
        0.1174950600,        0.0628683567,-0.0502228662,-0.0668154880,-4.8942813873,8.0026435852,-36.3120079041
        0.1200561523,        0.0628683567,-0.0502228662,-0.0668154880,-5.1841983795,8.0636787415,-36.4035606384
        0.1226160526,        0.0628683567,-0.0502228662,-0.0668154880,-5.1841983795,8.0636787415,-36.4035606384
        0.1251740456,        0.0609152317,-0.0428986475,-0.0663272068,-4.8637638092,8.2010078430,-36.4035606384
        0.1277751923,        0.0609152317,-0.0428986475,-0.0663272068,-4.8637638092,8.2010078430,-36.4035606384
        0.1303369999,        0.0609152317,-0.0428986475,-0.0663272068,-4.4822940826,7.8195381165,-36.1899375916
        0.1328980923,        0.0609152317,-0.0428986475,-0.0663272068,-4.4822940826,7.8195381165,-36.1899375916
        0.1354591846,        0.0638449192,-0.0531525537,-0.0697451755,-4.8637638092,8.1094551086,-36.2509727478
        0.1380741596,        0.0638449192,-0.0531525537,-0.0697451755,-4.8637638092,8.1094551086,-36.2509727478
        0.1406371593,        0.0638449192,-0.0531525537,-0.0697451755,-4.6348819733,8.2162666321,-36.1136436462
        0.1431989670,        0.0638449192,-0.0531525537,-0.0697451755,-4.6348819733,8.2162666321,-36.1136436462
        0.1457591057,        0.0599386692,-0.0463166162,-0.0702334568,-4.6348819733,7.8347969055,-36.2662315369
        0.1484329700,        0.0599386692,-0.0463166162,-0.0702334568,-4.5738468170,7.8347969055,-36.2662315369
        0.1509981155,        0.0599386692,-0.0463166162,-0.0702334568,-4.5738468170,7.9416084290,-36.6324424744
        0.1535630226,        0.0599386692,-0.0463166162,-0.0702334568,-4.8332462311,7.9416084290,-36.6324424744
        0.1561269760,        0.0706808567,-0.0458283350,-0.0751162693,-4.8332462311,7.9416084290,-36.6782188416
        0.1587181091,        0.0706808567,-0.0458283350,-0.0751162693,-4.7722110748,7.8500556946,-36.6782188416
        0.1612820625,        0.0706808567,-0.0458283350,-0.0751162693,-4.7722110748,7.8500556946,-36.6782188416
        0.1638491154,        0.0706808567,-0.0458283350,-0.0751162693,-4.5738468170,7.8500556946,-36.5408897400
        0.1664140224,        0.0638449192,-0.0468048975,-0.0692568943,-4.5738468170,7.8500556946,-36.4188194275
        0.1696581841,        0.0638449192,-0.0468048975,-0.0692568943,-4.4365177155,7.8958320618,-36.4188194275
        0.1723551750,        0.0638449192,-0.0468048975,-0.0692568943,-4.4365177155,7.8958320618,-36.6019248962
        0.1750500202,        0.0633566380,-0.0497345850,-0.0614443943,-4.2991886139,7.9416084290,-36.6019248962
        0.1778681278,        0.0633566380,-0.0497345850,-0.0614443943,-4.2991886139,7.9416084290,-36.6629600525
        0.1804351807,        0.0633566380,-0.0497345850,-0.0614443943,-4.3602237701,8.0636787415,-36.6629600525
        0.1830010414,        0.0633566380,-0.0497345850,-0.0614443943,-4.3602237701,8.0636787415,-36.6629600525
        0.1855630875,        0.0653097630,-0.0482697412,-0.0731631443,-4.5280704498,7.9721260071,-36.6477012634
        0.1882090569,        0.0653097630,-0.0482697412,-0.0731631443,-4.5280704498,7.9721260071,-36.6477012634
        0.1909110546,        0.0653097630,-0.0482697412,-0.0731631443,-4.8179874420,7.9416084290,-36.6171836853
        0.1936080456,        0.0653097630,-0.0482697412,-0.0731631443,-4.8179874420,7.9416084290,-36.6171836853
        0.1963040829,        0.0584738255,-0.0507111475,-0.0614443943,-4.7874698639,8.1552314758,-36.7545127869
        0.1991221905,        0.0584738255,-0.0507111475,-0.0614443943,-4.7874698639,8.1552314758,-36.7545127869
        0.2017881870,        0.0584738255,-0.0507111475,-0.0614443943,-5.0468692780,8.0789375305,-36.7850303650
        0.2045559883,        0.0584738255,-0.0507111475,-0.0716983005,-5.0468692780,8.0789375305,-36.7850303650
        0.2072620392,        0.0594503880,-0.0492463037,-0.0716983005,-4.5891056061,7.8195381165,-36.6171836853
        0.2099680901,        0.0594503880,-0.0492463037,-0.0716983005,-4.5891056061,7.8195381165,-36.6171836853
        0.2126669884,        0.0594503880,-0.0492463037,-0.0716983005,-4.6653995514,8.0179023743,-36.5561485291
        0.2153661251,        0.0584738255,-0.0507111475,-0.0580264255,-4.6653995514,8.0179023743,-36.5561485291
        0.2180640697,        0.0584738255,-0.0507111475,-0.0580264255,-4.7264347076,8.1857490540,-36.6629600525
        0.2207651138,        0.0584738255,-0.0507111475,-0.0580264255,-4.7264347076,8.1857490540,-36.6629600525
        0.2234680653,        0.0584738255,-0.0507111475,-0.0580264255,-4.5128116608,8.0026435852,-36.6019248962
        0.2261650562,        0.0604269505,-0.0526642725,-0.0682803318,-4.5128116608,8.0026435852,-36.6019248962
        0.2287859917,        0.0604269505,-0.0526642725,-0.0682803318,-4.4517765045,8.1247138977,-36.6934776306
        0.2313551903,        0.0604269505,-0.0526642725,-0.0682803318,-4.4517765045,8.1247138977,-36.6934776306
        0.2339169979,        0.0604269505,-0.0526642725,-0.0682803318,-4.4212589264,7.8805732727,-36.4645957947
        0.2364790440,        0.0565207005,-0.0472931787,-0.0677920505,-4.4212589264,7.8805732727,-36.4645957947
        0.2390961647,        0.0565207005,-0.0472931787,-0.0677920505,-4.3602237701,7.7890205383,-36.6324424744
        0.2417609692,        0.0565207005,-0.0472931787,-0.0677920505,-4.3602237701,7.7890205383,-36.6324424744
        0.2443351746,        0.0565207005,-0.0472931787,-0.0677920505,-4.6653995514,7.8347969055,-36.8765830994
        0.2469031811,        0.0633566380,-0.0424103662,-0.0692568943,-4.6653995514,7.8347969055,-36.8765830994
        0.2495679855,        0.0633566380,-0.0424103662,-0.0692568943,-4.3144474030,7.7279853821,-36.6324424744
        0.2521390915,        0.0633566380,-0.0424103662,-0.0692568943,-4.3144474030,7.7279853821,-36.6324424744
        0.2547039986,        0.0633566380,-0.0424103662,-0.0692568943,-4.1923770905,7.6822090149,-36.5103721619
        0.2573711872,        0.0633566380,-0.0502228662,-0.0663272068,-4.1923770905,7.6822090149,-36.5103721619
        0.2600691319,        0.0633566380,-0.0502228662,-0.0663272068,-4.2991886139,7.8500556946,-36.9223594666
        0.2627611160,        0.0633566380,-0.0502228662,-0.0663272068,-4.2991886139,7.8500556946,-36.9223594666
        0.2654621601,        0.0633566380,-0.0414338037,-0.0741397068,-4.2991886139,8.1399726868,-36.6477012634
        0.2681710720,        0.0653097630,-0.0414338037,-0.0741397068,-4.2991886139,8.1399726868,-36.6477012634
        0.2708680630,        0.0653097630,-0.0414338037,-0.0741397068,-8.2054386139,8.3535957336,-36.7850303650
        0.2735750675,        0.0653097630,-0.0414338037,-0.0741397068,-4.8942813873,8.3535957336,-36.7850303650
        0.2762730122,        0.0653097630,-0.0497345850,-0.0624209568,-4.8942813873,7.9416084290,-36.9071006775
        0.2789089680,        0.0653097630,-0.0497345850,-0.0624209568,-4.4822940826,7.9416084290,-36.9071006775
        0.2814760208,        0.0653097630,-0.0497345850,-0.0624209568,-4.4822940826,11.8478584290,-36.4951133728
        0.2840390205,        0.0653097630,-0.0497345850,-0.0624209568,-4.6196231842,8.0941963196,-36.4951133728
        0.2866151333,        0.0648214817,-0.0472931787,-0.0614443943,-4.6196231842,8.0941963196,-36.7087364197
        0.2892889977,        0.0648214817,-0.0472931787,-0.0614443943,-4.8637638092,8.2315254211,-36.7087364197
        0.2919840813,        0.0648214817,-0.0472931787,-0.0614443943,-4.8637638092,8.2315254211,-36.8613243103
        0.2948241234,        0.0648214817,-0.0472931787,-0.0614443943,-4.2534122467,8.4146308899,-36.8613243103
        0.2974569798,        0.0653097630,-0.0526642725,-0.0663272068,-4.2534122467,8.4146308899,-36.4188194275
        0.3001329899,        0.0653097630,-0.0526642725,-0.0663272068,-4.1466007233,7.8042793274,-36.4188194275
        0.3029000759,        0.0653097630,-0.0526642725,-0.0663272068,-4.1466007233,7.8042793274,-36.3577842712
        0.3056671619,        0.0653097630,-0.0526642725,-0.0741397068,-3.8109073639,7.7890205383,-36.3577842712
        0.3088121414,        0.0667746067,-0.0453400537,-0.0741397068,-3.8109073639,8.0941963196,-36.1594200134
        0.3115131855,        0.0667746067,-0.0453400537,-0.0741397068,-4.2381534576,8.0941963196,-36.1594200134
        0.3142139912,        0.0667746067,-0.0453400537,-0.0741397068,-4.2381534576,7.9416084290,-36.5256309509
        0.3169059753,        0.0687277317,-0.0458283350,-0.0648623630,-4.3449649811,7.9416084290,-36.5256309509
        0.3196191788,        0.0687277317,-0.0458283350,-0.0648623630,-4.3449649811,7.8500556946,-36.6477012634
        0.3223230839,        0.0687277317,-0.0458283350,-0.0648623630,-4.1313419342,7.8500556946,-36.6477012634
        0.3250250816,        0.0687277317,-0.0458283350,-0.0648623630,-4.1313419342,8.0331611633,-36.5561485291
        0.3277151585,        0.0623800755,-0.0492463037,-0.0702334568,-4.3144474030,8.0331611633,-36.5561485291
        0.3302831650,        0.0623800755,-0.0492463037,-0.0702334568,-4.3144474030,8.0331611633,-36.6629600525
        0.3328490257,        0.0623800755,-0.0492463037,-0.0702334568,-4.5585880280,8.0941963196,-36.6629600525
        0.3354151249,        0.0623800755,-0.0492463037,-0.0702334568,-4.5585880280,8.0941963196,-36.6629600525
        0.3379909992,        0.0599386692,-0.0507111475,-0.0775576755,-4.9095401764,7.8653144836,-36.4493370056
        0.3405590057,        0.0599386692,-0.0507111475,-0.0775576755,-4.9095401764,7.8653144836,-36.4493370056
        0.3431291580,        0.0599386692,-0.0507111475,-0.0775576755,-5.3978214264,8.1552314758,-36.6171836853
        0.3456981182,        0.0599386692,-0.0507111475,-0.0746279880,-5.3978214264,8.1552314758,-36.6171836853
        0.3483071327,        0.0589621067,-0.0497345850,-0.0746279880,-5.0316104889,8.1857490540,-36.5103721619
        0.3508780003,        0.0589621067,-0.0497345850,-0.0746279880,-5.0316104889,8.1857490540,-36.5103721619
        0.3534471989,        0.0589621067,-0.0497345850,-0.0746279880,-5.4130802155,8.0789375305,-36.1594200134
        0.3560161591,        0.0589621067,-0.0497345850,-0.0756045505,-5.4130802155,8.0789375305,-36.1594200134
        0.3586761951,        0.0614035130,-0.0497345850,-0.0756045505,-5.2910099030,7.9873847961,-36.1289024353
        0.3612442017,        0.0614035130,-0.0497345850,-0.0756045505,-5.2910099030,7.9873847961,-36.1289024353
        0.3638119698,        0.0614035130,-0.0497345850,-0.0756045505,-5.7335147858,8.4451484680,-36.0983848572
        0.3663771152,        0.0614035130,-0.0448517725,-0.0765811130,-5.7335147858,8.4451484680,-36.0983848572
        0.3692681789,        0.0692160130,-0.0448517725,-0.0765811130,-5.8403263092,8.4298896790,-36.3883018494
        0.3719670773,        0.0692160130,-0.0448517725,-0.0765811130,-5.8403263092,8.4298896790,-36.3883018494
        0.3746640682,        0.0692160130,-0.0448517725,-0.0765811130,-6.3591251373,8.7198066711,-36.5561485291
        0.3773710728,        0.0633566380,-0.0443634912,-0.0594912693,-6.3591251373,8.7198066711,-36.5561485291
        0.3799340725,        0.0633566380,-0.0443634912,-0.0594912693,-5.9929141998,8.4909248352,-36.9223594666
        0.3824980259,        0.0633566380,-0.0443634912,-0.0594912693,-5.9929141998,8.4909248352,-36.9223594666
        0.3850641251,        0.0633566380,-0.0443634912,-0.0594912693,-5.9929141998,8.6282539368,-36.8002891541
        0.3876521587,        0.0618917942,-0.0404572412,-0.0702334568,-6.0539493561,8.6282539368,-36.8002891541
        0.3904380798,        0.0618917942,-0.0404572412,-0.0702334568,-6.0539493561,8.8418769836,-36.7697715759
        0.3930070400,        0.0618917942,-0.0404572412,-0.0702334568,-6.1607608795,8.8418769836,-36.7697715759
        0.3955740929,        0.0618917942,-0.0404572412,-0.0702334568,-6.1607608795,8.8418769836,-36.8002891541
        0.3982651234,        0.0731222630,-0.0380158350,-0.0638858005,-6.4201602936,8.6282539368,-36.8002891541
        0.4009311199,        0.0731222630,-0.0380158350,-0.0638858005,-6.4201602936,8.6282539368,-36.7087364197
        0.4046809673,        0.0731222630,-0.0380158350,-0.0638858005,-5.9929141998,8.5061836243,-36.7087364197
        0.4073021412,        0.0765402317,-0.0350861475,-0.0790225193,-6.3286075592,8.1552314758,-36.6934776306
        0.4098601341,        0.0765402317,-0.0350861475,-0.0790225193,-6.3286075592,8.1552314758,-36.6934776306
        0.4124190807,        0.0765402317,-0.0350861475,-0.0790225193,-6.3286075592,7.9721260071,-36.8765830994
        0.4149761200,        0.0765402317,-0.0350861475,-0.0790225193,-6.9542179108,7.9721260071,-36.8765830994
        0.4175760746,        0.0882589817,-0.0385041162,-0.0887881443,-6.9542179108,11.8783760071,-36.5714073181
        0.4201350212,        0.0882589817,-0.0385041162,-0.0887881443,-7.1068058014,8.0026435852,-36.5714073181
        0.4226939678,        0.0882589817,-0.0385041162,-0.0887881443,-7.1068058014,8.0026435852,-36.6934776306
        0.4252560139,        0.0882589817,-0.0385041162,-0.0887881443,-8.0528507233,7.4533271790,-36.6934776306
        0.4278280735,        0.0682394505,-0.0468048975,-0.1058779880,-8.0528507233,7.4533271790,-40.5997276306
        0.4303879738,        0.0682394505,-0.0468048975,-0.1058779880,-8.9836368561,6.2784004211,-36.9986534119
        0.4329521656,        0.0682394505,-0.0468048975,-0.1058779880,-8.9836368561,6.2784004211,-36.9986534119
        0.4356250763,        0.0682394505,-0.0468048975,-0.1058779880,-10.3111515045,5.9732246399,-37.0139122009
        0.4381999969,        0.0521261692,-0.0502228662,-0.1102725193,-10.3111515045,5.9732246399,-37.0139122009
        0.4407720566,        0.0521261692,-0.0502228662,-0.1102725193,-12.3558292389,5.7748603821,-36.6171836853
        0.4433321953,        0.0521261692,-0.0502228662,-0.1102725193,-12.3558292389,5.7748603821,-36.6171836853
        0.4458901882,        0.0521261692,-0.0502228662,-0.1102725193,-14.2326602936,5.8969306946,-36.2204551697
        0.4486250877,        0.0399191380,-0.0570588037,-0.0922061130,-14.2326602936,5.8969306946,-36.2204551697
        0.4511890411,        0.0399191380,-0.0570588037,-0.0922061130,-15.4686222076,5.9884834290,-36.5408897400
        0.4537661076,        0.0399191380,-0.0570588037,-0.0922061130,-15.4686222076,5.9884834290,-36.5408897400
        0.4563381672,        0.0399191380,-0.0570588037,-0.0922061130,-15.1329288483,6.6446113586,-36.0068321228
        0.4590840340,        0.0472433567,-0.0468048975,-0.0756045505,-15.1329288483,6.6446113586,-36.0068321228
        0.4617919922,        0.0472433567,-0.0468048975,-0.0756045505,-14.5988712311,7.0413398743,-35.9610557556
        0.4644939899,        0.0472433567,-0.0468048975,-0.0756045505,-14.5988712311,7.0413398743,-35.9610557556
        0.4671971798,        0.0472433567,-0.0468048975,-0.0482608005,-13.9427433014,7.3617744446,-36.2357139587
        0.4699351788,        0.0584738255,-0.0331330225,-0.0482608005,-13.9427433014,7.3617744446,-36.2357139587
        0.4726350307,        0.0584738255,-0.0331330225,-0.0482608005,-13.1950626373,7.3922920227,-36.1746788025
        0.4753351212,        0.0584738255,-0.0331330225,-0.0482608005,-13.1950626373,7.3922920227,-36.1746788025
        0.4780211449,        0.0570089817,-0.0468048975,-0.0326358005,-11.5165958405,7.1939277649,-36.4035606384
        0.4805841446,        0.0570089817,-0.0468048975,-0.0326358005,-11.5165958405,7.1939277649,-36.4035606384
        0.4831490517,        0.0570089817,-0.0468048975,-0.0326358005,-11.5165958405,7.4685859680,-36.7087364197
        0.4857180119,        0.0570089817,-0.0468048975,-0.0326358005,-9.6702823639,7.4685859680,-36.7087364197
        0.4883790016,        0.0716574192,-0.0389923975,-0.0179873630,-9.6702823639,8.2315254211,-37.0444297791
        0.4910821915,        0.0716574192,-0.0389923975,-0.0179873630,-8.5869083405,8.2315254211,-37.0444297791
        0.4939241409,        0.0716574192,-0.0389923975,-0.0179873630,-8.5869083405,9.2080879211,-37.4869346619
        0.4964911938,        0.0716574192,-0.0389923975,-0.0179873630,-6.2523136139,9.2080879211,-37.4869346619
        0.4994001389,        0.0594503880,0.0113005713,-0.0399600193,-2.3460636139,9.6811103821,-38.3414268494
        0.5020601749,        0.0594503880,0.0113005713,-0.0399600193,-2.9411563873,9.6811103821,-38.3414268494
        0.5048751831,        0.0594503880,0.0113005713,-0.0399600193,0.9650936127,10.3219795227,-39.2874717712
        0.5075161457,        0.0594503880,0.0113005713,-0.0507022068,0.8887996674,10.3219795227,-39.2874717712
        0.5100820065,        0.0448019505,0.0254607275,-0.0507022068,0.8887996674,10.3219795227,-40.1724815369
        0.5126390457,        0.0448019505,0.0254607275,-0.0507022068,4.9018611908,10.2914619446,-40.1724815369
        0.5151941776,        0.0448019505,0.0254607275,-0.0507022068,4.9018611908,10.2914619446,-41.3168907166
        0.5177671909,        0.0448019505,-0.0995392725,-0.0555850193,7.7857723236,10.3067207336,-41.3168907166
        0.5203280449,        0.0726339817,-0.0028595850,-0.0555850193,7.7857723236,10.3067207336,-41.3168907166
        0.5228919983,        0.0726339817,-0.0028595850,-0.0555850193,9.9220027924,10.4898262024,-42.2781944275
        0.5254590511,        0.0726339817,-0.0028595850,-0.0555850193,9.9220027924,10.4898262024,-42.2781944275
        0.5280270576,        0.0726339817,-0.0253205225,-0.0687686130,11.1121883392,10.3830146790,-42.8427696228
        0.5306000710,        0.0609152317,-0.0253205225,-0.0687686130,11.1121883392,10.3830146790,-42.8427696228
        0.5331640244,        0.0609152317,-0.0253205225,-0.0687686130,12.2108211517,10.9781074524,-42.9495811462
        0.5357260704,        0.0609152317,-0.0253205225,-0.0687686130,12.2108211517,10.9781074524,-42.9495811462
        0.5383391380,        0.0609152317,-0.0360627100,-0.0707217380,11.4326229095,10.9323310852,-42.6291465759
        0.5408999920,        0.0516378880,-0.0360627100,-0.0707217380,11.4326229095,10.9323310852,-42.6291465759
        0.5434641838,        0.0516378880,-0.0360627100,-0.0707217380,9.8914852142,11.1459541321,-42.7054405212
        0.5460371971,        0.0516378880,-0.0360627100,-0.0707217380,9.8914852142,11.1459541321,-42.7054405212
        0.5486571789,        0.0628683567,-0.0770783350,-0.0795108005,8.2587947845,10.8255195618,-42.5528526306
        0.5512351990,        0.0628683567,-0.0770783350,-0.0795108005,8.2587947845,10.8255195618,-42.5528526306
        0.5538029671,        0.0628683567,-0.0770783350,-0.0795108005,8.2587947845,10.7187080383,-41.8204307556
        0.5563671589,        0.0628683567,-0.0770783350,-0.0795108005,6.4582576752,10.7187080383,-41.8204307556
        0.5591130257,        0.0570089817,-0.0912384912,-0.0594912693,6.4582576752,11.1764717102,-40.9201622009
        0.5619201660,        0.0570089817,-0.0912384912,-0.0594912693,5.2375545502,11.1764717102,-40.9201622009
        0.5646181107,        0.0570089817,-0.0912384912,-0.0594912693,5.2375545502,11.5426826477,-40.4623985291
        0.5673301220,        0.0570089817,-0.0912384912,-0.0594912693,4.6272029877,11.5426826477,-40.4623985291
        0.5700271130,        0.0550558567,-0.0985627100,-0.0721865818,4.6272029877,11.5884590149,-39.9130821228
        0.5727300644,        0.0550558567,-0.0985627100,-0.0721865818,4.3678035736,11.5884590149,-39.9130821228
        0.5754270554,        0.0550558567,-0.0985627100,-0.0721865818,4.3678035736,10.9475898743,-39.3790245056
        0.5781030655,        0.0550558567,-0.0985627100,-0.0756045505,2.8571834564,10.9475898743,-39.3790245056
        0.5806770325,        0.0545675755,-0.1151642725,-0.0756045505,2.8571834564,10.9475898743,-38.5092735291
        0.5832421780,        0.0545675755,-0.1151642725,-0.0756045505,1.3007869720,11.1306953430,-38.5092735291
        0.5858070850,        0.0545675755,-0.1151642725,-0.0756045505,1.3007869720,11.1306953430,-37.1970176697
        0.5884830952,        0.0545675755,0.0098357275,-0.0643740818,-0.9575138092,11.7715644836,-37.1970176697
        0.5911791325,        0.0570089817,-0.1019806787,-0.0643740818,-0.9575138092,11.7715644836,-33.2907676697
        0.5938761234,        0.0570089817,-0.1019806787,-0.0643740818,-3.1242618561,12.1377754211,-36.0831260681
        0.5965709686,        0.0570089817,-0.1019806787,-0.0643740818,-3.1242618561,12.1377754211,-36.0831260681
        0.5992710590,        0.0589621067,-0.0970978662,-0.0497256443,-3.6278018951,12.1225166321,-35.6558799744
        0.6019721031,        0.0589621067,-0.0970978662,-0.0497256443,-3.6278018951,12.1225166321,-35.6558799744
        0.6046631336,        0.0589621067,-0.0970978662,-0.0497256443,-4.2991886139,12.4582099915,-35.4727745056
        0.6073691845,        0.0589621067,-0.0970978662,-0.0497256443,-4.2991886139,12.4582099915,-35.4727745056
        0.6100761890,        0.0555441380,-0.0638947412,-0.0370303318,-4.6043643951,13.3584785461,-34.9844932556
        0.6127700806,        0.0555441380,-0.0638947412,-0.0370303318,-4.6043643951,13.3584785461,-34.3741416931
        0.6156821251,        0.0555441380,-0.0638947412,-0.0370303318,-4.6196231842,13.8315010071,-34.3741416931
        0.6187131405,        0.0555441380,-0.0638947412,-0.0516787693,-4.6196231842,13.8315010071,-34.0994834900
        0.6214141846,        0.0594503880,-0.0409455225,-0.0516787693,-3.7346134186,13.8620185852,-34.0994834900
        0.6241130829,        0.0594503880,-0.0409455225,-0.0516787693,-3.7346134186,13.8620185852,-34.2215538025
        0.6269199848,        0.0594503880,-0.0409455225,-0.0516787693,-2.8953800201,13.9688301086,-34.2215538025
        0.6295230389,        0.0604269505,-0.0424103662,-0.0433779880,-2.8953800201,13.9688301086,-34.4809532166
        0.6320891380,        0.0604269505,-0.0424103662,-0.0433779880,-2.5444278717,14.1977119446,-34.4809532166
        0.6346499920,        0.0604269505,-0.0424103662,-0.0433779880,-2.5444278717,14.1977119446,-34.4809532166
        0.6372630596,        0.0604269505,-0.0424103662,-0.0433779880,-1.8120059967,14.8233222961,-34.5267295837
        0.6399581432,        0.0609152317,-0.0365509912,-0.0502139255,-1.8120059967,14.8233222961,-34.5267295837
        0.6426601410,        0.0609152317,-0.0365509912,-0.0502139255,-0.9575138092,15.1284980774,-34.7250938416
        0.6453590393,        0.0609152317,-0.0365509912,-0.0502139255,-0.9575138092,15.1284980774,-34.7250938416
        0.6480221748,        0.0609152317,-0.0365509912,-0.0502139255,-0.1945743561,15.1132392883,-34.6793174744
        0.6505930424,        0.0560324192,-0.0370392725,-0.0721865818,-0.1945743561,15.1132392883,-34.6793174744
        0.6531560421,        0.0560324192,-0.0370392725,-0.0721865818,0.2631893158,15.1132392883,-34.5725059509
        0.6557250023,        0.0560324192,-0.0370392725,-0.0721865818,0.2631893158,15.1132392883,-34.5725059509
        0.6583340168,        0.0560324192,-0.0370392725,-0.0721865818,-0.0572452545,15.4641914368,-34.8013877869
        0.6608970165,        0.0614035130,-0.0389923975,-0.0726748630,-0.0572452545,15.4641914368,-34.8013877869
        0.6634681225,        0.0614035130,-0.0389923975,-0.0726748630,-0.4081974030,15.5404853821,-34.6793174744
        0.6660301685,        0.0614035130,-0.0389923975,-0.0726748630,-0.4081974030,15.5404853821,-34.6793174744
        0.6686420441,        0.0614035130,-0.0389923975,-0.0726748630,-0.7286319733,15.6015205383,-34.9234580994
        0.6712141037,        0.0623800755,-0.0375275537,-0.0843936130,-0.7286319733,15.6015205383,-34.9234580994
        0.6737790108,        0.0623800755,-0.0375275537,-0.0843936130,-1.3389835358,15.8151435852,-34.8624229431
        0.6763441563,        0.0623800755,-0.0375275537,-0.0843936130,-1.3389835358,15.8151435852,-34.8624229431
        0.6791200638,        0.0623800755,-0.0375275537,-0.0858584568,-1.3389835358,16.2271308899,-35.1675987244
        0.6818091869,        0.0565207005,-0.0428986475,-0.0858584568,-3.0479679108,16.2271308899,-35.1675987244
        0.6845090389,        0.0565207005,-0.0428986475,-0.0858584568,-3.0479679108,16.7001533508,-34.9081993103
        0.6872000694,        0.0565207005,-0.0428986475,-0.0858584568,-3.9177188873,16.7001533508,-34.9081993103
        0.6900491714,        0.0565207005,-0.0448517725,-0.0824404880,-4.3449649811,16.9900703430,-34.4504356384
        0.6927549839,        0.0565207005,-0.0448517725,-0.0824404880,-4.3449649811,16.9900703430,-34.4504356384
        0.6954481602,        0.0565207005,-0.0448517725,-0.0824404880,-5.1536808014,17.4936103821,-34.2368125916
        0.6982891560,        0.0565207005,-0.0448517725,-0.0824404880,-5.1536808014,17.4936103821,-34.2368125916
        0.7009501457,        0.0609152317,-0.0487580225,-0.0716983005,-4.9400577545,17.9361152649,-33.9774131775
        0.7038600445,        0.0609152317,-0.0487580225,-0.0716983005,-4.9400577545,17.9361152649,-33.9774131775
        0.7064390182,        0.0609152317,-0.0487580225,-0.0716983005,-4.4975528717,17.6614570618,-32.9550743103
        0.7090811729,        0.0609152317,-0.0487580225,-0.0716983005,-4.4975528717,17.6614570618,-32.9550743103
        0.7116420269,        0.0584738255,-0.0560822412,-0.0843936130,-4.4975528717,17.4478340149,-32.5736045837
        0.7142050266,        0.0584738255,-0.0560822412,-0.0843936130,-3.9329776764,17.4478340149,-32.5736045837
        0.7167670727,        0.0584738255,-0.0560822412,-0.0843936130,-3.9329776764,17.4478340149,-31.9937705994
        0.7193381786,        0.0584738255,-0.0560822412,-0.0843936130,-3.0174503326,17.4783515930,-31.9937705994
        0.7218990326,        0.0609152317,-0.0595002100,-0.0814639255,-3.0174503326,17.4783515930,-31.9937705994
        0.7244570255,        0.0609152317,-0.0595002100,-0.0814639255,-2.2545108795,17.8293037415,-31.1240196228
        0.7270200253,        0.0609152317,-0.0595002100,-0.0814639255,-2.2545108795,17.8293037415,-31.1240196228
        0.7296290398,        0.0609152317,-0.0595002100,-0.0726748630,-1.6746768951,18.0581855774,-30.0711631775
        0.7321891785,        0.0555441380,-0.0721955225,-0.0726748630,-1.6746768951,18.0581855774,-30.0711631775
        0.7347581387,        0.0555441380,-0.0721955225,-0.0726748630,-1.4000186920,18.0581855774,-29.3387413025
        0.7373220921,        0.0555441380,-0.0721955225,-0.0726748630,-1.4000186920,18.0581855774,-29.3387413025
        0.7398979664,        0.0555441380,-0.0721955225,-0.0673037693,-1.7509708405,17.9971504211,-28.6826133728
        0.7424709797,        0.0555441380,-0.0809845850,-0.0673037693,-1.7509708405,17.9971504211,-28.6826133728
        0.7450451851,        0.0555441380,-0.0809845850,-0.0673037693,-1.5526065826,18.2870674133,-27.5992393494
        0.7476880550,        0.0555441380,-0.0809845850,-0.0673037693,-1.5526065826,18.2870674133,-27.5992393494
        0.7502610683,        0.0555441380,-0.0848908350,-0.0751162693,-1.9188175201,18.8821601868,-26.3327598572
        0.7529430389,        0.0491964817,-0.0848908350,-0.0751162693,-1.9188175201,18.8821601868,-26.3327598572
        0.7555201054,        0.0491964817,-0.0848908350,-0.0751162693,-1.9188175201,18.9431953430,-24.8831748962
        0.7582759857,        0.0491964817,-0.0848908350,-0.0751162693,-1.9188175201,18.9431953430,-24.8831748962
        0.7609779835,        0.0413839817,-0.0829377100,-0.0731631443,-1.6899356842,19.0957832336,-23.3725547791
        0.7636811733,        0.0413839817,-0.0829377100,-0.0731631443,-1.6899356842,19.0957832336,-23.3725547791
        0.7663850784,        0.0413839817,-0.0829377100,-0.0731631443,-2.6207218170,19.5382881165,-22.2586631775
        0.7690491676,        0.0413839817,-0.0829377100,-0.0731631443,-2.6207218170,19.5382881165,-22.2586631775
        0.7716159821,        0.0521261692,-0.0922150537,-0.0668154880,-2.6207218170,20.1486396790,-20.8090782166
        0.7741870880,        0.0521261692,-0.0922150537,-0.0668154880,-3.0327091217,20.1486396790,-20.8090782166
        0.7767601013,        0.0521261692,-0.0922150537,-0.0668154880,-3.0327091217,20.1333808899,-18.8406944275
        0.7794921398,        0.0521261692,-0.0922150537,-0.0668154880,-2.6054630280,20.1333808899,-18.8406944275
        0.7821941376,        0.0521261692,-0.0873322412,-0.0843936130,-2.6054630280,20.1333808899,-17.0554161072
        0.7849011421,        0.0521261692,-0.0873322412,-0.0843936130,-2.8343448639,20.2249336243,-17.0554161072
        0.7876169682,        0.0521261692,-0.0873322412,-0.0843936130,-2.8343448639,20.2249336243,-15.6668663025
        0.7903280258,        0.0521261692,-0.0873322412,-0.0795108005,-2.9869327545,20.4232978821,-15.6668663025
        0.7930321693,        0.0487082005,-0.0922150537,-0.0795108005,-2.9869327545,20.4232978821,-13.8968467712
        0.7957351208,        0.0487082005,-0.0922150537,-0.0795108005,-3.3378849030,20.0876045227,-13.8968467712
        0.7984530926,        0.0487082005,-0.0922150537,-0.0795108005,-3.3378849030,20.0876045227,-12.2031211853
        0.8011519909,        0.0457785130,-0.1014923975,-0.0829287693,-3.2158145905,20.8658027649,-12.2031211853
        0.8038551807,        0.0457785130,-0.1014923975,-0.0829287693,-3.2158145905,20.8658027649,-10.0211143494
        0.8065581322,        0.0457785130,-0.1014923975,-0.0829287693,-2.8190860748,21.0946846008,-10.0211143494
        0.8092770576,        0.0457785130,-0.1014923975,-0.0829287693,-2.8190860748,21.0946846008,-7.3660850525
        0.8119750023,        0.0389425755,-0.0931916162,-0.0941592380,-3.0479679108,21.1252021790,-7.3660850525
        0.8147590160,        0.0389425755,-0.0931916162,-0.0941592380,-3.0479679108,21.1252021790,-4.9399375916
        0.8180150986,        0.0389425755,-0.0931916162,-0.0941592380,-3.7346134186,21.3235664368,-4.9399375916
        0.8205950260,        0.0389425755,-0.0931916162,-0.1000186130,-3.7346134186,21.1099433899,-1.8729209900
        0.8231661320,        0.0272238255,-0.0966095850,-0.1000186130,-3.1090030670,21.1099433899,-1.8729209900
        0.8257410526,        0.0272238255,-0.0966095850,-0.1000186130,-3.1090030670,21.1099433899,0.9499549866
        0.8284001350,        0.0272238255,-0.0966095850,-0.1000186130,-2.4376163483,21.0641670227,0.9499549866
        0.8310999870,        0.0272238255,-0.1029572412,-0.1019717380,-2.4376163483,21.0641670227,3.4676551819
        0.8338041306,        0.0203878880,-0.1029572412,-0.1019717380,-2.4986515045,21.1404609680,3.4676551819
        0.8365080357,        0.0203878880,-0.1029572412,-0.1019717380,-2.4986515045,21.1404609680,6.5957069397
        0.8392250538,        0.0203878880,-0.1029572412,-0.1019717380,-2.0408878326,21.1252021790,6.5957069397
        0.8419291973,        0.0282003880,-0.1224884912,-0.1058779880,-2.0408878326,21.1252021790,9.9221229553
        0.8446321487,        0.0282003880,-0.1224884912,-0.1058779880,-2.4528751373,21.2472724915,9.9221229553
        0.8473479748,        0.0282003880,-0.1224884912,-0.1058779880,-2.4528751373,21.2472724915,13.8436317444
        0.8499209881,        0.0282003880,-0.1224884912,-0.1058779880,-2.3460636139,21.2472724915,13.8436317444
        0.8524961472,        0.0360128880,-0.1259064674,-0.1083193943,-2.3460636139,21.2472724915,17.7498817444
        0.8550729752,        0.0360128880,-0.1259064674,-0.1083193943,-2.2697696686,21.3388252258,17.6430702209
        0.8576521873,        0.0360128880,-0.1259064674,-0.1083193943,-2.2697696686,21.3388252258,17.6430702209
        0.8602252007,        0.0360128880,-0.1259064674,-0.1083193943,-2.8953800201,20.7742500305,21.4272499084
        0.8627991676,        0.0179464817,-0.1254181862,-0.0956240818,-2.8953800201,20.7742500305,21.4272499084
        0.8653771877,        0.0179464817,-0.1254181862,-0.0956240818,-3.7346134186,20.3775215149,24.8147010803
        0.8680760860,        0.0179464817,-0.1254181862,-0.0956240818,-3.7346134186,20.3775215149,24.8147010803
        0.8706541061,        0.0179464817,-0.1254181862,-0.0956240818,-3.9634952545,20.7284736633,29.2092323303
        0.8732221127,        0.0032980442,-0.1361603737,-0.0980654880,-3.9634952545,20.7284736633,29.2092323303
        0.8757979870,        0.0032980442,-0.1361603737,-0.0980654880,-4.8179874420,21.0336494446,33.9699745178
        0.8785171509,        0.0032980442,-0.1361603737,-0.0980654880,-4.8179874420,21.0336494446,33.9699745178
        0.8813350201,        0.0032980442,-0.1361603737,-0.0770693943,-5.8403263092,20.8810615540,37.9677772522
        0.8840410709,       -0.0069558620,-0.1410431862,-0.0770693943,-5.8403263092,20.8810615540,37.9677772522
        0.8867449760,       -0.0069558620,-0.1410431862,-0.0770693943,-7.9460391998,20.3012275696,42.0723915100
        0.8894610405,       -0.0069558620,-0.1410431862,-0.0770693943,-7.9460391998,20.3012275696,42.0723915100
        0.8921670914,       -0.0318582058,-0.1517853737,-0.0653506443,-9.7465763092,19.2483711243,46.5279579163
        0.8948659897,       -0.0318582058,-0.1517853737,-0.0653506443,-9.7465763092,19.2483711243,46.5279579163
        0.8975851536,       -0.0318582058,-0.1517853737,-0.0653506443,-11.6539249420,18.0734443665,51.0293006897
        0.9002909660,       -0.0318582058,-0.1517853737,-0.0653506443,-11.6539249420,18.0734443665,51.0293006897
        0.9030370712,       -0.0596902370,-0.1303009987,-0.0438662693,-14.1563663483,16.6086006165,55.2254676819
        0.9056050777,       -0.0596902370,-0.1303009987,-0.0438662693,-14.1563663483,16.6086006165,55.2254676819
        0.9082710743,       -0.0596902370,-0.1303009987,-0.0438662693,-16.0637149811,14.7470283508,59.6962928772
        0.9108521938,       -0.0596902370,-0.1303009987,-0.0438662693,-16.0637149811,14.7470283508,59.6962928772
        0.9139909744,       -0.1109597683,-0.0736603662,-0.0248233005,-15.6975040436,13.1448554993,63.1295204163
        0.9165689945,       -0.1109597683,-0.0736603662,-0.0248233005,-15.6975040436,13.1448554993,63.1295204163
        0.9192399979,       -0.1109597683,-0.0736603662,-0.0248233005,-13.1798038483,11.4053535461,66.2270507812
        0.9218060970,       -0.1109597683,0.0513396338,0.0274227932,-13.1798038483,11.4053535461,66.2270507812
        0.9243800640,       -0.1827371120,0.0283904150,0.0274227932,-10.7689151764,9.7879219055,69.6145019531
        0.9269402027,       -0.1827371120,0.0283904150,0.0274227932,-10.7689151764,9.7879219055,69.6145019531
        0.9295179844,       -0.1827371120,0.0283904150,0.0274227932,-6.8626651764,9.2233467102,71.7965087891
        0.9320871830,       -0.1827371120,0.0362029150,0.1407040358,-6.9237003326,9.2233467102,71.7965087891
        0.9346520901,       -0.2862527370,0.0362029150,0.1407040358,-6.9237003326,9.2233467102,71.5981445312
        0.9372591972,       -0.2862527370,0.0362029150,0.1407040358,3.9100399017,10.3219795227,71.5981445312
        0.9398300648,       -0.2862527370,0.0362029150,0.1407040358,3.9100399017,10.3219795227,71.7812500000
        0.9423930645,       -0.4112527370,-0.0609650537,0.1324032545,16.2086238861,11.5884590149,71.7812500000
        0.9450781345,       -0.3341042995,-0.0609650537,0.1324032545,16.2086238861,11.5884590149,71.7812500000
        0.9476480484,       -0.3341042995,-0.0609650537,0.1324032545,22.8309383392,12.1835517883,72.3763427734
        0.9502191544,       -0.3341042995,-0.0609650537,0.1324032545,22.8309383392,12.1835517883,72.3763427734
        0.9527950287,       -0.2642800808,-0.1976838112,0.0913876370,24.5246639252,11.1306953430,71.9948730469
        0.9553651810,       -0.2642800808,-0.1976838112,0.0913876370,24.5246639252,11.1306953430,71.9948730469
        0.9580821991,       -0.2642800808,-0.1976838112,0.0913876370,20.2522029877,9.3148994446,70.3774414062
        0.9606580734,       -0.2642800808,-0.1976838112,0.0913876370,20.2522029877,9.3148994446,70.3774414062
        0.9632341862,       -0.1314675808,-0.3817658424,0.0679501370,10.2576961517,7.3617744446,67.3104248047
        0.9658141136,       -0.1314675808,-0.3817658424,0.0679501370,10.2576961517,7.3617744446,67.3104248047
        0.9685440063,       -0.1314675808,-0.3817658424,0.0679501370,-0.1335391998,3.9895820618,61.7104530334
        0.9711151123,       -0.1314675808,-0.3817658424,0.0679501370,-0.1335391998,3.9895820618,61.7104530334
        0.9736921787,        0.0042746067,-0.3304963112,0.0249813870,-6.7405948639,1.2277412415,54.3709754944
        0.9762620926,        0.0042746067,-0.3304963112,0.0249813870,-6.7405948639,1.2277412415,54.3709754944
        0.9789681435,        0.0042746067,-0.3304963112,0.0249813870,-8.9683780670,0.5410957336,46.7873573303
        0.9816701412,        0.0042746067,-0.3304963112,0.0249813870,-8.9683780670,0.5410957336,46.7873573303
        0.9843711853,        0.0042746067,-0.3202424049,0.0113095120,-10.6926212311,-0.9390068054,39.9514198303
        0.9870769978,        0.0042746067,-0.3202424049,0.0113095120,-10.6926212311,-0.9390068054,39.9514198303
        0.9897930622,        0.0042746067,-0.3202424049,0.0113095120,-16.6282901764,-3.3041191101,31.5896034241
        0.9925069809,        0.0042746067,-0.5702424049,0.0015438870,-16.6282901764,-3.3041191101,31.5896034241
        0.9952189922,        0.0526144505,-0.5609650612,0.0015438870,-25.1274356842,-6.2490653992,22.4343299866
        0.9979441166,        0.0526144505,-0.5609650612,0.0015438870,-25.1274356842,-6.2490653992,22.4343299866
        1.0006530285,        0.0526144505,-0.5609650612,0.0015438870,-35.6712570190,-8.9651298523,14.0419960022
        1.0035171509,        0.1004660130,-0.6053986549,-0.0565615818,-35.6712570190,-8.9651298523,14.0419960022
        1.0061001778,        0.1004660130,-0.6053986549,-0.0565615818,-45.3605880737,-10.1705741882,6.3057899475
        1.0090301037,        0.1004660130,-0.6053986549,-0.0565615818,-45.3605880737,-10.1705741882,6.3057899475
        1.0116991997,        0.1004660130,-0.6053986549,-0.0565615818,-53.6918869019,-11.5438652039,-2.5900840759
        1.0148870945,        0.1600363255,-0.5297150612,-0.0975772068,-53.6918869019,-11.5438652039,-2.5900840759
        1.0175449848,        0.1600363255,-0.5297150612,-0.0975772068,-60.2836837769,-12.8866386414,-12.5388145447
        1.0201210976,        0.1600363255,-0.5297150612,-0.0975772068,-60.2836837769,-12.8866386414,-12.5388145447
        1.0227000713,        0.1600363255,-0.5297150612,-0.1000186130,-64.0373458862,-13.6648368835,-24.3491172791
        1.0252711773,        0.1966574192,-0.5233674049,-0.1000186130,-64.0373458862,-13.6648368835,-24.3491172791
        1.0278551579,        0.1966574192,-0.5233674049,-0.1000186130,-67.9741134644,-14.5193290710,-37.0902061462
        1.0304269791,        0.1966574192,-0.5233674049,-0.1000186130,-67.9741134644,-14.5193290710,-37.0902061462
        1.0330011845,        0.1966574192,-0.5575470924,-0.0902529880,-71.7125167847,-14.9313163757,-49.9838829041
        1.0355720520,        0.2264425755,-0.5575470924,-0.0902529880,-71.7125167847,-14.9313163757,-49.9838829041
        1.0382440090,        0.2264425755,-0.5575470924,-0.0902529880,-71.7125167847,-13.8937187195,-62.9996299744
        1.0408160686,        0.2264425755,-0.5575470924,-0.0902529880,-75.2220382690,-13.8937187195,-62.9996299744
        1.0433940887,        0.2264425755,-0.5853791237,-0.0970889255,-75.2220382690,-13.8937187195,-75.3134765625
        1.0459661484,        0.2166769505,-0.5853791237,-0.0970889255,-78.8841476440,-12.6272392273,-75.3134765625
        1.0485410690,        0.2166769505,-0.5853791237,-0.0970889255,-78.8841476440,-12.6272392273,-87.3679199219
        1.0511121750,        0.2166769505,-0.5853791237,-0.0970889255,-83.5228195190,-10.9335136414,-87.3679199219
        1.0536801815,        0.1947042942,-0.5511994362,-0.0946475193,-83.5228195190,-10.9335136414,-87.3679199219
        1.0562570095,        0.1947042942,-0.5511994362,-0.0946475193,-86.9713058472,-9.6212577820,-99.1629638672
        1.0590090752,        0.1947042942,-0.5511994362,-0.0946475193,-86.9713058472,-9.6212577820,-99.1629638672
        1.0615921021,        0.1947042942,-0.5511994362,-0.0946475193,-88.6345138550,-9.0872001648,-110.4086914062
        1.0641741753,        0.1707785130,-0.4398713112,-0.0980654880,-88.6345138550,-9.0872001648,-110.4086914062
        1.0667560101,        0.1707785130,-0.4398713112,-0.0980654880,-87.3832931519,-8.1106376648,-120.2658691406
        1.0694541931,        0.1707785130,-0.4398713112,-0.0980654880,-87.3832931519,-8.1106376648,-120.2658691406
        1.0721311569,        0.1707785130,-0.4398713112,-0.0980654880,-82.2105636597,-5.9286308289,-129.2685546875
        1.0747141838,        0.1473410130,-0.2904572487,-0.0917178318,-82.2105636597,-5.9286308289,-129.2685546875
        1.0772809982,        0.1473410130,-0.2904572487,-0.0917178318,-73.4672775269,-2.2054862976,-138.4238281250
        1.0799880028,        0.1473410130,-0.2904572487,-0.0917178318,-73.4672775269,-2.2054862976,-138.4238281250
        1.0826990604,        0.1473410130,-0.2904572487,-0.0917178318,-63.3507003784,2.2958564758,-146.8771972656
        1.0854051113,        0.0765402317,-0.2743439674,-0.0756045505,-63.3507003784,2.2958564758,-146.8771972656
        1.0881509781,        0.0765402317,-0.2743439674,-0.0756045505,-53.8749923706,5.3781318665,-154.0488281250
        1.0908510685,        0.0765402317,-0.2743439674,-0.0756045505,-53.8749923706,5.3781318665,-154.0488281250
        1.0935561657,        0.0765402317,-0.2743439674,-0.0756045505,-47.6036300659,6.9650459290,-160.4880371094
        1.0962600708,        0.0330832005,-0.2509064674,-0.0756045505,-47.6036300659,6.9650459290,-160.4880371094
        1.0989761353,        0.0330832005,-0.2509064674,-0.0756045505,-43.3464279175,7.5296211243,-166.0117187500
        1.1016809940,        0.0330832005,-0.2509064674,-0.0756045505,-43.3464279175,7.5296211243,-166.0117187500
        1.1043870449,       -0.0064675808,-0.2128205299,-0.0624209568,-38.9671554565,8.7045478821,-170.7572021484
        1.1070940495,       -0.0064675808,-0.2128205299,-0.0624209568,-38.9671554565,8.7045478821,-170.7572021484
        1.1096870899,       -0.0064675808,-0.2128205299,-0.0624209568,-34.6031417847,10.3372383118,-175.7163085938
        1.1122601032,       -0.0064675808,-0.2128205299,-0.0624209568,-34.6031417847,10.3372383118,-175.7163085938
        1.1148431301,       -0.0347878933,-0.1786408424,-0.0570498630,-30.6358585358,12.2903633118,-180.2634277344
        1.1174609661,       -0.0347878933,-0.1786408424,-0.0570498630,-30.6358585358,12.2903633118,-180.2634277344
        1.1200301647,       -0.0347878933,-0.1786408424,-0.0570498630,-26.7296085358,13.3737373352,-183.9407958984
        1.1226031780,       -0.0347878933,-0.1786408424,-0.0570498630,-27.7519474030,13.3737373352,-183.9407958984
        1.1253521442,       -0.0430886745,-0.1698517799,-0.0580264255,-27.7519474030,13.7857246399,-186.9772949219
        1.1282269955,       -0.0430886745,-0.1698517799,-0.0580264255,-26.0582218170,13.7857246399,-186.9772949219
        1.1309289932,       -0.0430886745,-0.1698517799,-0.0580264255,-26.4854679108,12.8549385071,-189.8612060547
        1.1336271763,       -0.0430886745,-0.1698517799,-0.0570498630,-26.4854679108,12.8549385071,-189.8612060547
        1.1363341808,       -0.0572488308,-0.1703400612,-0.0570498630,-30.3917179108,11.7563056946,-191.6159667969
        1.1391592026,       -0.0572488308,-0.1703400612,-0.0570498630,-28.6979923248,11.7563056946,-191.6159667969
        1.1418659687,       -0.0572488308,-0.1703400612,-0.0570498630,-31.5208683014,10.7797431946,-193.6606445312
        1.1445770264,       -0.0767800808,-0.1493439674,-0.0673037693,-31.5208683014,10.7797431946,-193.6606445312
        1.1472890377,       -0.0767800808,-0.1493439674,-0.0673037693,-35.3660812378,9.5742988586,-194.4083251953
        1.1500010490,       -0.0767800808,-0.1493439674,-0.0673037693,-35.3660812378,9.5742988586,-194.4083251953
        1.1527061462,       -0.0767800808,-0.1493439674,-0.0673037693,-39.4706954956,8.7503242493,-194.9271240234
        1.1554331779,       -0.0943582058,-0.1371369362,-0.0697451755,-39.4706954956,8.7503242493,-194.9271240234
        1.1581192017,       -0.0943582058,-0.1371369362,-0.0697451755,-43.3769454956,8.0941963196,-194.8966064453
        1.1606941223,       -0.0943582058,-0.1371369362,-0.0697451755,-42.8734054565,8.0941963196,-194.8966064453
        1.1632680893,       -0.0943582058,-0.1371369362,-0.0697451755,-42.8734054565,4.1879463196,-195.2170410156
        1.1658430099,       -0.1114480495,-0.1361603737,-0.0604678318,-46.0167160034,6.9497871399,-195.2170410156
        1.1684269905,       -0.1114480495,-0.1361603737,-0.0604678318,-46.0167160034,6.9497871399,-195.6290283203
        1.1710021496,       -0.1114480495,-0.1361603737,-0.0604678318,-49.3889083862,6.3546943665,-195.6290283203
        1.1735761166,       -0.1114480495,-0.1361603737,-0.0604678318,-49.3889083862,6.3546943665,-195.6290283203
        1.1761519909,       -0.1119363308,-0.1224884912,-0.0511904880,-52.0744552612,6.0952949524,-195.5527343750
        1.1788680553,       -0.1119363308,-0.1224884912,-0.0511904880,-52.0744552612,6.0952949524,-195.5527343750
        1.1814441681,       -0.1119363308,-0.1224884912,-0.0511904880,-54.2412033081,5.7748603821,-195.6748046875
        1.1840209961,       -0.1119363308,-0.1224884912,-0.0511904880,-54.2412033081,5.7748603821,-195.6748046875
        1.1865940094,       -0.1143777370,-0.0975861475,-0.0487490818,-55.4008712769,6.2631416321,-194.7440185547
        1.1893620491,       -0.1143777370,-0.0975861475,-0.0487490818,-55.4008712769,6.2631416321,-194.7440185547
        1.1920690536,       -0.1143777370,-0.0975861475,-0.0487490818,-56.2248458862,6.7514228821,-193.6606445312
        1.1947731972,       -0.1143777370,-0.0551056787,-0.0536318943,-56.2248458862,6.7514228821,-193.6606445312
        1.1975240707,       -0.1187722683,-0.0551056787,-0.0536318943,-57.4760665894,7.4228096008,-191.6464843750
        1.2002329826,       -0.1187722683,-0.0551056787,-0.0536318943,-57.4760665894,7.4228096008,-191.6464843750
        1.2030451298,       -0.1187722683,-0.0551056787,-0.0536318943,-58.4678878784,8.1704902649,-188.8083496094
        1.2057530880,       -0.1260964870,-0.0184845850,-0.0463076755,-58.4678878784,8.1704902649,-188.8083496094
        1.2084641457,       -0.1260964870,-0.0184845850,-0.0463076755,-57.9643478394,9.0097236633,-185.5429687500
        1.2111690044,       -0.1260964870,-0.0184845850,-0.0463076755,-57.9643478394,9.0097236633,-185.5429687500
        1.2138772011,       -0.1260964870,-0.0184845850,-0.0463076755,-57.0183029175,9.4369697571,-182.3538818359
        1.2165811062,       -0.0958230495,0.0113005713,-0.0516787693,-57.0183029175,9.4369697571,-182.3538818359
        1.2191910744,       -0.0958230495,0.0113005713,-0.0516787693,-56.4995040894,9.7116279602,-178.3408203125
        1.2217640877,       -0.0958230495,0.0113005713,-0.0516787693,-56.4995040894,9.7116279602,-178.3408203125
        1.2243402004,       -0.0958230495,0.0113005713,-0.0516787693,-55.8586349487,10.3219795227,-174.7092285156
        1.2269120216,       -0.0850808620,-0.0013947412,-0.0380068943,-55.8586349487,10.3219795227,-174.7092285156
        1.2295591831,       -0.0850808620,-0.0013947412,-0.0380068943,-53.9360275269,10.9781074524,-171.4591064453
        1.2321300507,       -0.0850808620,-0.0013947412,-0.0380068943,-53.9360275269,10.9781074524,-171.4591064453
        1.2347080708,       -0.0850808620,-0.0013947412,-0.0477725193,-52.3491134644,11.1306953430,-168.1326904297
        1.2374091148,       -0.0699441433,-0.0214142725,-0.0477725193,-52.3491134644,11.1306953430,-168.1326904297
        1.2400841713,       -0.0699441433,-0.0214142725,-0.0477725193,-52.1812667847,10.8102607727,-164.5163574219
        1.2427701950,       -0.0699441433,-0.0214142725,-0.0477725193,-52.1812667847,10.8102607727,-164.5163574219
        1.2455000877,       -0.0699441433,-0.0253205225,-0.0394717380,-51.3572921753,11.3138008118,-161.2052001953
        1.2482261658,       -0.0494363308,-0.0253205225,-0.0394717380,-51.3572921753,11.3138008118,-161.2052001953
        1.2509291172,       -0.0494363308,-0.0253205225,-0.0394717380,-50.5790939331,11.2527656555,-157.7109375000
        1.2536361217,       -0.0494363308,-0.0253205225,-0.0394717380,-50.5790939331,11.2527656555,-157.7109375000
        1.2563450336,       -0.0318582058,0.0020232275,-0.0472842380,-49.6025314331,11.2680244446,-153.8504638672
        1.2590579987,       -0.0318582058,0.0020232275,-0.0472842380,-49.6025314331,11.2680244446,-153.8504638672
        1.2617661953,       -0.0318582058,0.0020232275,-0.0472842380,-48.9464035034,10.9018135071,-149.4711914062
        1.2644731998,       -0.0318582058,0.0020232275,-0.0472842380,-48.9464035034,10.9018135071,-149.4711914062
        1.2672901154,        0.0101339817,0.0313201025,-0.0609561130,-48.9006271362,10.3067207336,-144.6036376953
        1.2700049877,        0.0101339817,0.0313201025,-0.0609561130,-48.9006271362,10.3067207336,-144.6036376953
        1.2727110386,        0.0101339817,0.0313201025,-0.0609561130,-48.5038986206,10.1846504211,-139.7208251953
        1.2754590511,        0.0101339817,0.0435271338,-0.0658389255,-48.5038986206,10.1846504211,-139.7208251953
        1.2785201073,        0.0418722630,0.0435271338,-0.0658389255,-48.6564865112,10.0015449524,-134.9448242188
        1.2810971737,        0.0418722630,0.0435271338,-0.0658389255,-48.6564865112,10.0015449524,-134.9448242188
        1.2836751938,        0.0418722630,0.0435271338,-0.0658389255,-49.4194259644,9.5895576477,-129.8636474609
        1.2862491608,        0.0555441380,0.0601286963,-0.0531436130,-49.4194259644,9.5895576477,-129.8636474609
        1.2889530659,        0.0555441380,0.0601286963,-0.0531436130,-49.5109786987,8.8113594055,-124.9197998047
        1.2916631699,        0.0555441380,0.0601286963,-0.0531436130,-49.5109786987,8.8113594055,-124.9197998047
        1.2943661213,        0.0555441380,0.0601286963,-0.0531436130,-49.7093429565,7.7127265930,-119.7012939453
        1.2970731258,        0.0970480442,0.0825896338,-0.0502139255,-49.7093429565,7.7127265930,-119.7012939453
        1.2997891903,        0.0970480442,0.0825896338,-0.0502139255,-49.9992599487,6.7209053040,-114.4370117188
        1.3024899960,        0.0970480442,0.0825896338,-0.0502139255,-49.9992599487,6.7209053040,-114.4370117188
        1.3051941395,        0.0970480442,0.0825896338,-0.0502139255,-50.0755538940,5.1950263977,-109.4016113281
        1.3079459667,        0.1370871067,0.1206755713,-0.0428897068,-50.0755538940,5.1950263977,-109.4016113281
        1.3106491566,        0.1370871067,0.1206755713,-0.0428897068,-49.9992599487,3.6844062805,-103.7711181641
        1.3135111332,        0.1370871067,0.1206755713,-0.0428897068,-49.9992599487,3.6844062805,-103.7711181641
        1.3160841465,        0.1370871067,0.1743865013,-0.0424014255,-50.1213302612,2.0669746399,-97.4997558594
        1.3187260628,        0.1532003880,0.1743865013,-0.0424014255,-50.1213302612,2.0669746399,-97.4997558594
        1.3212900162,        0.1532003880,0.1743865013,-0.0424014255,-50.1213302612,1.4108467102,-91.6861572266
        1.3238620758,        0.1532003880,0.1743865013,-0.0424014255,-49.6940841675,1.4108467102,-91.6861572266
        1.3264341354,        0.1741964817,0.2212615013,-0.0326358005,-49.6940841675,-2.4954032898,-85.5826416016
        1.3290731907,        0.1741964817,0.2212615013,-0.0326358005,-48.5191574097,0.1138496399,-85.5826416016
        1.3317580223,        0.1741964817,0.2212615013,-0.0326358005,-48.5191574097,0.1138496399,-78.5788574219
        1.3343341351,        0.1741964817,0.2212615013,-0.0326358005,-47.1916427612,-1.1221122742,-78.5788574219
        1.3369050026,        0.1824972630,0.2818083763,-0.0336123630,-47.1916427612,-1.1221122742,-70.7663574219
        1.3394830227,        0.1824972630,0.2818083763,-0.0336123630,-45.7420578003,-2.3428153992,-71.7429199219
        1.3420560360,        0.1824972630,0.2818083763,-0.0336123630,-45.7420578003,-2.3428153992,-71.7429199219
        1.3446271420,        0.1824972630,0.2818083763,-0.0336123630,-43.5447921753,-3.0142021179,-64.8764648438
        1.3472030163,        0.1966574192,0.3042693138,-0.0145693943,-43.5447921753,-3.0142021179,-64.8764648438
        1.3498210907,        0.1966574192,0.3042693138,-0.0145693943,-41.1491622925,-3.0142021179,-58.5288047791
        1.3523991108,        0.1966574192,0.3042693138,-0.0145693943,-41.1491622925,-3.0142021179,-58.5288047791
        1.3549761772,        0.1966574192,0.3042693138,-0.0145693943,-38.6619796753,-3.5330009460,-51.8912315369
        1.3576991558,        0.2069113255,0.3316130638,0.0054501370,-38.6619796753,-3.5330009460,-51.8912315369
        1.3602840900,        0.2069113255,0.3316130638,0.0054501370,-35.6865158081,-4.4332695007,-45.4062461853
        1.3628580570,        0.2069113255,0.3316130638,0.0054501370,-35.6865158081,-4.4332695007,-45.4062461853
        1.3654291630,        0.2069113255,0.3316130638,0.0054501370,-33.5350265503,-5.6844902039,-38.0515098572
        1.3684420586,        0.2044699192,0.3530974388,0.0352352932,-33.5350265503,-5.6844902039,-30.2390098572
        1.3729631901,        0.2044699192,0.3530974388,0.0352352932,-32.0091476440,-7.9885673523,-30.9714317322
        1.3756752014,        0.2044699192,0.3530974388,0.0352352932,-28.1028995514,-10.4299736023,-23.2657432556
        1.3783991337,        0.2030050755,0.3809294701,0.0440243557,-29.0794620514,-10.4299736023,-23.2657432556
        1.3811061382,        0.2030050755,0.3809294701,0.0440243557,-25.1732120514,-12.7493095398,-15.2396202087
        1.3838109970,        0.2030050755,0.3809294701,0.0440243557,-26.0887393951,-12.7493095398,-15.2396202087
        1.3865191936,        0.2030050755,0.4180388451,0.0669735745,-22.1824893951,-14.4582939148,-7.2134971619
        1.3892431259,        0.1922628880,0.4180388451,0.0669735745,-23.1895694733,-14.4582939148,-7.2134971619
        1.3919479847,        0.1922628880,0.4180388451,0.0669735745,-23.1895694733,-16.7013359070,0.9194374084
        1.3946499825,        0.1922628880,0.4180388451,0.0669735745,-19.2680606842,-16.7013359070,0.9194374084
        1.3975770473,        0.1844503880,0.4404997826,0.0874813870,-15.3618106842,-18.9138603210,9.4033241272
        1.4002861977,        0.1844503880,0.4404997826,0.0874813870,-15.4381046295,-18.9138603210,9.4033241272
        1.4029991627,        0.1844503880,0.4404997826,0.0874813870,-11.5318546295,-20.7906913757,17.3836708069
        1.4057090282,        0.1844503880,0.4404997826,0.0874813870,-11.8217716217,-20.7906913757,17.3836708069
        1.4084281921,        0.1678488255,0.4546599388,0.0845516995,-11.8217716217,-22.8201103210,25.1809120178
        1.4111311436,        0.1678488255,0.4546599388,0.0845516995,-9.2125186920,-22.8201103210,25.1809120178
        1.4139080048,        0.1678488255,0.4546599388,0.0845516995,-5.3062686920,-23.7661552429,32.2762489319
        1.4166150093,        0.1678488255,0.4546599388,0.0967587307,-6.0997257233,-23.7661552429,32.2762489319
        1.4193930626,        0.1556417942,0.4868865013,0.0967587307,-2.4528751373,-25.8871269226,38.9901161194
        1.4220991135,        0.1556417942,0.4868865013,0.0967587307,-2.4528751373,-25.8871269226,38.9901161194
        1.4250390530,        0.1556417942,0.4868865013,0.0967587307,0.6141414642,-28.3132743835,43.7355995178
        1.4284579754,        0.1004660130,0.2071013451,0.1206845120,0.6141414642,-28.3132743835,43.7355995178
        1.4310290813,        0.1004660130,0.2071013451,0.1206845120,-4.0245304108,-29.0304374695,39.1579627991
        1.4335970879,        0.1004660130,0.2071013451,0.1206845120,-4.0245304108,-29.0304374695,39.1579627991
        1.4361619949,        0.1004660130,0.2071013451,0.1206845120,1.2092342377,-19.3411064148,33.3138465881
        1.4388551712,       -0.2271707058,-0.4393830299,-0.2157412767,1.2092342377,-19.3411064148,33.3138465881
        1.4414260387,       -0.2271707058,-0.4393830299,-0.2157412767,1.9721736908,-9.1024589539,29.7127723694
        1.4439940453,       -0.2271707058,-0.4393830299,-0.2157412767,1.9721736908,-9.1024589539,29.7127723694
        1.4465680122,       -0.2271707058,-0.4393830299,-0.3407412767,-9.7465763092,-4.2349052429,18.3907508850
        1.4491460323,       -0.1343972683,-1.2142853737,-0.3021670580,-9.9601993561,-4.2349052429,18.3907508850
        1.4517149925,       -0.1343972683,-1.2142853737,-0.3021670580,-9.9601993561,3.5775947571,5.9853553772
        1.4542820454,       -0.1343972683,-1.2142853737,-0.3021670580,-11.3334903717,2.2195625305,5.9853553772
        1.4568400383,       -0.1343972683,-1.2142853737,-0.5453311205,-11.3334903717,2.2195625305,7.9079627991
        1.4594500065,       -0.3311746120,-1.1571564674,-0.5453311205,-25.6920108795,5.3323554993,7.9079627991
        1.4621341228,       -0.3311746120,-1.1571564674,-0.5453311205,-25.6920108795,5.3323554993,19.6267127991
        1.4647021294,       -0.3311746120,-1.1571564674,-0.5453311205,-64.2051925659,3.8827705383,21.5188026428
        1.4672980309,       -0.3311746120,-0.4652619362,-0.2147647142,-64.2051925659,3.8827705383,21.5188026428
        1.4698641300,       -0.3458230495,-0.4652619362,-0.2147647142,-94.2039718628,2.5552558899,35.5263710022
        1.4724321365,       -0.3458230495,-0.4652619362,-0.2147647142,-94.2039718628,2.5552558899,35.5263710022
        1.4750061035,       -0.3458230495,-0.4652619362,-0.2147647142,-112.3008956909,-0.9847831726,52.0516395569
        1.4776921272,       -0.3458230495,0.1533904076,0.0157040432,-112.3008956909,-0.9847831726,52.0516395569
        1.4802651405,       -0.3360574245,0.1533904076,0.0157040432,-120.9678878784,-6.2795829773,63.7551307678
        1.4828400612,       -0.3360574245,0.1533904076,0.0157040432,-120.9678878784,-6.2795829773,63.7551307678
        1.4854130745,       -0.3360574245,0.1533904076,0.0157040432,-109.3101730347,-8.0953788757,70.5300292969
        1.4880771637,       -0.3946511745,0.3174529076,-0.1376162767,-109.3101730347,-8.0953788757,70.5300292969
        1.4906501770,       -0.3946511745,0.3174529076,-0.1376162767,-92.5102462769,-9.1482353210,75.3670654297
        1.4932270050,       -0.3946511745,0.3174529076,-0.1376162767,-92.5102462769,-9.1482353210,75.3670654297
        1.4958031178,       -0.3946511745,0.3174529076,-0.1376162767,-79.1435470581,-10.5215263367,75.7180175781
        1.4983839989,       -0.2496316433,0.2696013451,-0.2333194017,-79.1435470581,-10.5215263367,75.7180175781
        1.5009601116,       -0.2496316433,0.2696013451,-0.2333194017,-67.4247970581,-13.7106132507,71.9490966797
        1.5035290718,       -0.2496316433,0.2696013451,-0.2333194017,-68.9964523315,-13.7106132507,71.9490966797
        1.5060980320,       -0.2496316433,0.2696013451,-0.2333194017,-68.9964523315,-17.6168632507,67.1120605469
        1.5087981224,       -0.0035378933,0.2173552513,-0.1156436130,-63.2286300659,-17.1743583679,67.1120605469
        1.5115091801,       -0.0035378933,0.2173552513,-0.1156436130,-63.2286300659,-17.1743583679,62.3970985413
        1.5142190456,       -0.0035378933,0.2173552513,-0.1156436130,-55.9807052612,-18.9291191101,62.3970985413
        1.5169911385,       -0.0035378933,0.2173552513,-0.1156436130,-55.9807052612,-19.9819755554,57.8347206116
        1.5197169781,        0.1014425755,0.1924529076,-0.1132022068,-45.3758468628,-19.9819755554,57.8347206116
        1.5223891735,        0.1014425755,0.1924529076,-0.1132022068,-37.5633468628,-21.0653495789,53.1807899475
        1.5253779888,        0.1014425755,0.1924529076,-0.1132022068,-36.0374679565,-21.0653495789,53.1807899475
        1.5279901028,        0.1014425755,0.1807341576,-0.1073428318,-36.0374679565,-20.6533622742,48.0843544006
        1.5305690765,        0.1234152317,0.1807341576,-0.1073428318,-26.4091739655,-20.6533622742,48.0843544006
        1.5331420898,        0.1234152317,0.1807341576,-0.1073428318,-26.4091739655,-20.6533622742,42.0723915100
        1.5357141495,        0.1234152317,0.1807341576,-0.1073428318,-14.2174015045,-19.7073173523,42.0723915100
        1.5383400917,        0.1234152317,0.1797575951,-0.0228701755,-14.2174015045,-19.7073173523,34.2598915100
        1.5409090519,        0.1629660130,0.1797575951,-0.0228701755,-3.2921085358,-19.6615409851,35.5874061584
        1.5434839725,        0.1629660130,0.1797575951,-0.0228701755,-3.2921085358,-19.6615409851,35.5874061584
        1.5460500717,        0.1629660130,0.1797575951,-0.0228701755,6.4735164642,-20.5923271179,29.1481971741
        1.5486750603,        0.1917746067,0.1426482201,0.1143368557,6.4735164642,-20.5923271179,29.1481971741
        1.5512530804,        0.1917746067,0.1426482201,0.1143368557,13.7977352142,-22.6827812195,23.5634803772
        1.5538220406,        0.1917746067,0.1426482201,0.1143368557,13.7977352142,-22.6827812195,23.5634803772
        1.5563981533,        0.1917746067,0.1426482201,0.1143368557,20.5421199799,-25.5666923523,19.8403358459
        1.5589830875,        0.0911886692,0.0694060400,0.1499813795,20.5421199799,-25.5666923523,19.8403358459
        1.5615510941,        0.0911886692,0.0694060400,0.1499813795,26.1726131439,-26.1617851257,17.9635047913
        1.5641250610,        0.0911886692,0.0694060400,0.1499813795,26.1726131439,-26.1617851257,17.9635047913
        1.5666940212,        0.0911886692,0.0694060400,0.1499813795,29.5600643158,-24.7122001648,16.6054725647
        1.5694131851,       -0.0338113308,0.0293669775,0.0952938870,29.5600643158,-24.7122001648,16.6054725647
        1.5719971657,       -0.0338113308,0.0293669775,0.0952938870,31.1927547455,-23.9797782898,16.4528846741
        1.5745761395,       -0.0338113308,0.0293669775,0.0952938870,31.1927547455,-23.9797782898,16.4528846741
        1.5771529675,       -0.0338113308,0.0293669775,0.0952938870,31.1927547455,-26.0091972351,19.0621376038
        1.5799350739,       -0.0860574245,0.1988005638,0.1162899807,31.9404354095,-26.0091972351,19.0621376038
        1.5826330185,       -0.0860574245,0.1988005638,0.1162899807,35.8466873169,-28.0691337585,21.2746620178
        1.5853459835,       -0.0860574245,0.1988005638,0.1162899807,35.0227127075,-28.0691337585,21.2746620178
        1.5881741047,       -0.0860574245,0.1988005638,-0.0174990818,47.9774246216,-24.4985771179,19.4436073303
        1.5908861160,       -0.1407449245,0.1284880638,-0.0174990818,47.9774246216,-24.4985771179,19.4436073303
        1.5935971737,       -0.1407449245,0.1284880638,-0.0174990818,54.9812088013,-19.3716239929,15.1864051819
        1.5963029861,       -0.1407449245,0.1284880638,-0.0174990818,54.9812088013,-19.3716239929,15.1864051819
        1.5989451408,       -0.0157449245,0.0430388525,0.0220516995,51.0749588013,-19.2190361023,12.5008583069
        1.6015260220,        0.0203878880,0.0430388525,0.0220516995,50.6324539185,-19.2190361023,12.5008583069
        1.6040999889,        0.0203878880,0.0430388525,0.0220516995,50.6324539185,-23.1252861023,12.1651649475
        1.6066820621,        0.0203878880,0.0430388525,0.0220516995,44.7120437622,-21.2026786804,12.1651649475
        1.6094059944,        0.0408957005,0.0596404150,-0.0253115818,44.7120437622,-21.2026786804,10.7918739319
        1.6121191978,        0.0408957005,0.0596404150,-0.0253115818,40.9888992310,-20.0277519226,10.7918739319
        1.6148271561,        0.0408957005,0.0596404150,-0.0253115818,40.9888992310,-16.1215019226,8.2589149475
        1.6175470352,        0.0408957005,0.0596404150,-0.0253115818,37.7692947388,-17.6168632507,8.2589149475
        1.6202571392,        0.0472433567,0.0352263525,-0.0341006443,37.7692947388,-17.6168632507,5.7106971741
        1.6229710579,        0.0472433567,0.0352263525,-0.0341006443,33.1611404419,-16.3656425476,5.7106971741
        1.6256752014,        0.0472433567,0.0352263525,-0.0341006443,33.1611404419,-16.3656425476,5.2529335022
        1.6283941269,        0.0472433567,0.0352263525,0.0074032620,29.4227352142,-16.9912528992,5.2529335022
        1.6311011314,        0.0487082005,0.0088591650,0.0074032620,29.4227352142,-16.9912528992,4.4747352600
        1.6339921951,        0.0487082005,0.0088591650,0.0074032620,25.8674373627,-16.9912528992,4.4747352600
        1.6366901398,        0.0487082005,0.0088591650,0.0074032620,25.8674373627,-15.3585624695,2.1706581116
        1.6395411491,        0.0648214817,-0.0238556787,0.0308407620,22.9835262299,-15.3585624695,2.1706581116
        1.6422560215,        0.0648214817,-0.0238556787,0.0308407620,22.9835262299,-14.8397636414,0.4006385803
        1.6449701786,        0.0648214817,-0.0238556787,0.0308407620,21.9764461517,-14.8397636414,0.4006385803
        1.6476650238,        0.0648214817,-0.0238556787,0.0308407620,21.9764461517,-14.8397636414,-0.6979942322
        1.6502451897,        0.0736105442,-0.0038361475,0.0318173245,22.7851619720,-13.9852714539,-0.6979942322
        1.6529271603,        0.0736105442,-0.0038361475,0.0318173245,22.7851619720,-13.9852714539,-3.2004356384
        1.6555080414,        0.0736105442,-0.0038361475,0.0318173245,23.7617244720,-12.4593925476,-3.2004356384
        1.6581799984,        0.0736105442,-0.0038361475,0.0318173245,23.7617244720,-12.4593925476,-5.7028770447
        1.6608891487,        0.0521261692,0.0069060400,0.0283993557,24.3568172455,-10.3384208679,-5.7028770447
        1.6636061668,        0.0521261692,0.0069060400,0.0283993557,24.3568172455,-10.3384208679,-7.2440147400
        1.6663131714,        0.0521261692,0.0069060400,0.0283993557,25.5164852142,-7.8970146179,-7.2440147400
        1.6689531803,        0.0521261692,0.0069060400,0.0176571682,25.5164852142,-7.8970146179,-7.2440147400
        1.6715340614,        0.0535910130,-0.0116486475,0.0176571682,27.7442684174,-6.0507011414,-8.8461875916
        1.6741070747,        0.0535910130,-0.0116486475,0.0176571682,27.7442684174,-6.0507011414,-8.8461875916
        1.6766860485,        0.0535910130,-0.0116486475,0.0176571682,29.9720516205,-4.7231864929,-10.7535362244
        1.6792969704,        0.0535910130,-0.0116486475,0.0015438870,29.9720516205,-4.7231864929,-10.7535362244
        1.6818771362,        0.0677511692,-0.0140900537,0.0015438870,30.5671443939,-3.1362724304,-12.1726036072
        1.6844620705,        0.0677511692,-0.0140900537,0.0015438870,30.5671443939,-3.1362724304,-12.1726036072
        1.6870400906,        0.0677511692,-0.0140900537,0.0015438870,29.2701473236,-2.3580741882,-13.2559776306
        1.6897690296,        0.0677511692,-0.0238556787,0.0225399807,29.2701473236,-2.3580741882,-13.2559776306
        1.6923520565,        0.0833761692,-0.0238556787,0.0225399807,28.1867733002,-1.4120292664,-14.0036582947
        1.6949269772,        0.0833761692,-0.0238556787,0.0225399807,28.1867733002,-1.4120292664,-14.0036582947
        1.6976501942,        0.0833761692,-0.0238556787,0.0225399807,26.3404598236,-1.0458183289,-14.6292686462
        1.7002291679,        0.0833761692,-0.0599884912,-0.0038272068,26.3404598236,-1.0458183289,-14.6292686462
        1.7028090954,        0.0833761692,-0.0599884912,-0.0038272068,22.8004207611,-0.6338310242,-14.6903038025
        1.7053880692,        0.0833761692,-0.0599884912,-0.0038272068,22.8004207611,-0.6338310242,-14.6903038025
        1.7080161572,        0.0833761692,-0.0599884912,-0.0038272068,18.4974422455,0.3885078430,-14.3546104431
        1.7107281685,        0.0819113255,-0.0595002100,-0.0033389255,18.4974422455,0.3885078430,-14.3546104431
        1.7134339809,        0.0819113255,-0.0595002100,-0.0033389255,15.3083553314,1.1209297180,-14.6445274353
        1.7162430286,        0.0819113255,-0.0595002100,-0.0033389255,15.3083553314,1.1209297180,-14.6445274353
        1.7189610004,        0.0819113255,-0.0595002100,-0.0033389255,13.0347957611,1.0446357727,-14.5377159119
        1.7217381001,        0.0980246067,-0.0511994287,-0.0023623630,13.0347957611,1.0446357727,-14.5377159119
        1.7243120670,        0.0980246067,-0.0511994287,-0.0023623630,9.6931209564,1.0141181946,-14.6140098572
        1.7268831730,        0.0980246067,-0.0511994287,-0.0023623630,9.6931209564,1.0141181946,-14.6140098572
        1.7296950817,        0.0980246067,-0.0511994287,0.0020321682,8.0299129486,0.7547187805,-15.0107383728
        1.7323651314,        0.0858175755,-0.0219025537,0.0020321682,8.0299129486,0.7547187805,-15.0107383728
        1.7353720665,        0.0858175755,-0.0219025537,0.0020321682,7.7399959564,0.6173896790,-15.3616905212
        1.7379879951,        0.0858175755,-0.0219025537,0.0020321682,7.7399959564,0.6173896790,-15.3616905212
        1.7405641079,        0.1073019505,-0.0009064600,0.0059384182,7.7399959564,0.6784248352,-15.5142784119
        1.7431299686,        0.1073019505,-0.0009064600,0.0059384182,7.9993953705,0.6784248352,-15.5142784119
        1.7456960678,        0.1073019505,-0.0009064600,0.0059384182,7.9993953705,0.7852363586,-15.8957481384
        1.7483170033,        0.1073019505,-0.0009064600,0.0059384182,8.9454402924,0.7852363586,-15.8957481384
        1.7508900166,        0.0990011692,-0.0101838037,-0.0004092380,8.9454402924,0.7852363586,-16.7197227478
        1.7534670830,        0.0990011692,-0.0101838037,-0.0004092380,9.2506160736,0.1748847961,-16.7197227478
        1.7560360432,        0.0990011692,-0.0101838037,-0.0004092380,9.2506160736,0.1748847961,-16.7197227478
        1.7586181164,        0.0990011692,-0.0101838037,-0.0004092380,9.1438045502,0.6173896790,-17.1622276306
        1.7611861229,        0.0916769505,-0.0214142725,0.0176571682,9.1438045502,0.6173896790,-17.1622276306
        1.7637560368,        0.0916769505,-0.0214142725,0.0176571682,8.6402645111,1.1514472961,-17.0706748962
        1.7663280964,        0.0916769505,-0.0214142725,0.0176571682,8.6402645111,1.1514472961,-17.0706748962
        1.7689120770,        0.0916769505,-0.0214142725,0.0176571682,7.3890438080,1.2735176086,-17.0401573181
        1.7714800835,        0.1058371067,-0.0209259912,0.0230282620,7.3890438080,1.2735176086,-17.0401573181
        1.7740471363,        0.1058371067,-0.0209259912,0.0230282620,4.5509090424,1.5481758118,-17.1774864197
        1.7766160965,        0.1058371067,-0.0209259912,0.0230282620,4.5509090424,1.5481758118,-17.1774864197
        1.7792241573,        0.1058371067,-0.0209259912,0.0230282620,2.0026912689,1.9296455383,-17.2385215759
        1.7819061279,        0.1097433567,-0.0184845850,0.0088681057,2.0026912689,1.9296455383,-17.2385215759
        1.7844800949,        0.1097433567,-0.0184845850,0.0088681057,-0.4539737701,2.7841377258,-17.1317100525
        1.7870471478,        0.1097433567,-0.0184845850,0.0088681057,-0.4539737701,2.7841377258,-17.1317100525
        1.7898771763,        0.1097433567,-0.0184845850,0.1338680983,-1.9035587311,3.9438056946,-16.4908409119
        1.7925810814,        0.1082785130,-0.0140900537,0.0283993557,-1.9035587311,3.9438056946,-16.4908409119
        1.7952871323,        0.1082785130,-0.0140900537,0.0283993557,-2.8953800201,4.6304512024,-15.1480674744
        1.7979781628,        0.1082785130,-0.0140900537,0.0283993557,-2.8953800201,4.6304512024,-15.1480674744
        1.8005490303,        0.1082785130,-0.0140900537,0.0523251370,-3.4294376373,4.4778633118,-14.4309043884
        1.8031260967,        0.1004660130,0.0156951025,0.0523251370,-3.4294376373,4.4778633118,-14.4309043884
        1.8056991100,        0.1004660130,0.0156951025,0.0523251370,-3.4294376373,4.8288154602,-13.9578819275
        1.8083760738,        0.1004660130,0.0156951025,0.0523251370,-2.2087345123,4.8288154602,-13.9578819275
        1.8110811710,        0.1004660130,0.0156951025,0.0283993557,-2.2087345123,5.0882148743,-13.5153770447
        1.8137781620,        0.0750753880,0.0156951025,0.0283993557,0.0495662689,5.0882148743,-13.5153770447
        1.8164770603,        0.0750753880,0.0156951025,0.0283993557,0.0495662689,4.8288154602,-12.3709678650
        1.8191950321,        0.0750753880,0.0156951025,0.0283993557,2.1857967377,4.8288154602,-12.3709678650
        1.8218991756,        0.0731222630,-0.0321564600,-0.0004092380,2.1857967377,3.9285469055,-10.7535362244
        1.8246061802,        0.0731222630,-0.0321564600,-0.0004092380,3.9100399017,3.9285469055,-10.7535362244
        1.8273131847,        0.0731222630,-0.0321564600,-0.0004092380,3.9100399017,2.6925849915,-9.3344688416
        1.8300161362,        0.0731222630,-0.0321564600,-0.0004092380,4.9628963470,2.6925849915,-9.3344688416
        1.8327209949,        0.0701925755,-0.1185822412,-0.0214053318,4.9628963470,1.8228340149,-8.6935997009
        1.8354279995,        0.0701925755,-0.1185822412,-0.0214053318,5.4969539642,1.8228340149,-8.6935997009
        1.8381440639,        0.0701925755,-0.1185822412,-0.0214053318,5.4969539642,1.8228340149,-7.9764366150
        1.8408470154,        0.0701925755,-0.1185822412,-0.0624209568,4.0168514252,0.9988594055,-7.9764366150
        1.8436851501,        0.0462667942,-0.1532502174,-0.0624209568,4.0168514252,0.3885078430,-6.6794395447
        1.8465011120,        0.0462667942,-0.1532502174,-0.0624209568,0.0495662689,0.3885078430,-6.6794395447
        1.8494451046,        0.0462667942,-0.1532502174,-0.0624209568,-4.7874698639,0.4800605774,-5.2603721619
        1.8520221710,        0.0428488255,-0.0668244287,-0.0790225193,-4.7874698639,0.4800605774,-5.2603721619
        1.8545961380,        0.0428488255,-0.0668244287,-0.0790225193,-4.7874698639,0.1901435852,-3.1394004822
        1.8571691513,        0.0428488255,-0.0668244287,-0.0790225193,-8.8615665436,0.1901435852,-3.1394004822
        1.8598761559,        0.0428488255,-0.0668244287,-0.0790225193,-8.8615665436,-3.7161064148,-2.0560264587
        1.8625810146,        0.0404074192,-0.0057892725,-0.0463076755,-11.2419376373,-0.5880546570,-2.0560264587
        1.8652839661,        0.0404074192,-0.0057892725,-0.0463076755,-11.2419376373,-0.5880546570,-2.3612022400
        1.8680000305,        0.0404074192,-0.0057892725,-0.0463076755,-10.6773624420,-1.5188407898,-2.3612022400
        1.8707020283,        0.0404074192,-0.0057892725,-0.0463076755,-10.6773624420,-1.5188407898,-2.0407676697
        1.8733980656,        0.0555441380,0.0166716650,-0.0189639255,-8.5869083405,-0.9695243835,-2.0407676697
        1.8761069775,        0.0555441380,0.0166716650,-0.0189639255,-8.5869083405,-0.9695243835,-1.5677452087
        1.8787510395,        0.0555441380,0.0166716650,-0.0189639255,-6.1149845123,-0.2371025085,-1.5677452087
        1.8813221455,        0.0555441380,0.1416716576,0.0078915432,-6.1149845123,-0.2371025085,-1.6287803650
        1.8838911057,        0.0609152317,0.0371794775,0.0078915432,-3.7803897858,-0.5880546570,-1.6287803650
        1.8864650726,        0.0609152317,0.0371794775,0.0078915432,-3.7803897858,-0.5880546570,-1.6287803650
        1.8890790939,        0.0609152317,0.0371794775,0.0078915432,-0.5150089264,-1.1373710632,-1.3388633728
        1.8916501999,        0.0609152317,0.0176482275,0.0616024807,-0.5150089264,-1.1373710632,-1.3388633728
        1.8942229748,        0.0765402317,0.0176482275,0.0616024807,4.4288387299,-0.8779716492,-0.6369590759
        1.8967940807,        0.0765402317,0.0176482275,0.0616024807,4.4288387299,-0.8779716492,-0.6369590759
        1.8994061947,        0.0765402317,0.0176482275,0.0616024807,8.8386287689,-0.3591728210,-0.8810997009
        1.9019861221,        0.0765402317,0.0142302588,0.0474423245,8.8386287689,-0.3591728210,-0.8810997009
        1.9045591354,        0.0853292942,0.0142302588,0.0474423245,12.3939266205,-0.4049491882,-0.3928184509
        1.9071340561,        0.0853292942,0.0142302588,0.0474423245,12.3939266205,-0.4049491882,-0.3928184509
        1.9100379944,        0.0853292942,0.0142302588,0.0474423245,13.6298885345,-0.1455497742,0.4921913147
        1.9127430916,        0.0706808567,-0.0136017725,0.0142391995,13.6298885345,-0.1455497742,0.4921913147
        1.9154469967,        0.0706808567,-0.0136017725,0.0142391995,13.4620418549,-0.1455497742,2.1859169006
        1.9181630611,        0.0706808567,-0.0136017725,0.0142391995,13.4620418549,-0.1455497742,2.1859169006
        1.9208631516,        0.0706808567,-0.0136017725,0.0142391995,13.7824764252,0.0833320618,3.8338661194
        1.9235670567,        0.0584738255,-0.0380158350,0.0279110745,13.7824764252,0.0833320618,3.8338661194
        1.9262700081,        0.0584738255,-0.0380158350,0.0279110745,14.3012752533,-0.2218437195,5.7412147522
        1.9289860725,        0.0584738255,-0.0380158350,0.0279110745,14.3012752533,-0.2218437195,5.7412147522
        1.9316911697,        0.0584738255,-0.0380158350,0.0157040432,14.9879207611,-0.5117607117,7.4654579163
        1.9343919754,        0.0443136692,-0.0487580225,0.0157040432,14.9879207611,-0.5117607117,7.4654579163
        1.9370989799,        0.0443136692,-0.0487580225,0.0157040432,14.8963680267,-0.8321952820,9.8610877991
        1.9398100376,        0.0443136692,-0.0487580225,0.0157040432,14.8963680267,-0.8321952820,9.8610877991
        1.9425220490,        0.0394308567,-0.0809845850,0.0391415432,14.6369686127,-1.2594413757,12.1956825256
        1.9452261925,        0.0394308567,-0.0809845850,0.0391415432,14.6369686127,-1.2594413757,12.1956825256
        1.9479391575,        0.0394308567,-0.0809845850,0.0391415432,14.1944637299,-1.8697929382,14.8049354553
        1.9506411552,        0.0394308567,-0.0809845850,0.0391415432,14.1944637299,-1.8697929382,14.8049354553
        1.9533460140,        0.0467550755,-0.0663361475,0.0064266995,13.8129940033,-2.5106620789,17.8872108459
        1.9560580254,        0.0467550755,-0.0663361475,0.0064266995,13.8129940033,-2.5106620789,17.8872108459
        1.9587790966,        0.0467550755,-0.0663361475,0.0064266995,14.3928279877,-2.8005790710,21.0762977600
        1.9614939690,        0.0467550755,-0.0663361475,0.0064266995,14.3928279877,-2.8005790710,21.0762977600
        1.9643030167,        0.0384542942,-0.0189728662,-0.0116397068,13.5078182220,-2.5716972351,24.0517616272
        1.9674460888,        0.0384542942,-0.0189728662,-0.0116397068,13.5078182220,-2.5716972351,24.0517616272
        1.9701700211,        0.0384542942,-0.0189728662,-0.0116397068,11.3105525970,-2.0986747742,27.0577430725
        1.9728801250,        0.0262472630,0.0015349463,-0.0121279880,11.3105525970,-2.0986747742,27.0577430725
        1.9756991863,        0.0262472630,0.0015349463,-0.0121279880,10.7764949799,-1.8240165710,29.4991493225
        1.9784271717,        0.0262472630,0.0015349463,-0.0121279880,10.7764949799,-1.8240165710,29.4991493225
        1.9811320305,        0.0262472630,0.0015349463,-0.0121279880,10.2729549408,-1.6256523132,31.9710731506
        1.9838371277,        0.0106222630,0.0191130713,0.0005673245,10.2729549408,-1.6256523132,31.9710731506
        1.9865410328,        0.0106222630,0.0191130713,0.0005673245,11.2189998627,-1.3662528992,34.4582557678
        1.9892601967,        0.0106222630,0.0191130713,0.0005673245,11.2189998627,-1.3662528992,34.4582557678
        1.9919660091,        0.0106222630,0.0191130713,0.0074032620,13.0500545502,-1.5035820007,36.1367225647
        1.9946720600,       -0.0128152370,0.0571990088,0.0074032620,13.0500545502,-1.5035820007,36.1367225647
        1.9973871708,       -0.0128152370,0.0571990088,0.0074032620,14.5606746674,-1.6103935242,38.1814002991
        1.9999651909,       -0.0128152370,0.0571990088,0.0074032620,14.5606746674,-1.6103935242,38.1814002991
        2.0025410652,       -0.0128152370,0.0537810400,0.0186337307,16.8189754486,-1.7782402039,40.0277137756
        2.0051171780,       -0.0362527370,0.0537810400,0.0186337307,16.8189754486,-1.7782402039,40.0277137756
        2.0077610016,       -0.0362527370,0.0537810400,0.0186337307,17.6734676361,-2.4191093445,41.6604042053
        2.0103421211,       -0.0362527370,0.0537810400,0.0186337307,17.6734676361,-2.4191093445,41.6604042053
        2.0129191875,       -0.0362527370,0.0288786963,0.0161923245,18.1464900970,-2.0528984070,43.9949989319
        2.0155019760,       -0.0499246120,0.0288786963,0.0161923245,18.1464900970,-2.0528984070,43.9949989319
        2.0182461739,       -0.0499246120,0.0288786963,0.0161923245,17.7345027924,-1.7172050476,46.4974403381
        2.0208241940,       -0.0499246120,0.0288786963,0.0161923245,17.7345027924,-1.7172050476,46.4974403381
        2.0234019756,       -0.0347878933,0.0420622900,0.0142391995,17.7345027924,-2.4343681335,48.9998817444
        2.0259790421,       -0.0347878933,0.0420622900,0.0142391995,16.3459529877,-2.4343681335,48.9998817444
        2.0286781788,       -0.0347878933,0.0420622900,0.0142391995,16.3459529877,-2.4343681335,51.9143104553
        2.0312659740,       -0.0347878933,0.0420622900,0.0142391995,16.2086238861,-2.7395439148,51.9143104553
        2.0338411331,       -0.0660378933,0.0357146338,0.0088681057,16.2086238861,-2.7395439148,54.4167518616
        2.0364201069,       -0.0660378933,0.0357146338,0.0088681057,15.9187068939,-2.4954032898,54.4167518616
        2.0392320156,       -0.0660378933,0.0357146338,0.0088681057,15.9187068939,-2.4954032898,56.5529823303
        2.0418071747,       -0.0660378933,0.0357146338,0.0088681057,15.5677547455,-2.6937675476,56.5529823303
        2.0449831486,       -0.1436746120,0.0186247900,0.0200985745,15.5677547455,-2.6937675476,57.5753211975
        2.0476281643,       -0.1436746120,0.0186247900,0.0200985745,16.5290584564,-3.0904960632,57.5753211975
        2.0502030849,       -0.1436746120,0.0186247900,0.0200985745,16.5290584564,-3.0904960632,59.8793983459
        2.0527729988,       -0.1436746120,0.0186247900,-0.0013858005,17.4140682220,-3.5787773132,59.8793983459
        2.0553421974,       -0.2003152370,0.0855193213,-0.0013858005,17.4140682220,-3.5787773132,63.7856483459
        2.0579710007,       -0.2003152370,0.0855193213,-0.0013858005,18.8483943939,-3.3346366882,62.3360633850
        2.0605430603,       -0.2003152370,0.0855193213,-0.0013858005,18.8483943939,-3.3346366882,62.3360633850
        2.0631110668,       -0.2003152370,0.0855193213,-0.0170108005,22.6020565033,-3.5940361023,64.4570312500
        2.0656859875,       -0.2134988308,0.0640349463,-0.0170108005,22.6020565033,-3.5940361023,64.4570312500
        2.0683071613,       -0.2134988308,0.0640349463,-0.0170108005,25.9284725189,-3.3956718445,66.7611083984
        2.0708861351,       -0.2134988308,0.0640349463,-0.0170108005,25.9284725189,-3.3956718445,66.7611083984
        2.0734560490,       -0.2134988308,0.0542693213,-0.0248233005,28.3393611908,-3.0904960632,69.7823486328
        2.0760262012,       -0.2051980495,0.0542693213,-0.0248233005,28.3393611908,-3.0904960632,69.7823486328
        2.0786089897,       -0.2051980495,0.0542693213,-0.0248233005,29.5600643158,-3.6703300476,73.2155761719
        2.0811800957,       -0.2051980495,0.0542693213,-0.0248233005,29.5600643158,-3.6703300476,73.2155761719
        2.0837512016,       -0.2051980495,0.0029997900,-0.0233584568,30.5671443939,-4.1891288757,76.0384521484
        2.0863301754,       -0.2276589870,0.0029997900,-0.0233584568,30.5671443939,-4.1891288757,76.0384521484
        2.0890331268,       -0.2276589870,0.0029997900,-0.0233584568,31.5894832611,-4.1433525085,78.7087402344
        2.0916171074,       -0.2276589870,0.0029997900,-0.0233584568,31.5894832611,-4.1433525085,78.7087402344
        2.0941970348,       -0.2994363308,-0.0326447412,-0.0043154880,31.5894832611,-3.7771415710,81.9436035156
        2.0967710018,       -0.2994363308,-0.0326447412,-0.0043154880,31.4521541595,-3.7771415710,81.9436035156
        2.0995111465,       -0.2994363308,-0.0326447412,-0.0043154880,31.4521541595,-3.5635185242,85.3463134766
        2.1021931171,       -0.2994363308,-0.0326447412,-0.0043154880,31.5284481049,-3.5635185242,85.3463134766
        2.1047689915,       -0.3311746120,-0.0360627100,0.0332821682,31.5284481049,-7.4697685242,88.6269531250
        2.1073541641,       -0.3311746120,-0.0360627100,0.0332821682,31.7573299408,-4.0823173523,88.6269531250
        2.1100521088,       -0.3311746120,-0.0360627100,0.0332821682,31.7573299408,-4.0823173523,91.1751708984
        2.1127500534,       -0.3311746120,-0.0360627100,0.0332821682,34.7327957153,-5.6234550476,91.1751708984
        2.1154491901,       -0.3619363308,-0.1014923975,0.0650204495,34.7327957153,-5.6234550476,94.5015869141
        2.1181530952,       -0.3619363308,-0.1014923975,0.0650204495,38.3491287231,-7.9580497742,94.5015869141
        2.1208519936,       -0.3619363308,-0.1014923975,0.0650204495,38.3491287231,-7.9580497742,97.4465332031
        2.1235470772,       -0.3619363308,-0.2264924049,0.0752743557,41.6755447388,-10.5062675476,97.4465332031
        2.1262350082,       -0.3824441433,-0.1669220924,0.0752743557,41.6755447388,-10.5062675476,100.1625976562
        2.1289429665,       -0.3824441433,-0.1669220924,0.0752743557,45.4292068481,-13.9547538757,100.1625976562
        2.1316390038,       -0.3824441433,-0.1669220924,0.0752743557,45.4292068481,-13.9547538757,100.1625976562
        2.1342129707,       -0.3824441433,-0.1869416237,0.1133602932,49.2439041138,-17.6168632507,103.3211669922
        2.1367890835,       -0.4268777370,-0.1869416237,0.1133602932,49.2439041138,-17.6168632507,103.3211669922
        2.1394550800,       -0.4268777370,-0.1869416237,0.1133602932,56.3087234497,-21.5078544617,105.7015380859
        2.1420350075,       -0.4268777370,-0.1869416237,0.1133602932,56.3087234497,-21.5078544617,105.7015380859
        2.1449241638,       -0.5035378933,-0.2089142799,0.1783016920,67.2492752075,-26.1923027039,106.5712890625
        2.1476120949,       -0.5035378933,-0.2089142799,0.1783016920,67.2492752075,-26.1923027039,106.5712890625
        2.1501810551,       -0.5035378933,-0.2089142799,0.1783016920,79.5478591919,-30.2663993835,106.5102539062
        2.1527531147,       -0.5035378933,-0.2089142799,0.1783016920,79.5478591919,-30.2663993835,106.5102539062
        2.1553239822,       -0.6690652370,-0.2235627174,0.2046688795,95.2186355591,-33.6996269226,105.5947265625
        2.1579430103,       -0.6690652370,-0.2235627174,0.2046688795,95.2186355591,-33.6996269226,105.5947265625
        2.1605141163,       -0.6690652370,-0.2235627174,0.2046688795,116.2910232544,-35.9579277039,103.7331542969
        2.1630880833,       -0.6690652370,-0.2235627174,0.2046688795,116.2910232544,-35.9579277039,103.7331542969
        2.1657681465,       -0.8170144558,-0.3446564674,0.1944149733,138.7672119141,-35.6222343445,100.8645019531
        2.1683499813,       -0.8170144558,-0.3446564674,0.1944149733,138.7672119141,-35.6222343445,100.8645019531
        2.1709191799,       -0.8170144558,-0.3446564674,0.1944149733,159.3665771484,-33.2113456726,98.4993896484
        2.1734900475,       -0.8170144558,-0.3446564674,0.1944149733,159.3665771484,-33.2113456726,98.4993896484
        2.1760621071,       -0.6978738308,-0.4442658424,0.1040829495,175.0678710938,-29.0914726257,98.5756835938
        2.1786761284,       -0.6978738308,-0.4442658424,0.1040829495,175.0678710938,-29.0914726257,98.5756835938
        2.1812491417,       -0.6978738308,-0.4442658424,0.1040829495,175.0678710938,-23.9950370789,104.7097167969
        2.1838250160,       -0.6978738308,-0.4442658424,0.1040829495,176.8684082031,-23.9950370789,104.7097167969
        2.1864001751,       -0.4688699245,-0.2777619362,0.1192196682,176.8684082031,-20.0887870789,114.2312011719
        2.1890389919,       -0.4688699245,-0.2777619362,0.1192196682,162.1131591797,-21.2026786804,114.2312011719
        2.1916170120,       -0.4688699245,-0.2777619362,0.1192196682,162.1131591797,-21.2026786804,122.4862060547
        2.1941959858,       -0.4688699245,-0.2777619362,0.1265438795,139.4080810547,-19.9972343445,122.4862060547
        2.1967701912,       -0.4083230495,-0.2181916237,0.1265438795,139.4080810547,-19.9972343445,127.6284179688
        2.1995911598,       -0.4083230495,-0.2181916237,0.1265438795,112.2474441528,-18.6239433289,127.6284179688
        2.2023041248,       -0.4083230495,-0.2181916237,0.1265438795,112.2474441528,-18.6239433289,127.6284179688
        2.2050151825,       -0.3756082058,-0.2352814674,0.1387509108,85.4530105591,-16.3046073914,129.3221435547
        2.2077701092,       -0.3756082058,-0.2352814674,0.1387509108,85.4530105591,-16.3046073914,127.7352294922
        2.2104771137,       -0.3756082058,-0.2352814674,0.1387509108,67.5239334106,-14.4582939148,127.7352294922
        2.2131841183,       -0.3756082058,-0.2352814674,0.1387509108,67.5239334106,-14.4582939148,119.9227294922
        2.2158920765,       -0.2335183620,-0.2528595924,0.2100399733,54.8743972778,-13.9089775085,122.9897460938
        2.2186141014,       -0.2335183620,-0.2528595924,0.2100399733,54.8743972778,-13.9089775085,115.1772460938
        2.2213201523,       -0.2335183620,-0.2528595924,0.2100399733,49.5185623169,-13.2223320007,114.9788818359
        2.2240271568,       -0.2335183620,-0.2528595924,0.0850399807,49.5185623169,-13.2223320007,107.1663818359
        2.2267329693,       -0.0587136745,-0.2426056862,0.0489071682,51.9294509888,-10.3841972351,105.3658447266
        2.2294600010,       -0.0587136745,-0.2426056862,0.0489071682,51.9294509888,-10.3841972351,97.5533447266
        2.2320351601,       -0.0587136745,-0.2426056862,0.0489071682,52.8602371216,-8.3700370789,97.3092041016
        2.2346110344,       -0.0587136745,-0.2426056862,-0.0887881443,52.8602371216,-8.3700370789,97.3092041016
        2.2371830940,        0.0902121067,-0.0785431787,-0.0887881443,48.0232009888,-6.0354423523,93.1435546875
        2.2397871017,        0.0902121067,-0.0785431787,-0.0887881443,48.0232009888,-6.0354423523,93.1435546875
        2.2423620224,        0.0902121067,-0.0785431787,-0.0887881443,41.2788162231,-4.4943046570,91.0836181641
        2.2449409962,        0.0902121067,0.3081755638,-0.1229678318,41.2788162231,-4.4943046570,91.0836181641
        2.2475831509,        0.2366964817,0.3081755638,-0.1229678318,31.4979305267,-8.1106376648,89.6645507812
        2.2502880096,        0.2366964817,0.3081755638,-0.1229678318,31.4979305267,-8.1106376648,89.6645507812
        2.2529931068,        0.2366964817,0.3081755638,-0.1229678318,20.2979793549,-16.8539237976,82.0198974609
        2.2558341026,        0.4891378880,0.4678435326,0.0899227932,20.2979793549,-16.8539237976,82.0198974609
        2.2589612007,        0.4891378880,0.4678435326,0.0899227932,7.3737850189,-28.0538749695,60.8559608459
        2.2616779804,        0.4891378880,0.4678435326,0.0899227932,7.3737850189,-28.0538749695,60.8559608459
        2.2643861771,        0.4891378880,0.4678435326,0.0899227932,-0.4844913483,-32.7688407898,30.6435585022
        2.2670900822,        0.5443136692,0.1778044701,0.1529110670,-0.4844913483,-32.7688407898,30.6435585022
        2.2696809769,        0.5443136692,0.1778044701,0.1529110670,8.9606990814,-33.0587577820,0.4921913147
        2.2722520828,        0.5443136692,0.1778044701,0.1529110670,8.9606990814,-33.0587577820,0.4921913147
        2.2748291492,        0.5443136692,0.1778044701,0.0703915432,24.1279354095,-34.0658378601,-22.9758262634
        2.2774550915,        0.5379660130,-0.1234650537,0.0703915432,24.1279354095,-34.0658378601,-22.9758262634
        2.2800340652,        0.5379660130,-0.1234650537,0.0703915432,33.7409744263,-34.5541191101,-40.6607627869
        2.2826120853,        0.5379660130,-0.1234650537,0.0703915432,33.7409744263,-34.5541191101,-40.6607627869
        2.2851819992,        0.5379660130,-0.4984650612,-0.0111514255,42.3774490356,-27.6113700867,-58.9102745056
        2.2878060341,        0.5174582005,-0.4891877174,-0.0111514255,42.3774490356,-27.6113700867,-58.9102745056
        2.2903790474,        0.5174582005,-0.4891877174,-0.0111514255,46.3447341919,-14.4735527039,-77.4497070312
        2.2930619717,        0.5174582005,-0.4891877174,-0.0111514255,46.3447341919,-14.4735527039,-77.4497070312
        2.2956371307,        0.5174582005,-0.6395783424,-0.2245303392,38.5322341919,-2.8921318054,-92.4643554688
        2.2982220650,        0.5282003880,-0.6395783424,-0.2245303392,41.4161453247,-2.8921318054,-92.4643554688
        2.3007950783,        0.5282003880,-0.6395783424,-0.2245303392,41.4161453247,1.0141181946,-105.6479492188
        2.3033621311,        0.5282003880,-0.6395783424,-0.2245303392,28.0494441986,1.4261054993,-105.6479492188
        2.3059310913,        0.6532003880,-0.6205353737,-0.2587100267,28.0494441986,1.4261054993,-117.1683349609
        2.3086471558,        0.5584738255,-0.6205353737,-0.2587100267,9.3726863861,0.8767890930,-117.1683349609
        2.3112170696,        0.5584738255,-0.6205353737,-0.2587100267,9.3726863861,0.8767890930,-128.8870849609
        2.3137881756,        0.5584738255,-0.6205353737,-0.2587100267,-13.2255802155,-0.6948661804,-127.8037109375
        2.3163580894,        0.5711691380,-0.5223908424,-0.2255069017,-13.2255802155,-0.6948661804,-127.8037109375
        2.3190791607,        0.5711691380,-0.5223908424,-0.2255069017,-38.0058517456,-2.0376396179,-137.1573486328
        2.3216590881,        0.5711691380,-0.5223908424,-0.2255069017,-38.0058517456,-2.0376396179,-137.1573486328
        2.3242330551,        0.5711691380,-0.5223908424,-0.2255069017,-60.0700607300,-3.9144706726,-146.5720214844
        2.3267991543,        0.5443136692,-0.3641877174,-0.1561709642,-60.0700607300,-3.9144706726,-146.5720214844
        2.3293800354,        0.5443136692,-0.3641877174,-0.1561709642,-77.2514572144,-5.3793144226,-156.1697998047
        2.3319590092,        0.5443136692,-0.3641877174,-0.1561709642,-77.2514572144,-5.3793144226,-156.1697998047
        2.3345360756,        0.5443136692,-0.3641877174,-0.1561709642,-90.1298751831,-5.4708671570,-164.9283447266
        2.3373980522,        0.4720480442,-0.2474884987,-0.0848818943,-90.1298751831,-5.4708671570,-164.9283447266
        2.3400721550,        0.4720480442,-0.2474884987,-0.0848818943,-98.0186691284,-4.1280937195,-174.6787109375
        2.3435411453,        0.4720480442,-0.2474884987,-0.0848818943,-98.0186691284,-4.1280937195,-174.6787109375
        2.3461179733,        0.4720480442,-0.1215119287,-0.0751162693,-101.7875900269,-1.5951347351,-185.1309814453
        2.3487460613,        0.4119894505,-0.1215119287,-0.0751162693,-101.7875900269,-1.5951347351,-185.1309814453
        2.3513159752,        0.4119894505,-0.1215119287,-0.0751162693,-103.7559738159,1.2430000305,-195.4764404297
        2.3538851738,        0.4119894505,-0.1215119287,-0.0751162693,-103.7559738159,1.2430000305,-195.4764404297
        2.3565649986,        0.3582785130,-0.0292267725,-0.0848818943,-103.5881271362,5.0576972961,-205.6998291016
        2.3591470718,        0.3582785130,-0.0292267725,-0.0848818943,-103.5881271362,5.0576972961,-205.6998291016
        2.3617200851,        0.3582785130,-0.0292267725,-0.0848818943,-99.8802413940,8.6129951477,-216.4114990234
        2.3642961979,        0.3582785130,-0.0292267725,-0.0848818943,-99.8802413940,8.6129951477,-216.4114990234
        2.3668680191,        0.3133566380,-0.0238556787,-0.1073428318,-94.3870773315,11.4511299133,-226.7874755859
        2.3694870472,        0.3133566380,-0.0238556787,-0.1073428318,-94.3870773315,11.4511299133,-226.7874755859
        2.3720610142,        0.3133566380,-0.0238556787,-0.1073428318,-89.8857345581,14.6859931946,-236.8125000000
        2.3746380806,        0.3133566380,-0.0238556787,-0.1073428318,-89.8857345581,14.6859931946,-236.8125000000
        2.3772590160,        0.2860128880,-0.0560822412,-0.1166201755,-89.8857345581,17.5699043274,-246.0288085938
        2.3798370361,        0.2860128880,-0.0560822412,-0.1166201755,-87.4443283081,17.5699043274,-246.0288085938
        2.3824090958,        0.2860128880,-0.0560822412,-0.1166201755,-87.4443283081,21.4761543274,-255.3824462891
        2.3849802017,        0.2860128880,-0.0560822412,-0.1166201755,-85.6132736206,19.7824287415,-255.3824462891
        2.3876950741,        0.2386496067,-0.1063752100,-0.1019717380,-85.6132736206,19.7824287415,-264.8886718750
        2.3902750015,        0.2386496067,-0.1063752100,-0.1019717380,-83.0192794800,22.4832344055,-264.8886718750
        2.3928561211,        0.2386496067,-0.1063752100,-0.1019717380,-83.0192794800,22.4832344055,-272.7011718750
        2.3954391479,        0.2386496067,-0.1063752100,-0.1019717380,-80.7609786987,24.8178291321,-273.2810058594
        2.3981580734,        0.1927511692,-0.1180939600,-0.0511904880,-80.7609786987,24.8178291321,-281.0935058594
        2.4008719921,        0.1927511692,-0.1180939600,-0.0511904880,-77.3735275269,28.0374336243,-281.4444580078
        2.4035780430,        0.1927511692,-0.1180939600,-0.0511904880,-77.3735275269,28.0374336243,-289.2569580078
        2.4062891006,        0.1927511692,0.0069060400,0.0127743557,-71.8803634644,31.1960029602,-289.4400634766
        2.4089331627,        0.1175558567,-0.0848908350,0.0127743557,-71.8803634644,31.1960029602,-289.4400634766
        2.4115121365,        0.1175558567,-0.0848908350,0.0127743557,-63.7016525269,33.7137031555,-296.6574707031
        2.4140920639,        0.1175558567,-0.0848908350,0.0127743557,-63.7016525269,33.7137031555,-296.6574707031
        2.4166700840,        0.1175558567,-0.0306916162,0.0264462307,-55.4924240112,35.5600166321,-303.8596191406
        2.4194920063,        0.0384542942,-0.0306916162,0.0264462307,-55.4924240112,35.5600166321,-303.8596191406
        2.4221980572,        0.0384542942,-0.0306916162,0.0264462307,-48.1376876831,36.6433906555,-310.9091796875
        2.4249091148,        0.0384542942,-0.0306916162,0.0264462307,-48.1376876831,36.6433906555,-310.9091796875
        2.4276280403,       -0.0479714870,0.0347380713,-0.0116397068,-44.9943771362,37.4368476868,-317.5925292969
        2.4303381443,       -0.0479714870,0.0347380713,-0.0116397068,-44.9943771362,37.4368476868,-317.5925292969
        2.4330461025,       -0.0479714870,0.0347380713,-0.0116397068,-45.2995529175,36.4908027649,-322.7957763672
        2.4357590675,       -0.0479714870,0.0347380713,-0.0116397068,-45.2995529175,36.4908027649,-322.7957763672
        2.4384779930,       -0.1251199245,0.0571990088,-0.0560733005,-47.5883712769,34.5376777649,-326.8851318359
        2.4411830902,       -0.1251199245,0.0571990088,-0.0560733005,-47.5883712769,34.5376777649,-326.8851318359
        2.4438960552,       -0.1251199245,0.0571990088,-0.0560733005,-50.0145187378,32.8744697571,-330.0437011719
        2.4466071129,       -0.1251199245,0.0571990088,-0.0209170505,-50.0145187378,32.8744697571,-330.0437011719
        2.4493620396,       -0.1890847683,0.0879607275,-0.0209170505,-49.2973556519,31.8216133118,-332.6071777344
        2.4520721436,       -0.1890847683,0.0879607275,-0.0209170505,-49.2973556519,31.8216133118,-332.6071777344
        2.4549071789,       -0.1890847683,0.0879607275,-0.0209170505,-43.6973800659,31.5927314758,-334.9570312500
        2.4579989910,       -0.3218972683,0.1372771263,0.0274227932,-43.6973800659,31.5927314758,-334.9570312500
        2.4605820179,       -0.3218972683,0.1372771263,0.0274227932,-37.9142990112,32.9507637024,-336.5592041016
        2.4631650448,       -0.3218972683,0.1372771263,0.0274227932,-37.9142990112,32.9507637024,-336.5592041016
        2.4657750130,       -0.3218972683,0.1372771263,0.0274227932,-34.2674484253,34.9191474915,-337.9172363281
        2.4684121609,       -0.4512917995,0.1856169701,0.0303524807,-34.2674484253,34.9191474915,-337.9172363281
        2.4711251259,       -0.4512917995,0.1856169701,0.0303524807,-33.1535568237,38.2150459290,-338.8632812500
        2.4738361835,       -0.4512917995,0.1856169701,0.0303524807,-33.1535568237,38.2150459290,-338.8632812500
        2.4765450954,       -0.4512917995,0.1856169701,0.0303524807,-33.2451095581,40.8395576477,-339.9313964844
        2.4792599678,       -0.4952371120,0.2276091576,0.0313290432,-33.2451095581,40.8395576477,-339.9313964844
        2.4819631577,       -0.4952371120,0.2276091576,0.0313290432,-34.5878829956,42.5027656555,-341.1978759766
        2.4846761227,       -0.4952371120,0.2276091576,0.0313290432,-34.5878829956,42.5027656555,-341.1978759766
        2.4875349998,       -0.4952371120,0.2588591576,0.0103329495,-36.7088546753,43.1283760071,-341.9455566406
        2.4901120663,       -0.4801003933,0.2588591576,0.0103329495,-36.7088546753,43.1283760071,-341.9455566406
        2.4926891327,       -0.4801003933,0.2588591576,0.0103329495,-39.6080245972,42.1823310852,-342.0676269531
        2.4952700138,       -0.4801003933,0.2588591576,0.0103329495,-39.6080245972,42.1823310852,-342.0676269531
        2.4978520870,       -0.4781472683,0.2520232201,0.0137509182,-43.3311691284,40.8242988586,-342.4338378906
        2.5004281998,       -0.4781472683,0.2520232201,0.0137509182,-43.3311691284,40.8242988586,-342.4338378906
        2.5030071735,       -0.4781472683,0.2520232201,0.0137509182,-48.8395919800,39.7409248352,-342.2965087891
        2.5055911541,       -0.4781472683,0.2520232201,0.0137509182,-48.8395919800,39.7409248352,-342.2965087891
        2.5082621574,       -0.5059792995,0.2158904076,0.0279110745,-54.5921554565,39.0237617493,-341.1215820312
        2.5108430386,       -0.5059792995,0.2158904076,0.0279110745,-54.5921554565,39.0237617493,-341.1215820312
        2.5134270191,       -0.5059792995,0.2158904076,0.0279110745,-62.4046554565,37.7725410461,-339.2905273438
        2.5160031319,       -0.5059792995,0.2158904076,0.0279110745,-60.5125656128,37.7725410461,-339.2905273438
        2.5187661648,       -0.5240457058,0.2280974388,0.0474423245,-64.4188156128,37.4673652649,-335.8420410156
        2.5214781761,       -0.5240457058,0.2280974388,0.0474423245,-66.8907394409,37.4673652649,-335.8420410156
        2.5241789818,       -0.5240457058,0.2280974388,0.0474423245,-74.7032394409,36.5365791321,-331.8137207031
        2.5268881321,       -0.5240457058,0.2280974388,0.0474423245,-72.8111495972,36.5365791321,-331.8137207031
        2.5296020508,       -0.4996316433,0.3028044701,0.0537899807,-76.7173995972,36.2008857727,-326.9003906250
        2.5323140621,       -0.4996316433,0.3028044701,0.0537899807,-76.5190353394,36.2008857727,-326.9003906250
        2.5350260735,       -0.4996316433,0.3028044701,0.0537899807,-80.4252853394,35.8651924133,-320.5069580078
        2.5377430916,       -0.4996316433,0.3814177513,0.0635556057,-79.9064865112,35.8651924133,-320.5069580078
        2.5404350758,       -0.4805886745,0.3814177513,0.0635556057,-79.9064865112,35.4226875305,-312.6486816406
        2.5430071354,       -0.4805886745,0.3814177513,0.0635556057,-84.1636886597,35.4226875305,-312.6486816406
        2.5455830097,       -0.4805886745,0.3814177513,0.0635556057,-84.1636886597,31.5164375305,-304.6683349609
        2.5483050346,       -0.5338113308,0.4756560326,0.0821102932,-88.8481369019,33.8052558899,-304.6683349609
        2.5510790348,       -0.5338113308,0.4756560326,0.0821102932,-88.8481369019,33.8052558899,-295.9250488281
        2.5539491177,       -0.5338113308,0.4756560326,0.0821102932,-92.7086105347,32.9202461243,-295.9250488281
        2.5565299988,       -0.5338113308,0.4756560326,0.0821102932,-92.7086105347,32.9202461243,-286.2509765625
        2.5592510700,       -0.4991433620,0.5713591576,0.1250790358,-93.6546554565,32.5845527649,-286.2509765625
        2.5618350506,       -0.4991433620,0.5713591576,0.1250790358,-93.6546554565,32.5845527649,-274.4864501953
        2.5644021034,       -0.4991433620,0.5713591576,0.1250790358,-90.4197921753,32.1725654602,-274.4864501953
        2.5669760704,       -0.4991433620,0.5713591576,0.1250790358,-90.4197921753,32.1725654602,-262.7677001953
        2.5695600510,       -0.3419167995,0.6353240013,0.1607235670,-83.1566085815,30.9976387024,-260.6009521484
        2.5721311569,       -0.3419167995,0.6353240013,0.1607235670,-83.1566085815,30.9976387024,-260.6009521484
        2.5747079849,       -0.3419167995,0.6353240013,0.1607235670,-75.3898849487,28.6630439758,-244.5029296875
        2.5772759914,       -0.3419167995,0.6353240013,0.1607235670,-75.3898849487,28.6630439758,-244.5029296875
        2.5798451900,       -0.1300027370,0.7715544701,0.1929501295,-69.6220626831,24.1159248352,-225.3684082031
        2.5824251175,       -0.1300027370,0.7715544701,0.1929501295,-69.6220626831,24.1159248352,-225.3684082031
        2.5849990845,       -0.1300027370,0.7715544701,0.1929501295,-66.4329757690,17.8903388977,-203.9908447266
        2.5875899792,       -0.1300027370,0.7715544701,0.1929501295,-66.4329757690,17.8903388977,-203.9908447266
        2.5901701450,        0.0013449192,1.0049529076,0.2451962233,-62.8166427612,10.8255195618,-181.3315429688
        2.5927381516,        0.0013449192,1.0049529076,0.2451962233,-62.8166427612,10.8255195618,-181.3315429688
        2.5953071117,        0.0013449192,1.0049529076,0.2451962233,-55.2330245972,4.2794990540,-157.9245605469
        2.5980460644,        0.0013449192,1.0049529076,0.2500790358,-55.2330245972,4.2794990540,-157.9245605469
        2.6006190777,        0.0838644505,1.1870818138,0.2500790358,-42.2935714722,-0.8627128601,-132.8696289062
        2.6031970978,        0.0838644505,1.1870818138,0.2500790358,-42.2935714722,-0.8627128601,-132.8696289062
        2.6057651043,        0.0838644505,1.1870818138,0.2500790358,-42.2935714722,-4.0365409851,-105.3427734375
        2.6084401608,        0.0838644505,1.1856169701,0.2095516920,-25.3410587311,-4.0365409851,-105.3427734375
        2.6110200882,        0.1019308567,1.1856169701,0.2095516920,-25.3410587311,-4.0365409851,-76.1069335938
        2.6137001514,        0.1019308567,1.1856169701,0.2095516920,-9.3803653717,-5.8523368835,-76.1069335938
        2.6162669659,        0.1019308567,1.1856169701,0.2095516920,-9.3803653717,-5.8523368835,-45.6809043884
        2.6188840866,        0.1019308567,1.0537810326,0.1641415358,0.8735408783,-6.3406181335,-45.6809043884
        2.6214520931,        0.0701925755,1.0537810326,0.1641415358,0.8735408783,-6.3406181335,-14.4309043884
        2.6240210533,        0.0701925755,1.0537810326,0.1641415358,4.4135799408,-6.4321708679,-16.6434288025
        2.6265850067,        0.0701925755,1.0537810326,0.1641415358,4.4135799408,-6.4321708679,-16.6434288025
        2.6292691231,        0.0428488255,0.9624724388,0.1695126295,2.2315731049,-6.6000175476,10.3188514709
        2.6319730282,        0.0428488255,0.9624724388,0.1695126295,2.2315731049,-6.6000175476,10.3188514709
        2.6346731186,        0.0428488255,0.9624724388,0.1695126295,-2.5291690826,-7.5918388367,34.8397254944
        2.6373841763,        0.0428488255,0.9624724388,0.1695126295,-2.5291690826,-7.5918388367,34.8397254944
        2.6400940418,        0.0506613255,0.9112029076,0.1900204420,-8.1138858795,-9.4381523132,56.7666053772
        2.6428861618,        0.0506613255,0.9112029076,0.1900204420,-8.1138858795,-9.4381523132,56.7666053772
        2.6454570293,        0.0506613255,0.9112029076,0.1900204420,-14.1258487701,-13.2833671570,77.5643310547
        2.6481411457,        0.0506613255,0.9112029076,0.1900204420,-14.1258487701,-13.2833671570,77.5643310547
        2.6508090496,        0.0584738255,0.8638396263,0.2158993483,-19.5732364655,-18.2119560242,96.7446289062
        2.6537370682,        0.0584738255,0.8638396263,0.2158993483,-19.5732364655,-18.2119560242,96.7446289062
        2.6563210487,        0.0584738255,0.8638396263,0.2158993483,-22.9301700592,-24.0102958679,112.8426513672
        2.6589360237,        0.0584738255,0.6431365013,0.3301571608,-22.9301700592,-24.0102958679,112.8426513672
        2.6615030766,        0.0355246067,0.6431365013,0.3301571608,-27.7366886139,-32.2958183289,122.5472412109
        2.6640729904,        0.0355246067,0.6431365013,0.3301571608,-27.7366886139,-32.2958183289,122.5472412109
        2.6666491032,        0.0355246067,0.6431365013,0.3301571608,-39.5927658081,-37.3159599304,116.3826904297
        2.6692881584,       -0.2144753933,-0.2968049049,0.0113095120,-39.5927658081,-37.3159599304,116.3826904297
        2.6718640327,       -0.2852761745,-0.2968049049,0.0113095120,-30.2849063873,-27.4740409851,101.2307128906
        2.6744391918,       -0.2852761745,-0.2968049049,0.0113095120,-30.2849063873,-27.4740409851,101.2307128906
        2.6771299839,       -0.2852761745,-0.2968049049,0.0113095120,-23.3879337311,-11.9405937195,86.8264160156
        2.6797120571,       -0.2310769558,-1.1322541237,-0.2548037767,-23.3879337311,-11.9405937195,86.8264160156
        2.6822850704,       -0.2310769558,-1.1322541237,-0.2548037767,-36.2510910034,-4.3722343445,70.1027832031
        2.6848530769,       -0.2310769558,-1.1322541237,-0.2548037767,-36.2510910034,-4.3722343445,70.1027832031
        2.6874771118,       -0.2310769558,-1.1322541237,-0.2548037767,-36.2510910034,1.8991279602,55.4543495178
        2.6900420189,       -0.3321511745,-1.4261994362,-0.6708194017,-43.9567794800,1.8991279602,55.4543495178
        2.6926050186,       -0.3321511745,-1.4261994362,-0.6708194017,-43.9567794800,1.8991279602,55.0881385803
        2.6951711178,       -0.3321511745,-1.4261994362,-0.6708194017,-58.6509933472,7.8042793274,55.0881385803
        2.6979601383,       -0.3321511745,-1.4261994362,-0.6708194017,-58.6509933472,7.8042793274,69.3703613281
        2.7005450726,       -0.1988503933,-0.5131134987,-0.4530459642,-106.5025558472,6.0952949524,69.3703613281
        2.7031199932,       -0.1988503933,-0.5131134987,-0.4530459642,-106.5025558472,6.0952949524,81.0891113281
        2.7056961060,       -0.1988503933,-0.5131134987,-0.4530459642,-152.4162597656,3.2571601868,83.3779296875
        2.7084171772,       -0.1988503933,-0.5131134987,-0.4530459642,-152.4162597656,3.2571601868,83.3779296875
        2.7109870911,       -0.1490457058,0.3980193138,-0.1341983080,-171.0319824219,-1.0153007507,95.2950439453
        2.7135581970,       -0.1490457058,0.3980193138,-0.1341983080,-171.0319824219,-1.0153007507,95.2950439453
        2.7161359787,       -0.1490457058,0.3980193138,-0.1341983080,-177.8374023438,-11.8795585632,106.1440429688
        2.7188000679,       -0.1490457058,0.3980193138,-0.1341983080,-177.8374023438,-11.8795585632,106.1440429688
        2.7215070724,       -0.2642800808,0.5703825951,0.0210751370,-164.8674316406,-21.4315605164,109.6077880859
        2.7242150307,       -0.2642800808,0.5703825951,0.0210751370,-164.8674316406,-21.4315605164,109.6077880859
        2.7269220352,       -0.2642800808,0.5703825951,0.0210751370,-136.0130615234,-25.6429862976,107.2579345703
        2.7296380997,       -0.2642800808,0.4883513451,-0.1581240892,-136.0130615234,-25.6429862976,107.2579345703
        2.7323441505,       -0.4361550808,0.4883513451,-0.1581240892,-108.5472335815,-25.1699638367,100.4982910156
        2.7350540161,       -0.4361550808,0.4883513451,-0.1581240892,-108.5472335815,-25.1699638367,100.4982910156
        2.7377700806,       -0.4361550808,0.4883513451,-0.1581240892,-76.2291183472,-21.4468193054,90.3664550781
        2.7405960560,       -0.2652566433,0.4932341576,-0.3011904955,-76.2291183472,-21.4468193054,90.3664550781
        2.7433111668,       -0.2652566433,0.4932341576,-0.3011904955,-51.5098800659,-20.2566337585,79.8836669922
        2.7460110188,       -0.2652566433,0.4932341576,-0.3011904955,-51.5098800659,-20.2566337585,79.8836669922
        2.7487361431,       -0.2652566433,0.4932341576,-0.3011904955,-41.7900314331,-20.6686210632,72.9866943359
        2.7514121532,       -0.0577371120,0.4361052513,-0.0438662693,-41.7900314331,-20.6686210632,72.9866943359
        2.7543601990,       -0.0577371120,0.4361052513,-0.0438662693,-39.8063888550,-22.9726982117,69.1414794922
        2.7569420338,       -0.0577371120,0.4361052513,-0.0438662693,-39.8063888550,-22.9726982117,69.1414794922
        2.7597332001,       -0.0577371120,0.1861052513,0.1162899807,-36.4341964722,-26.7568778992,66.4101562500
        2.7623050213,       -0.0157449245,0.2466521263,0.1162899807,-36.4341964722,-26.7568778992,66.4101562500
        2.7648820877,       -0.0157449245,0.2466521263,0.1162899807,-28.7590274811,-29.8391532898,63.9687538147
        2.7675211430,       -0.0157449245,0.2466521263,0.1162899807,-28.7590274811,-29.8391532898,63.9687538147
        2.7700991631,       -0.0157449245,0.0752654150,0.1182431057,-20.2903995514,-28.5268974304,61.0390663147
        2.7726681232,        0.0164816380,0.0752654150,0.1182431057,-20.2903995514,-28.5268974304,61.0390663147
        2.7752451897,        0.0164816380,0.0752654150,0.1182431057,-12.7525577545,-25.6887626648,58.0330848694
        2.7778260708,        0.0164816380,0.0752654150,0.1182431057,-12.7525577545,-25.6887626648,58.0330848694
        2.7804009914,        0.1414816380,0.1460661888,0.1626766920,-7.8392276764,-24.3612480164,54.7219276428
        2.7829720974,        0.1112082005,0.1460661888,0.1626766920,-7.8392276764,-24.3612480164,54.7219276428
        2.7855441570,        0.1112082005,0.1460661888,0.1626766920,-3.9329776764,-25.3835868835,51.1208534241
        2.7881631851,        0.1112082005,0.1460661888,0.1626766920,-3.8414249420,-25.3835868835,51.1208534241
        2.7907311916,        0.1595480442,0.2539763451,0.2285946608,-3.8414249420,-25.3835868835,47.3519325256
        2.7933001518,        0.1595480442,0.2539763451,0.2285946608,2.0332088470,-26.7568778992,47.3519325256
        2.7958710194,        0.1595480442,0.2539763451,0.2285946608,2.0332088470,-30.6631278992,43.5372352600
        2.7986061573,        0.1595480442,0.2539763451,0.2285946608,10.1203670502,-27.2451591492,43.5372352600
        2.8011801243,        0.1468527317,0.1807341576,0.2491024733,10.1203670502,-27.2451591492,38.7612342834
        2.8038630486,        0.1468527317,0.1807341576,0.2491024733,18.1617488861,-26.6042900085,38.7612342834
        2.8064379692,        0.1468527317,0.1807341576,0.2491024733,18.1617488861,-26.6042900085,34.8549842834
        2.8091731071,        0.1468527317,0.1807341576,0.2491024733,25.8979549408,-25.0021171570,33.7563514709
        2.8117470741,        0.0794699192,0.1153044775,0.1900204420,25.8979549408,-25.0021171570,33.7563514709
        2.8143169880,        0.0794699192,0.1153044775,0.1900204420,34.6870193481,-23.2778739929,29.9111366272
        2.8168871403,        0.0794699192,0.1153044775,0.1900204420,34.6870193481,-23.2778739929,29.9111366272
        2.8194830418,        0.0794699192,0.1153044775,0.1900204420,44.1474685669,-21.8130302429,27.9732704163
        2.8220500946,       -0.0440652370,0.2222380638,0.0806454495,44.1474685669,-21.8130302429,27.9732704163
        2.8246240616,       -0.0440652370,0.2222380638,0.0806454495,50.6629714966,-20.1193046570,27.9274940491
        2.8272039890,       -0.0440652370,0.2222380638,0.0806454495,50.6629714966,-20.1193046570,27.9274940491
        2.8299679756,       -0.0440652370,0.2222380638,-0.0443545505,55.2863845825,-17.2353935242,26.5999794006
