time_stamp before, time_stamp after, Acceleration x, Acceleration y, Acceleration z, Gyro x, Gyro y, Gyro z
1488506911.0288660526,1488506911.0354440212,        0.5864257812,        0.0654296875,       -0.0322265625,       21.4691162109,      -15.2587890625,      -18.5546875000
1488506911.0357520580,1488506911.0384690762,        0.5864257812,        0.0654296875,       -0.0322265625,       20.2636718750,      -14.8773193359,      -16.8457031250
1488506911.0387771130,1488506911.0410649776,        0.5864257812,        0.0654296875,       -0.0322265625,       20.2636718750,      -14.8773193359,      -15.1367187500
1488506911.0413489342,1488506911.0437140465,        0.5908203125,        0.0424804688,       -0.0249023438,       20.0653076172,      -14.9688720703,      -15.1367187500
1488506911.0439989567,1488506911.0462779999,        0.5908203125,        0.0424804688,       -0.0249023438,       20.0653076172,      -14.9688720703,      -15.1367187500
1488506911.0465600491,1488506911.0488450527,        0.5908203125,        0.0424804688,       -0.0249023438,       20.6756591797,      -14.7857666016,      -13.6108398438
1488506911.0491280556,1488506911.0514099598,        0.5908203125,        0.0424804688,       -0.0249023438,       20.6756591797,      -14.7857666016,      -13.6108398438
1488506911.0517299175,1488506911.0540139675,        0.5917968750,        0.0268554688,       -0.0317382812,       21.7132568359,      -14.1143798828,      -12.1154785156
1488506911.0542950630,1488506911.0565810204,        0.5917968750,        0.0268554688,       -0.0317382812,       21.7132568359,      -14.1143798828,      -12.1154785156
1488506911.0568621159,1488506911.0591409206,        0.5917968750,        0.0268554688,       -0.0317382812,       22.9949951172,      -13.1225585938,      -10.8337402344
1488506911.0594229698,1488506911.0617558956,        0.5917968750,        0.0268554688,       -0.0317382812,       22.9949951172,      -13.1225585938,      -10.8337402344
1488506911.0620379448,1488506911.0643219948,        0.5898437500,        0.0253906250,        0.0073242188,       24.3835449219,      -12.6037597656,      -10.1318359375
1488506911.0646049976,1488506911.0668880939,        0.5898437500,        0.0253906250,        0.0073242188,       24.3835449219,      -12.6037597656,      -10.1318359375
1488506911.0671689510,1488506911.0694561005,        0.5898437500,        0.0253906250,        0.0073242188,       25.8026123047,      -11.5661621094,       -9.2926025391
1488506911.0697369576,1488506911.0720779896,        0.5898437500,        0.0253906250,        0.0073242188,       25.8026123047,      -11.5661621094,       -9.2926025391
1488506911.0723590851,1488506911.0746419430,        0.6005859375,        0.0400390625,       -0.0097656250,       26.8402099609,      -10.5285644531,       -8.3312988281
1488506911.0749258995,1488506911.0772171021,        0.6005859375,        0.0400390625,       -0.0097656250,       26.8402099609,      -10.5285644531,       -8.3312988281
1488506911.0775001049,1488506911.0797860622,        0.6005859375,        0.0400390625,       -0.0097656250,       30.7464599609,       -9.6435546875,       -7.1411132812
1488506911.0800650120,1488506911.0824840069,        0.6005859375,        0.0400390625,       -0.0097656250,       27.4810791016,       -9.6435546875,       -7.1411132812
1488506911.0827660561,1488506911.0850529671,        0.5859375000,        0.0312500000,        0.0083007812,       27.4810791016,       -8.1176757812,       -5.6915283203
1488506911.0853350163,1488506911.0876250267,        0.5859375000,        0.0312500000,        0.0083007812,       28.0914306641,       -8.1176757812,       -5.6915283203
1488506911.0879049301,1488506911.0901949406,        0.5859375000,        0.0312500000,        0.0083007812,       28.0914306641,       -8.1176757812,       -3.7078857422
1488506911.0904750824,1488506911.0927700996,        0.5859375000,        0.0312500000,        0.0083007812,       28.9459228516,       -7.1868896484,       -3.7078857422
1488506911.0930500031,1488506911.0953359604,        0.5976562500,        0.0175781250,       -0.0097656250,       28.9459228516,       -7.1868896484,       -3.7078857422
1488506911.0957839489,1488506911.0980761051,        0.5976562500,        0.0175781250,       -0.0097656250,       29.1137695312,       -5.8746337891,       -2.1362304688
1488506911.0983550549,1488506911.1006379128,        0.5976562500,        0.0175781250,       -0.0097656250,       29.1137695312,       -5.8746337891,       -2.1362304688
1488506911.1009171009,1488506911.1033320427,        0.5976562500,        0.0175781250,       -0.0024414062,       28.3050537109,       -5.1422119141,       -0.3509521484
1488506911.1036179066,1488506911.1060490608,        0.5849609375,        0.0034179688,       -0.0024414062,       28.3050537109,       -5.1422119141,       -0.3509521484
1488506911.1063370705,1488506911.1087510586,        0.5849609375,        0.0034179688,       -0.0024414062,       27.9083251953,       -4.1503906250,        1.1444091797
1488506911.1090369225,1488506911.1114490032,        0.5849609375,        0.0034179688,       -0.0024414062,       27.9083251953,       -4.1503906250,        1.1444091797
1488506911.1117451191,1488506911.1141669750,        0.5849609375,       -0.0009765625,       -0.0185546875,       27.0996093750,       -3.7384033203,        3.0212402344
1488506911.1144518852,1488506911.1168720722,        0.5864257812,       -0.0009765625,       -0.0185546875,       27.0996093750,       -3.7384033203,        3.0212402344
1488506911.1171569824,1488506911.1195731163,        0.5864257812,       -0.0009765625,       -0.0185546875,       25.2838134766,       -3.7231445312,        5.2490234375
1488506911.1198570728,1488506911.1224379539,        0.5864257812,       -0.0009765625,       -0.0185546875,       25.2838134766,       -3.7231445312,        5.2490234375
1488506911.1227231026,1488506911.1251139641,        0.5776367188,       -0.0073242188,       -0.0253906250,       22.2473144531,       -3.3721923828,        7.4920654297
1488506911.1254019737,1488506911.1284000874,        0.5776367188,       -0.0073242188,       -0.0253906250,       22.2473144531,       -3.3721923828,        9.6740722656
1488506911.1286909580,1488506911.1311140060,        0.5776367188,       -0.0073242188,       -0.0253906250,       19.7143554688,       -3.2196044922,        9.6740722656
1488506911.1314010620,1488506911.1338250637,        0.5776367188,       -0.0073242188,       -0.0297851562,       19.7143554688,       -3.2196044922,       11.3677978516
1488506911.1341168880,1488506911.1365280151,        0.5854492188,       -0.0185546875,       -0.0297851562,       17.5628662109,       -3.1890869141,       11.3677978516
1488506911.1368160248,1488506911.1392369270,        0.5854492188,       -0.0185546875,       -0.0297851562,       17.5628662109,       -3.1890869141,       12.6190185547
1488506911.1395249367,1488506911.1419520378,        0.5854492188,       -0.0185546875,       -0.0297851562,       14.6789550781,       -2.6397705078,       12.6190185547
1488506911.1422400475,1488506911.1446559429,        0.5854492188,        0.0097656250,       -0.0551757812,       14.6789550781,       -2.6397705078,       14.8925781250
1488506911.1449460983,1488506911.1473701000,        0.5961914062,        0.0097656250,       -0.0551757812,       11.6577148438,       -2.3956298828,       14.8925781250
1488506911.1476609707,1488506911.1500720978,        0.5961914062,        0.0097656250,       -0.0551757812,       11.6577148438,       -2.3956298828,       16.8304443359
1488506911.1503610611,1488506911.1527919769,        0.5961914062,        0.0097656250,       -0.0551757812,        8.6364746094,       -2.8533935547,       16.8304443359
1488506911.1530780792,1488506911.1554949284,        0.6035156250,        0.0390625000,       -0.0527343750,        8.6364746094,       -2.8533935547,       19.1192626953
1488506911.1557800770,1488506911.1581950188,        0.6035156250,        0.0390625000,       -0.0527343750,        5.1422119141,       -2.6702880859,       19.1192626953
1488506911.1584808826,1488506911.1609029770,        0.6035156250,        0.0390625000,       -0.0527343750,        5.1422119141,       -2.6702880859,       21.3012695312
1488506911.1612999439,1488506911.1636300087,        0.6035156250,        0.0390625000,       -0.0527343750,        1.6479492188,       -2.5939941406,       21.3012695312
1488506911.1639080048,1488506911.1662011147,        0.6396484375,        0.0483398438,       -0.1171875000,        1.6479492188,       -2.5939941406,       23.5443115234
1488506911.1664800644,1488506911.1687719822,        0.6396484375,        0.0483398438,       -0.1171875000,        0.6866455078,       -4.5623779297,       23.5443115234
1488506911.1690509319,1488506911.1713440418,        0.6396484375,        0.0483398438,       -0.1171875000,        0.6866455078,       -4.5623779297,       23.5443115234
1488506911.1716220379,1488506911.1739599705,        0.6396484375,        0.0483398438,       -0.1171875000,       -0.0610351562,       -3.2958984375,       28.4729003906
1488506911.1742389202,1488506911.1765398979,        0.6938476562,       -0.0620117188,       -0.0083007812,       -0.0610351562,       -3.2958984375,       28.4729003906
1488506911.1768178940,1488506911.1791141033,        0.6938476562,       -0.0620117188,       -0.0083007812,       -5.9051513672,        2.1057128906,       30.2581787109
1488506911.1793930531,1488506911.1818358898,        0.6938476562,       -0.0620117188,       -0.0083007812,       -5.9051513672,        2.1057128906,       30.2581787109
1488506911.1821260452,1488506911.1845409870,        0.6938476562,        0.1879882812,        0.0327148438,      -11.5814208984,        3.9367675781,       28.3966064453
1488506911.1848289967,1488506911.1872439384,        0.6459960938,        0.1425781250,        0.0327148438,      -11.5814208984,        3.9367675781,       28.3966064453
1488506911.1875329018,1488506911.1899559498,        0.6459960938,        0.1425781250,        0.0327148438,      -13.1683349609,        1.5869140625,       29.4647216797
1488506911.1902449131,1488506911.1927099228,        0.6459960938,        0.1425781250,        0.0327148438,      -13.1683349609,        1.5869140625,       29.4647216797
1488506911.1930000782,1488506911.1954200268,        0.6303710938,        0.1040039062,       -0.1313476562,      -17.2119140625,       -1.1596679688,       31.9061279297
1488506911.1957108974,1488506911.1981270313,        0.6303710938,        0.1040039062,       -0.1313476562,      -17.2119140625,       -1.1596679688,       31.9061279297
1488506911.1984169483,1488506911.2008309364,        0.6303710938,        0.1040039062,       -0.1313476562,      -21.4080810547,       -1.6174316406,       33.1878662109
1488506911.2011189461,1488506911.2035520077,        0.6303710938,        0.1040039062,       -0.1313476562,      -21.4080810547,       -1.6174316406,       33.1878662109
1488506911.2038409710,1488506911.2062599659,        0.6987304688,        0.1015625000,       -0.1430664062,      -20.3857421875,       -0.8850097656,       31.8450927734
1488506911.2065498829,1488506911.2089691162,        0.6987304688,        0.1015625000,       -0.1430664062,      -20.3857421875,       -0.8850097656,       31.8450927734
1488506911.2092590332,1488506911.2117190361,        0.6987304688,        0.1015625000,       -0.1430664062,      -15.0451660156,       -1.4343261719,       28.8391113281
1488506911.2120099068,1488506911.2144260406,        0.6987304688,        0.1015625000,       -0.1430664062,      -15.0451660156,       -1.4343261719,       28.8391113281
1488506911.2147150040,1488506911.2171330452,        0.6376953125,        0.1464843750,       -0.1337890625,      -10.1165771484,       -2.7313232422,       25.7415771484
1488506911.2174201012,1488506911.2198350430,        0.6376953125,        0.1464843750,       -0.1337890625,      -10.1165771484,       -2.7313232422,       25.7415771484
1488506911.2201240063,1488506911.2225129604,        0.6376953125,        0.1464843750,       -0.1337890625,       -7.2937011719,       -3.5552978516,       23.6206054688
1488506911.2227900028,1488506911.2250869274,        0.6376953125,        0.1440429688,       -0.1191406250,       -7.2937011719,       -3.5552978516,       23.6206054688
1488506911.2254750729,1488506911.2277710438,        0.6411132812,        0.1440429688,       -0.1191406250,       -6.7596435547,       -2.8686523438,       22.7966308594
1488506911.2280499935,1488506911.2303409576,        0.6411132812,        0.1440429688,       -0.1191406250,       -6.7596435547,       -2.8686523438,       22.7966308594
1488506911.2306180000,1488506911.2329170704,        0.6411132812,        0.1440429688,       -0.1191406250,       -7.3699951172,       -2.2735595703,       22.4914550781
1488506911.2331960201,1488506911.2354860306,        0.6411132812,        0.0981445312,       -0.0776367188,       -7.3699951172,       -2.2735595703,       22.4914550781
1488506911.2357630730,1488506911.2381339073,        0.6425781250,        0.0981445312,       -0.0776367188,       -8.3007812500,       -1.7852783203,       22.1557617188
1488506911.2384140491,1488506911.2407069206,        0.6425781250,        0.0981445312,       -0.0776367188,       -8.3007812500,       -1.7852783203,       22.1557617188
1488506911.2409870625,1488506911.2433729172,        0.6425781250,        0.0981445312,       -0.0776367188,       -9.7808837891,       -1.8310546875,       22.0031738281
1488506911.2436590195,1488506911.2460770607,        0.6250000000,        0.0434570312,       -0.0786132812,       -9.7808837891,       -1.8310546875,       22.0031738281
1488506911.2463619709,1488506911.2487809658,        0.6250000000,        0.0434570312,       -0.0786132812,      -10.2539062500,       -2.7770996094,       22.0184326172
1488506911.2490720749,1488506911.2514889240,        0.6250000000,        0.0434570312,       -0.0786132812,      -10.2539062500,       -2.7770996094,       22.0184326172
1488506911.2517869473,1488506911.2542090416,        0.6250000000,        0.0434570312,       -0.0786132812,      -10.2539062500,       -2.7465820312,       21.3317871094
1488506911.2544980049,1488506911.2569088936,        0.6450195312,        0.0307617188,       -0.1059570312,      -10.2539062500,       -2.7465820312,       21.3317871094
1488506911.2572000027,1488506911.2596139908,        0.6450195312,        0.0307617188,       -0.1059570312,       -9.2315673828,       -3.3874511719,       20.4772949219
1488506911.2598989010,1488506911.2623300552,        0.6450195312,        0.0307617188,       -0.1059570312,       -9.2315673828,       -3.3874511719,       20.4772949219
1488506911.2626180649,1488506911.2650299072,        0.6450195312,        0.0307617188,       -0.1191406250,       -7.6599121094,       -4.0283203125,       19.9584960938
1488506911.2653150558,1488506911.2677280903,        0.6567382812,        0.0390625000,       -0.1191406250,       -7.6599121094,       -4.0283203125,       19.9584960938
1488506911.2680139542,1488506911.2704401016,        0.6567382812,        0.0390625000,       -0.1191406250,       -7.6599121094,       -4.6997070312,       18.6004638672
1488506911.2707269192,1488506911.2730839252,        0.6567382812,        0.0390625000,       -0.1191406250,       -6.9732666016,       -4.6997070312,       18.6004638672
1488506911.2733631134,1488506911.2756559849,        0.6567382812,        0.0717773438,       -0.1323242188,       -6.9732666016,       -5.3253173828,       17.8222656250
1488506911.2759330273,1488506911.2782249451,        0.6572265625,        0.0717773438,       -0.1323242188,       -7.1258544922,       -5.3253173828,       17.8222656250
1488506911.2785029411,1488506911.2808001041,        0.6572265625,        0.0717773438,       -0.1323242188,       -7.1258544922,       -5.3253173828,       17.0288085938
1488506911.2810781002,1488506911.2835290432,        0.6572265625,        0.0717773438,       -0.1323242188,       -8.4228515625,       -5.0811767578,       17.0288085938
1488506911.2838079929,1488506911.2860989571,        0.6655273438,        0.0859375000,       -0.1264648438,       -8.4228515625,       -5.0811767578,       16.4794921875
1488506911.2863769531,1488506911.2886691093,        0.6655273438,        0.0859375000,       -0.1264648438,      -10.2539062500,       -4.6386718750,       16.4794921875
1488506911.2890589237,1488506911.2913539410,        0.6655273438,        0.0859375000,       -0.1264648438,      -10.2539062500,       -4.6386718750,       16.4031982422
1488506911.2916359901,1488506911.2940740585,        0.6655273438,        0.0859375000,       -0.1264648438,      -12.1459960938,       -4.0130615234,       16.4031982422
1488506911.2943639755,1488506911.2967801094,        0.6650390625,        0.0737304688,       -0.0961914062,      -12.1459960938,       -4.0130615234,       16.4031982422
1488506911.2970700264,1488506911.2994840145,        0.6650390625,        0.0737304688,       -0.0961914062,      -13.1225585938,       -4.0130615234,       15.8996582031
1488506911.2997739315,1488506911.3022019863,        0.6650390625,        0.0737304688,       -0.0961914062,      -13.1225585938,       -4.0130615234,       11.9934082031
1488506911.3024919033,1488506911.3049099445,        0.6650390625,        0.0737304688,       -0.0961914062,      -12.3138427734,       -3.8604736328,       14.7857666016
1488506911.3051989079,1488506911.3076179028,        0.6542968750,        0.0688476562,       -0.0903320312,      -12.3138427734,       -3.8604736328,       14.7857666016
1488506911.3079071045,1488506911.3103239536,        0.6542968750,        0.0688476562,       -0.0903320312,      -11.6882324219,       -4.0283203125,       13.8244628906
1488506911.3106129169,1488506911.3130359650,        0.6542968750,        0.0688476562,       -0.0903320312,      -11.6882324219,       -4.0283203125,       13.8244628906
1488506911.3133239746,1488506911.3157410622,        0.6542968750,        0.0688476562,       -0.1098632812,      -10.8947753906,       -3.9367675781,       13.1530761719
1488506911.3160319328,1488506911.3184490204,        0.6416015625,        0.0644531250,       -0.1098632812,      -10.8947753906,       -3.9367675781,       13.1530761719
1488506911.3187379837,1488506911.3211541176,        0.6416015625,        0.0644531250,       -0.1098632812,      -11.0626220703,       -3.6315917969,       12.3138427734
1488506911.3214418888,1488506911.3239009380,        0.6416015625,        0.0644531250,       -0.1098632812,      -11.0626220703,       -3.6315917969,        8.4075927734
1488506911.3241870403,1488506911.3266019821,        0.6166992188,        0.0708007812,       -0.1201171875,      -11.1846923828,       -3.7994384766,       11.0015869141
1488506911.3268918991,1488506911.3294050694,        0.6166992188,        0.0708007812,       -0.1201171875,      -11.1846923828,       -3.7994384766,       11.0015869141
1488506911.3296880722,1488506911.3320460320,        0.6166992188,        0.0708007812,       -0.1201171875,      -10.9863281250,       -4.1198730469,       10.4522705078
1488506911.3323309422,1488506911.3346250057,        0.6166992188,        0.0708007812,       -0.1201171875,      -10.9863281250,       -4.1198730469,       10.4522705078
1488506911.3349080086,1488506911.3372020721,        0.6137695312,        0.0732421875,       -0.1455078125,      -10.1318359375,       -4.2419433594,       10.0402832031
1488506911.3374819756,1488506911.3397750854,        0.6137695312,        0.0732421875,       -0.1455078125,      -10.1318359375,       -4.2419433594,       10.0402832031
1488506911.3400580883,1488506911.3424899578,        0.6137695312,        0.0732421875,       -0.1455078125,       -8.6975097656,       -4.2114257812,        9.1094970703
1488506911.3427729607,1488506911.3452041149,        0.6137695312,        0.0732421875,       -0.1455078125,       -8.6975097656,       -4.2114257812,        9.1094970703
1488506911.3454859257,1488506911.3479039669,        0.6337890625,        0.0668945312,       -0.1489257812,       -7.2021484375,       -4.1198730469,        8.1329345703
1488506911.3481869698,1488506911.3505959511,        0.6337890625,        0.0668945312,       -0.1489257812,       -7.2021484375,       -4.1198730469,        8.1329345703
1488506911.3508780003,1488506911.3533139229,        0.6337890625,        0.0668945312,       -0.1489257812,       -5.5236816406,       -3.9367675781,        7.6751708984
1488506911.3536999226,1488506911.3561129570,        0.6337890625,        0.0668945312,       -0.1445312500,       -5.5236816406,       -3.9367675781,        7.6751708984
1488506911.3563940525,1488506911.3588190079,        0.6225585938,        0.0639648438,       -0.1445312500,       -4.5623779297,       -4.0130615234,        6.6070556641
1488506911.3591001034,1488506911.3615100384,        0.6225585938,        0.0639648438,       -0.1445312500,       -4.5623779297,       -4.0130615234,        6.6070556641
1488506911.3618009090,1488506911.3642189503,        0.6225585938,        0.0639648438,       -0.1445312500,       -3.4484863281,       -3.6773681641,        5.9051513672
1488506911.3644990921,1488506911.3669230938,        0.6225585938,        0.0590820312,       -0.1425781250,       -3.4484863281,       -3.6773681641,        5.9051513672
1488506911.3672020435,1488506911.3696188927,        0.6191406250,        0.0590820312,       -0.1425781250,       -2.0599365234,       -2.8533935547,        5.5389404297
1488506911.3698990345,1488506911.3722999096,        0.6191406250,        0.0590820312,       -0.1425781250,       -2.0599365234,       -2.8533935547,        5.5389404297
1488506911.3725759983,1488506911.3748729229,        0.6191406250,        0.0590820312,       -0.1425781250,       -1.4801025391,       -3.3416748047,        5.0659179688
1488506911.3751471043,1488506911.3774390221,        0.6074218750,        0.0708007812,       -0.1411132812,       -1.4801025391,       -3.3416748047,        5.0659179688
1488506911.3777120113,1488506911.3800089359,        0.6074218750,        0.0708007812,       -0.1411132812,       -1.2359619141,       -3.4179687500,        4.5166015625
1488506911.3802819252,1488506911.3825829029,        0.6074218750,        0.0708007812,       -0.1411132812,       -1.2359619141,       -3.4179687500,        4.5166015625
1488506911.3828570843,1488506911.3851449490,        0.6074218750,        0.0708007812,       -0.1411132812,       -0.8544921875,       -4.0130615234,        3.9978027344
1488506911.3854210377,1488506911.3877151012,        0.6010742188,        0.0795898438,       -0.1367187500,       -0.8544921875,       -4.0130615234,        3.9978027344
1488506911.3879899979,1488506911.3902819157,        0.6010742188,        0.0795898438,       -0.1367187500,       -0.6713867188,       -4.2266845703,        3.7689208984
1488506911.3905549049,1488506911.3930010796,        0.6010742188,        0.0795898438,       -0.1367187500,       -0.6713867188,       -4.2266845703,        3.7689208984
1488506911.3932750225,1488506911.3955740929,        0.6010742188,        0.0795898438,       -0.1367187500,       -0.6713867188,       -3.9978027344,        3.1890869141
1488506911.3958480358,1488506911.3981409073,        0.6157226562,        0.0742187500,       -0.1464843750,       -0.7476806641,       -3.9978027344,        3.1890869141
1488506911.3984160423,1488506911.4007110596,        0.6157226562,        0.0742187500,       -0.1464843750,       -0.7476806641,       -3.9978027344,        2.9907226562
1488506911.4009869099,1488506911.4034891129,        0.6157226562,        0.0742187500,       -0.1464843750,       -0.6561279297,       -4.1351318359,        2.9907226562
1488506911.4037699699,1488506911.4061889648,        0.6157226562,        0.0742187500,       -0.1464843750,       -0.6561279297,       -4.1351318359,        2.9754638672
1488506911.4064700603,1488506911.4088881016,        0.5961914062,        0.0703125000,       -0.1430664062,       -0.3204345703,       -4.4555664062,        2.9754638672
1488506911.4091699123,1488506911.4115860462,        0.5961914062,        0.0703125000,       -0.1430664062,       -0.3204345703,       -4.4555664062,        2.7618408203
1488506911.4119179249,1488506911.4143331051,        0.5961914062,        0.0703125000,       -0.1430664062,       -0.5493164062,       -5.0354003906,        2.7618408203
1488506911.4146161079,1488506911.4170360565,        0.5961914062,        0.0815429688,       -0.1621093750,       -0.5493164062,       -5.0354003906,        2.5024414062
1488506911.4174170494,1488506911.4198360443,        0.5937500000,        0.0815429688,       -0.1621093750,       -1.0528564453,       -4.6386718750,        2.5024414062
1488506911.4201180935,1488506911.4225459099,        0.5937500000,        0.0815429688,       -0.1621093750,       -1.0528564453,       -4.7149658203,        2.2735595703
1488506911.4228260517,1488506911.4252409935,        0.5937500000,        0.0815429688,       -0.1621093750,       -1.2054443359,       -4.7149658203,        2.2735595703
1488506911.4255230427,1488506911.4279360771,        0.6020507812,        0.0610351562,       -0.1567382812,       -1.2054443359,       -4.7149658203,        1.9378662109
1488506911.4282159805,1488506911.4306349754,        0.6020507812,        0.0610351562,       -0.1567382812,       -0.5798339844,       -5.0201416016,        1.9378662109
1488506911.4309170246,1488506911.4332640171,        0.6020507812,        0.0610351562,       -0.1567382812,       -0.5798339844,       -5.0201416016,        1.8615722656
1488506911.4335389137,1488506911.4358310699,        0.6020507812,        0.0610351562,       -0.1567382812,        0.4119873047,       -5.4626464844,        1.8615722656
1488506911.4361050129,1488506911.4384009838,        0.5976562500,        0.0781250000,       -0.1616210938,        0.4119873047,       -5.4626464844,        2.0294189453
1488506911.4386761189,1488506911.4409630299,        0.5976562500,        0.0781250000,       -0.1616210938,        0.6408691406,       -4.8217773438,        2.0294189453
1488506911.4412391186,1488506911.4436459541,        0.5976562500,        0.0781250000,       -0.1616210938,        0.6408691406,       -4.8217773438,        2.0294189453
1488506911.4439289570,1488506911.4463460445,        0.5976562500,        0.0781250000,       -0.1616210938,        0.6256103516,       -4.3182373047,        2.4566650391
1488506911.4466280937,1488506911.4490430355,        0.6083984375,        0.0981445312,       -0.1562500000,        0.6256103516,       -4.3182373047,        2.4566650391
1488506911.4493229389,1488506911.4517579079,        0.6083984375,        0.0981445312,       -0.1562500000,        1.5563964844,       -4.7149658203,        2.6245117188
1488506911.4520390034,1488506911.4544529915,        0.6083984375,        0.0981445312,       -0.1562500000,        1.5563964844,       -4.7149658203,        2.6245117188
1488506911.4547340870,1488506911.4571480751,        0.6083984375,        0.0981445312,       -0.1459960938,        2.0141601562,       -4.5623779297,        2.5939941406
1488506911.4574298859,1488506911.4599010944,        0.6186523438,        0.0908203125,       -0.1459960938,        2.0141601562,       -4.5623779297,        2.5939941406
1488506911.4601840973,1488506911.4629290104,        0.6186523438,        0.0908203125,       -0.1459960938,        2.1820068359,       -3.9367675781,        2.4871826172
1488506911.4632120132,1488506911.4656450748,        0.6186523438,        0.0908203125,       -0.1459960938,        2.1820068359,       -3.9367675781,        2.4566650391
1488506911.4659268856,1488506911.4683449268,        0.6069335938,        0.0888671875,       -0.1181640625,        2.1057128906,       -3.5400390625,        2.4566650391
1488506911.4686279297,1488506911.4710409641,        0.6069335938,        0.0888671875,       -0.1181640625,        2.1057128906,       -3.5400390625,        2.5329589844
1488506911.4713220596,1488506911.4737520218,        0.6069335938,        0.0888671875,       -0.1181640625,        1.9531250000,       -3.1585693359,        2.5329589844
1488506911.4740319252,1488506911.4764480591,        0.6069335938,        0.0888671875,       -0.1181640625,        1.9531250000,       -3.1585693359,        2.5329589844
1488506911.4767279625,1488506911.4791469574,        0.6274414062,        0.0727539062,       -0.1420898438,        1.7089843750,       -2.9907226562,        2.5787353516
1488506911.4794270992,1488506911.4818749428,        0.6274414062,        0.0727539062,       -0.1420898438,        1.7089843750,       -2.9907226562,        2.5787353516
1488506911.4821500778,1488506911.4844419956,        0.6274414062,        0.0727539062,       -0.1420898438,        1.1901855469,       -3.4484863281,        2.5024414062
1488506911.4848229885,1488506911.4871189594,        0.6274414062,        0.0727539062,       -0.1420898438,        1.1901855469,       -3.4484863281,        2.5024414062
1488506911.4873909950,1488506911.4896841049,        0.6093750000,        0.0708007812,       -0.1396484375,        1.5411376953,       -3.9215087891,        2.1667480469
1488506911.4899570942,1488506911.4922969341,        0.6093750000,        0.0708007812,       -0.1396484375,        1.5411376953,       -3.9215087891,        2.1667480469
1488506911.4925689697,1488506911.4948639870,        0.6093750000,        0.0708007812,       -0.1396484375,        1.3275146484,       -3.7841796875,        1.8005371094
1488506911.4951369762,1488506911.4974300861,        0.6093750000,        0.0708007812,       -0.1337890625,        1.3275146484,       -3.7841796875,        1.8005371094
1488506911.4977018833,1488506911.4999959469,        0.6137695312,        0.0595703125,       -0.1337890625,        0.9002685547,       -3.7841796875,        1.2664794922
1488506911.5002689362,1488506911.5025629997,        0.6137695312,        0.0595703125,       -0.1337890625,        0.9002685547,       -3.7841796875,        1.2664794922
1488506911.5028378963,1488506911.5051319599,        0.6137695312,        0.0595703125,       -0.1337890625,        0.3356933594,       -3.5247802734,        0.8544921875
1488506911.5054059029,1488506911.5077071190,        0.6137695312,        0.0595703125,       -0.1469726562,        0.3356933594,       -3.5247802734,        0.8544921875
1488506911.5079810619,1488506911.5102739334,        0.6210937500,        0.0463867188,       -0.1469726562,       -0.3967285156,       -3.4484863281,        0.2288818359
1488506911.5105490685,1488506911.5129940510,        0.6210937500,        0.0463867188,       -0.1469726562,       -0.3967285156,       -3.4484863281,        0.2288818359
1488506911.5132710934,1488506911.5155680180,        0.6210937500,        0.0463867188,       -0.1469726562,        0.1220703125,       -3.5400390625,       -0.4119873047
1488506911.5158441067,1488506911.5181350708,        0.6210937500,        0.0385742188,       -0.1586914062,        0.1220703125,       -3.5400390625,       -0.4119873047
1488506911.5184090137,1488506911.5207049847,        0.6074218750,        0.0385742188,       -0.1586914062,        0.1220703125,       -4.7607421875,       -1.2512207031
1488506911.5209789276,1488506911.5234410763,        0.6074218750,        0.0385742188,       -0.1586914062,        1.5106201172,       -4.7607421875,       -1.2512207031
1488506911.5237219334,1488506911.5261380672,        0.6074218750,        0.0385742188,       -0.1586914062,        1.5106201172,       -4.6081542969,       -1.8615722656
1488506911.5264201164,1488506911.5288419724,        0.5996093750,        0.0361328125,       -0.1459960938,        1.8005371094,       -4.6081542969,       -1.8615722656
1488506911.5291240215,1488506911.5315411091,        0.5996093750,        0.0361328125,       -0.1459960938,        1.8005371094,       -4.5318603516,       -2.9296875000
1488506911.5318291187,1488506911.5341179371,        0.5996093750,        0.0361328125,       -0.1459960938,        1.8005371094,       -4.5318603516,       -2.9296875000
1488506911.5343921185,1488506911.5366880894,        0.5996093750,        0.0361328125,       -0.1459960938,        1.8005371094,       -4.5318603516,       -3.4332275391
1488506911.5369610786,1488506911.5392489433,        0.6142578125,        0.0590820312,       -0.1596679688,        2.5634765625,       -4.7760009766,       -3.4332275391
1488506911.5395209789,1488506911.5418341160,        0.6142578125,        0.0590820312,       -0.1596679688,        2.5634765625,       -4.7760009766,       -3.2348632812
1488506911.5421140194,1488506911.5445299149,        0.6142578125,        0.0590820312,       -0.1596679688,        3.7536621094,       -4.6997070312,       -3.2348632812
1488506911.5448110104,1488506911.5472218990,        0.6142578125,        0.0590820312,       -0.1596679688,        3.7536621094,       -4.6997070312,       -3.6468505859
1488506911.5476100445,1488506911.5500319004,        0.6176757812,        0.0927734375,       -0.1606445312,        4.1656494141,       -4.2877197266,       -3.6468505859
1488506911.5503120422,1488506911.5527379513,        0.6176757812,        0.0927734375,       -0.1606445312,        4.1656494141,       -4.2877197266,       -3.2196044922
1488506911.5530200005,1488506911.5554370880,        0.6176757812,        0.0927734375,       -0.1606445312,        4.3792724609,       -3.7231445312,       -3.2196044922
1488506911.5557160378,1488506911.5581359863,        0.6176757812,        0.0927734375,       -0.1533203125,        4.3792724609,       -3.7231445312,       -2.7923583984
1488506911.5584170818,1488506911.5608320236,        0.6230468750,        0.0996093750,       -0.1533203125,        4.3945312500,       -3.5705566406,       -2.7923583984
1488506911.5611119270,1488506911.5635440350,        0.6230468750,        0.0996093750,       -0.1533203125,        4.3945312500,       -3.5705566406,       -2.7923583984
1488506911.5638248920,1488506911.5662369728,        0.6230468750,        0.0996093750,       -0.1533203125,        3.7078857422,       -3.7536621094,       -2.4261474609
1488506911.5665190220,1488506911.5689361095,        0.6230468750,        0.0922851562,       -0.1406250000,        3.7078857422,       -3.7536621094,       -2.4261474609
1488506911.5692169666,1488506911.5716359615,        0.6083984375,        0.0922851562,       -0.1406250000,        2.3651123047,       -3.0364990234,       -2.1514892578
1488506911.5719630718,1488506911.5743811131,        0.6083984375,        0.0922851562,       -0.1406250000,        2.3651123047,       -3.0364990234,       -2.1514892578
1488506911.5746610165,1488506911.5770819187,        0.6083984375,        0.0922851562,       -0.1406250000,        1.7700195312,       -2.8991699219,       -1.5563964844
1488506911.5773611069,1488506911.5798060894,        0.6103515625,        0.0947265625,       -0.1430664062,        1.7700195312,       -2.8991699219,       -1.5563964844
1488506911.5800879002,1488506911.5826079845,        0.6103515625,        0.0947265625,       -0.1430664062,        1.2359619141,       -3.1890869141,       -0.8544921875
1488506911.5829010010,1488506911.5852119923,        0.6103515625,        0.0947265625,       -0.1430664062,        1.2359619141,       -3.1890869141,       -0.8544921875
1488506911.5854890347,1488506911.5877809525,        0.6103515625,        0.0947265625,       -0.1430664062,        0.7781982422,       -2.7923583984,       -0.9765625000
1488506911.5880548954,1488506911.5903499126,        0.6059570312,        0.0917968750,       -0.1323242188,        0.7781982422,       -2.7923583984,       -0.9765625000
1488506911.5906260014,1488506911.5929989815,        0.6059570312,        0.0917968750,       -0.1323242188,       -0.1373291016,       -2.6245117188,       -0.6713867188
1488506911.5932838917,1488506911.5957040787,        0.6059570312,        0.0917968750,       -0.1323242188,       -0.1373291016,       -2.6245117188,       -0.6713867188
1488506911.5959849358,1488506911.5984098911,        0.6059570312,        0.0917968750,       -0.1323242188,       -0.2746582031,       -2.1362304688,       -0.6408691406
1488506911.5986919403,1488506911.6011068821,        0.6049804688,        0.0913085938,       -0.1367187500,       -0.2746582031,       -2.1362304688,       -0.6408691406
1488506911.6013898849,1488506911.6038138866,        0.6049804688,        0.0913085938,       -0.1367187500,        0.0000000000,       -2.3345947266,       -1.0070800781
1488506911.6040968895,1488506911.6065189838,        0.6049804688,        0.0913085938,       -0.1367187500,        0.0000000000,       -2.3345947266,       -1.0070800781
1488506911.6068000793,1488506911.6092178822,        0.6049804688,        0.0717773438,       -0.1645507812,       -0.1983642578,       -2.4414062500,       -1.3580322266
1488506911.6094980240,1488506911.6119248867,        0.6098632812,        0.0717773438,       -0.1645507812,       -0.1983642578,       -2.4414062500,       -1.3580322266
1488506911.6123049259,1488506911.6146020889,        0.6098632812,        0.0717773438,       -0.1645507812,        0.1373291016,       -2.3193359375,       -1.9989013672
1488506911.6148760319,1488506911.6171689034,        0.6098632812,        0.0717773438,       -0.1645507812,        0.1373291016,       -2.3193359375,       -1.9989013672
1488506911.6174430847,1488506911.6197419167,        0.6030273438,        0.0493164062,       -0.1596679688,        0.3967285156,       -2.7008056641,       -2.5024414062
1488506911.6200189590,1488506911.6223199368,        0.6030273438,        0.0493164062,       -0.1596679688,        0.3967285156,       -2.7008056641,       -2.5024414062
1488506911.6225969791,1488506911.6248888969,        0.6030273438,        0.0493164062,       -0.1596679688,        0.3051757812,       -2.5177001953,       -2.8991699219
1488506911.6251630783,1488506911.6274580956,        0.6030273438,        0.0493164062,       -0.1596679688,        0.3051757812,       -2.5177001953,       -2.8991699219
1488506911.6277320385,1488506911.6300311089,        0.6191406250,        0.0253906250,       -0.1821289062,        0.9613037109,       -2.6092529297,       -3.8299560547
1488506911.6303040981,1488506911.6330890656,        0.6191406250,        0.0253906250,       -0.1821289062,        0.9613037109,       -2.6092529297,       -3.8299560547
1488506911.6333661079,1488506911.6356580257,        0.6191406250,        0.0253906250,       -0.1821289062,        1.9989013672,       -2.9144287109,       -4.7912597656
1488506911.6359329224,1488506911.6382200718,        0.6191406250,        0.0253906250,       -0.1821289062,        1.9989013672,       -2.9144287109,       -4.7912597656
1488506911.6384921074,1488506911.6407840252,        0.6201171875,        0.0522460938,       -0.1723632812,        3.0975341797,       -2.8686523438,       -4.8828125000
1488506911.6410579681,1488506911.6433498859,        0.6201171875,        0.0522460938,       -0.1723632812,        3.0975341797,       -2.8686523438,       -4.8828125000
1488506911.6436240673,1488506911.6459119320,        0.6201171875,        0.0522460938,       -0.1723632812,        7.0037841797,       -2.9907226562,       -5.5389404297
1488506911.6461849213,1488506911.6484739780,        0.6201171875,        0.0522460938,       -0.1723632812,        4.4555664062,       -2.9907226562,       -5.5389404297
1488506911.6487479210,1488506911.6510300636,        0.6132812500,        0.0844726562,       -0.1557617188,        4.4555664062,       -2.9907226562,       -5.9204101562
1488506911.6513049603,1488506911.6536478996,        0.6132812500,        0.0844726562,       -0.1557617188,        4.8370361328,       -2.8991699219,       -5.9204101562
1488506911.6539230347,1488506911.6562080383,        0.6132812500,        0.0844726562,       -0.1557617188,        4.8370361328,       -2.8991699219,       -5.0811767578
1488506911.6564810276,1488506911.6587669849,        0.6132812500,        0.0844726562,       -0.1557617188,        4.4403076172,       -2.3803710938,       -5.0811767578
1488506911.6590399742,1488506911.6613340378,        0.6225585938,        0.1030273438,       -0.1469726562,        4.4403076172,       -2.3803710938,       -5.0811767578
1488506911.6616060734,1488506911.6639010906,        0.6225585938,        0.1030273438,       -0.1469726562,        3.7689208984,       -2.1820068359,       -4.3945312500
1488506911.6641740799,1488506911.6664719582,        0.6225585938,        0.1030273438,       -0.1469726562,        3.7689208984,       -2.1820068359,       -4.3945312500
1488506911.6667449474,1488506911.6690359116,        0.6225585938,        0.1030273438,       -0.1469726562,        3.2806396484,       -2.1667480469,       -3.9825439453
1488506911.6693089008,1488506911.6715989113,        0.6137695312,        0.1005859375,       -0.1450195312,        3.2806396484,       -2.1667480469,       -3.9825439453
1488506911.6719288826,1488506911.6742210388,        0.6137695312,        0.1005859375,       -0.1450195312,        2.7313232422,       -2.5939941406,       -3.1280517578
1488506911.6746029854,1488506911.6768929958,        0.6137695312,        0.1005859375,       -0.1450195312,        2.7313232422,       -2.5939941406,       -3.1280517578
1488506911.6771678925,1488506911.6794509888,        0.6137695312,        0.1005859375,       -0.1298828125,        2.7008056641,       -2.5482177734,       -2.4108886719
1488506911.6797249317,1488506911.6820681095,        0.6064453125,        0.1049804688,       -0.1298828125,        2.7008056641,       -2.5482177734,       -2.4108886719
1488506911.6823420525,1488506911.6846349239,        0.6064453125,        0.1049804688,       -0.1298828125,        1.9073486328,       -2.7313232422,       -2.1209716797
1488506911.6849079132,1488506911.6872019768,        0.6064453125,        0.1049804688,       -0.1298828125,        1.9073486328,       -2.7313232422,       -2.1209716797
1488506911.6874749660,1488506911.6897649765,        0.6064453125,        0.1049804688,       -0.1347656250,        1.2359619141,       -3.3416748047,       -1.6479492188
1488506911.6900379658,1488506911.6924500465,        0.6010742188,        0.1020507812,       -0.1347656250,        1.2359619141,       -3.3416748047,       -1.6479492188
1488506911.6927309036,1488506911.6951549053,        0.6010742188,        0.1020507812,       -0.1347656250,        0.5340576172,       -3.3416748047,       -1.1444091797
1488506911.6954360008,1488506911.6978549957,        0.6010742188,        0.1020507812,       -0.1347656250,        0.5340576172,       -3.3416748047,       -1.1444091797
1488506911.6981379986,1488506911.7005519867,        0.6015625000,        0.0947265625,       -0.1630859375,       -0.3204345703,       -3.2348632812,       -0.9002685547
1488506911.7008340359,1488506911.7033009529,        0.6015625000,        0.0947265625,       -0.1630859375,       -0.3204345703,       -3.2348632812,       -0.9002685547
1488506911.7035839558,1488506911.7060010433,        0.6015625000,        0.0947265625,       -0.1630859375,       -1.2207031250,       -3.0822753906,       -1.0375976562
1488506911.7062809467,1488506911.7087020874,        0.6015625000,        0.0947265625,       -0.1630859375,       -1.2207031250,       -3.0822753906,       -1.0375976562
1488506911.7089838982,1488506911.7114000320,        0.6201171875,        0.0527343750,       -0.1655273438,       -2.2125244141,       -2.9602050781,       -1.3275146484
1488506911.7116920948,1488506911.7141089439,        0.6201171875,        0.0527343750,       -0.1655273438,       -2.2125244141,       -2.9602050781,       -1.3275146484
1488506911.7143878937,1488506911.7168068886,        0.6201171875,        0.0527343750,       -0.1655273438,       -2.2125244141,       -3.0364990234,       -2.0294189453
1488506911.7170879841,1488506911.7195041180,        0.6201171875,        0.0527343750,       -0.1655273438,       -2.4414062500,       -3.0364990234,       -2.0294189453
1488506911.7197840214,1488506911.7222120762,        0.6215820312,        0.0063476562,       -0.1694335938,       -2.4414062500,       -3.4179687500,       -3.2196044922
1488506911.7224929333,1488506911.7249169350,        0.6215820312,        0.0063476562,       -0.1694335938,       -2.4414062500,       -3.4179687500,       -3.2196044922
1488506911.7251980305,1488506911.7276151180,        0.6215820312,        0.0063476562,       -0.1694335938,       -2.4414062500,       -3.5095214844,       -4.7912597656
1488506911.7278959751,1488506911.7303171158,        0.6215820312,       -0.0097656250,       -0.1757812500,       -1.9989013672,       -3.5095214844,       -4.7912597656
1488506911.7305979729,1488506911.7329599857,        0.6240234375,       -0.0097656250,       -0.1757812500,       -1.9989013672,       -4.3334960938,       -5.7830810547
1488506911.7332360744,1488506911.7355999947,        0.6240234375,       -0.0097656250,       -0.1757812500,       -0.5950927734,       -4.3334960938,       -5.7830810547
1488506911.7358748913,1488506911.7381730080,        0.6240234375,       -0.0097656250,       -0.1757812500,       -0.5950927734,       -4.3334960938,       -6.8511962891
1488506911.7385690212,1488506911.7408590317,        0.6337890625,        0.0258789062,       -0.1606445312,        1.5563964844,       -5.2337646484,       -6.8511962891
1488506911.7411329746,1488506911.7434549332,        0.6337890625,        0.0258789062,       -0.1606445312,        1.5563964844,       -5.2337646484,       -7.3394775391
1488506911.7437279224,1488506911.7460188866,        0.6337890625,        0.0258789062,       -0.1606445312,        3.2348632812,       -5.4473876953,       -7.3394775391
1488506911.7462899685,1488506911.7486989498,        0.6337890625,        0.0258789062,       -0.1606445312,        3.2348632812,       -5.4473876953,       -8.0413818359
1488506911.7489740849,1488506911.7512710094,        0.6196289062,        0.1152343750,       -0.1494140625,        3.6773681641,       -4.6539306641,       -8.0413818359
1488506911.7515459061,1488506911.7546310425,        0.6196289062,        0.1152343750,       -0.1494140625,        3.6773681641,       -4.4097900391,       -7.1563720703
1488506911.7549090385,1488506911.7572019100,        0.6196289062,        0.1152343750,       -0.1494140625,        3.6315917969,       -4.4097900391,       -7.1563720703
1488506911.7574760914,1488506911.7597620487,        0.6196289062,        0.1152343750,       -0.1494140625,        3.6315917969,       -4.4097900391,       -6.0729980469
1488506911.7600350380,1488506911.7624421120,        0.5966796875,        0.1386718750,       -0.1401367188,        3.0517578125,       -4.3945312500,       -6.0729980469
1488506911.7627151012,1488506911.7650070190,        0.5966796875,        0.1386718750,       -0.1401367188,        3.0517578125,       -4.3945312500,       -4.9743652344
1488506911.7652790546,1488506911.7675659657,        0.5966796875,        0.1386718750,       -0.1401367188,        1.7395019531,       -4.1503906250,       -4.9743652344
1488506911.7678380013,1488506911.7701230049,        0.5966796875,        0.1386718750,       -0.1401367188,        1.7395019531,       -4.1503906250,       -4.9743652344
1488506911.7703959942,1488506911.7726979256,        0.5942382812,        0.1230468750,       -0.1406250000,        0.4882812500,       -4.7607421875,       -3.2958984375
1488506911.7729721069,1488506911.7752609253,        0.5942382812,        0.1230468750,       -0.1406250000,        0.4882812500,       -4.7607421875,       -3.2958984375
1488506911.7755351067,1488506911.7778251171,        0.5942382812,        0.1230468750,       -0.1406250000,        0.3204345703,       -4.5928955078,       -2.3040771484
1488506911.7780990601,1488506911.7803881168,        0.5942382812,        0.1230468750,       -0.1372070312,        0.3204345703,       -4.5928955078,       -2.3040771484
1488506911.7806611061,1488506911.7829570770,        0.5947265625,        0.1210937500,       -0.1372070312,        0.1373291016,       -4.3945312500,       -1.9226074219
1488506911.7832310200,1488506911.7855288982,        0.5947265625,        0.1210937500,       -0.1372070312,        0.1373291016,       -4.3945312500,       -1.9226074219
1488506911.7858059406,1488506911.7880890369,        0.5947265625,        0.1210937500,       -0.1372070312,        0.3509521484,       -4.9591064453,       -0.5645751953
1488506911.7883648872,1488506911.7906539440,        0.5947265625,        0.1210937500,       -0.1357421875,        0.3509521484,       -4.9591064453,       -0.5645751953
1488506911.7909278870,1488506911.7932798862,        0.5947265625,        0.1206054688,       -0.1357421875,        0.2136230469,       -5.2337646484,       -0.0152587891
1488506911.7935540676,1488506911.7958409786,        0.5947265625,        0.1206054688,       -0.1357421875,        0.2136230469,       -5.2337646484,       -0.0152587891
1488506911.7961139679,1488506911.7984058857,        0.5947265625,        0.1206054688,       -0.1357421875,        0.2136230469,       -5.3558349609,        0.1831054688
1488506911.7986800671,1488506911.8009710312,        0.5947265625,        0.1230468750,       -0.1513671875,        0.9460449219,       -5.3558349609,        0.1831054688
1488506911.8013548851,1488506911.8037850857,        0.5922851562,        0.1230468750,       -0.1513671875,        0.9460449219,       -5.1574707031,        0.7171630859
1488506911.8040618896,1488506911.8063549995,        0.5922851562,        0.1230468750,       -0.1513671875,        1.1749267578,       -5.1574707031,        0.7171630859
1488506911.8066279888,1488506911.8089089394,        0.5922851562,        0.1230468750,       -0.1513671875,        1.1749267578,       -5.1574707031,        0.9918212891
1488506911.8091840744,1488506911.8114690781,        0.5922851562,        0.1157226562,       -0.1542968750,        0.8544921875,       -5.2032470703,        0.9918212891
1488506911.8118200302,1488506911.8141100407,        0.5854492188,        0.1157226562,       -0.1542968750,        0.8544921875,       -5.2032470703,        1.4801025391
1488506911.8143858910,1488506911.8166699409,        0.5854492188,        0.1157226562,       -0.1542968750,       -0.4119873047,       -4.9285888672,        1.4801025391
1488506911.8169460297,1488506911.8192360401,        0.5854492188,        0.1157226562,       -0.1542968750,       -0.4119873047,       -4.9285888672,        1.4801025391
1488506911.8195090294,1488506911.8217940331,        0.5888671875,        0.0839843750,       -0.1606445312,       -1.9531250000,       -4.2572021484,        1.9836425781
1488506911.8220689297,1488506911.8243579865,        0.5888671875,        0.0839843750,       -0.1606445312,       -1.9531250000,       -4.2572021484,        1.9836425781
1488506911.8246309757,1488506911.8269240856,        0.5888671875,        0.0839843750,       -0.1606445312,       -2.4261474609,       -4.3792724609,        2.1667480469
1488506911.8271958828,1488506911.8294808865,        0.5888671875,        0.0839843750,       -0.1606445312,       -2.4261474609,       -4.3792724609,        2.1667480469
1488506911.8297541142,1488506911.8321199417,        0.6035156250,        0.0322265625,       -0.1562500000,       -2.4261474609,       -4.5928955078,        1.8463134766
1488506911.8324000835,1488506911.8348219395,        0.6035156250,        0.0322265625,       -0.1562500000,       -2.4261474609,       -4.5928955078,        1.8463134766
1488506911.8351030350,1488506911.8375129700,        0.6035156250,        0.0322265625,       -0.1562500000,       -1.8768310547,       -4.5471191406,        1.5716552734
1488506911.8377959728,1488506911.8402171135,        0.6035156250,        0.0322265625,       -0.1562500000,       -1.8768310547,       -4.5471191406,        1.5716552734
1488506911.8404989243,1488506911.8428640366,        0.6264648438,        0.0380859375,       -0.1791992188,       -0.9002685547,       -4.3029785156,        0.9765625000
1488506911.8431398869,1488506911.8454329967,        0.6264648438,        0.0380859375,       -0.1791992188,       -0.9002685547,       -4.3029785156,        0.9765625000
1488506911.8457059860,1488506911.8480060101,        0.6264648438,        0.0380859375,       -0.1791992188,       -0.7324218750,       -4.1656494141,        0.3204345703
1488506911.8482809067,1488506911.8505771160,        0.6264648438,        0.0380859375,       -0.1791992188,       -0.7324218750,       -4.1656494141,        0.3204345703
1488506911.8508510590,1488506911.8532419205,        0.6215820312,        0.0595703125,       -0.1713867188,        0.3662109375,       -4.6997070312,       -0.2441406250
1488506911.8535180092,1488506911.8558180332,        0.6215820312,        0.0595703125,       -0.1713867188,        0.3662109375,       -4.6997070312,       -0.2441406250
1488506911.8560938835,1488506911.8583800793,        0.6215820312,        0.0595703125,       -0.1713867188,        1.1444091797,       -4.9285888672,       -0.4425048828
1488506911.8586559296,1488506911.8609580994,        0.6215820312,        0.0595703125,       -0.1713867188,        1.1444091797,       -4.9285888672,       -0.4425048828
1488506911.8612320423,1488506911.8636279106,        0.6054687500,        0.0664062500,       -0.1479492188,        1.1444091797,       -4.6386718750,       -0.8544921875
1488506911.8640189171,1488506911.8664329052,        0.6054687500,        0.0664062500,       -0.1479492188,        1.8768310547,       -4.6386718750,       -0.8544921875
1488506911.8667159081,1488506911.8692510128,        0.6054687500,        0.0664062500,       -0.1479492188,        1.7242431641,       -4.5318603516,       -0.7019042969
1488506911.8695340157,1488506911.8721439838,        0.6054687500,        0.0961914062,       -0.1591796875,        1.7242431641,       -4.5318603516,       -0.7019042969
1488506911.8724370003,1488506911.8748700619,        0.6054687500,        0.0961914062,       -0.1591796875,        1.9989013672,       -4.5623779297,       -0.6103515625
1488506911.8751549721,1488506911.8775761127,        0.6054687500,        0.0961914062,       -0.1591796875,        1.9989013672,       -4.5623779297,       -0.6103515625
1488506911.8778579235,1488506911.8802731037,        0.6054687500,        0.0961914062,       -0.1591796875,        1.5716552734,       -4.2419433594,       -0.3051757812
1488506911.8805561066,1488506911.8829910755,        0.5947265625,        0.0996093750,       -0.1499023438,        1.5716552734,       -4.2419433594,       -0.3051757812
1488506911.8832728863,1488506911.8856918812,        0.5947265625,        0.0996093750,       -0.1499023438,        1.0681152344,       -4.2419433594,       -0.1068115234
1488506911.8859739304,1488506911.8883910179,        0.5947265625,        0.0996093750,       -0.1499023438,        1.0681152344,       -4.2419433594,       -0.1068115234
1488506911.8886730671,1488506911.8910989761,        0.5947265625,        0.0996093750,       -0.1499023438,        0.7019042969,       -4.2572021484,        0.4577636719
1488506911.8913810253,1488506911.8937029839,        0.5932617188,        0.1123046875,       -0.1591796875,        0.7019042969,       -4.2572021484,        0.4577636719
1488506911.8939781189,1488506911.8962719440,        0.5932617188,        0.1123046875,       -0.1591796875,        0.7019042969,       -4.4097900391,        0.9765625000
1488506911.8965470791,1488506911.8988339901,        0.5932617188,        0.1123046875,       -0.1591796875,        1.3885498047,       -4.4097900391,        0.9765625000
1488506911.8991088867,1488506911.9014029503,        0.5932617188,        0.1123046875,       -0.1591796875,        1.3885498047,       -4.4097900391,        0.8850097656
1488506911.9017310143,1488506911.9040260315,        0.5864257812,        0.1088867188,       -0.1508789062,        1.0986328125,       -4.5623779297,        0.8850097656
1488506911.9043009281,1488506911.9065868855,        0.5864257812,        0.1088867188,       -0.1508789062,        1.0986328125,       -4.5623779297,        0.5798339844
1488506911.9068620205,1488506911.9091489315,        0.5864257812,        0.1088867188,       -0.1508789062,        0.4730224609,       -3.8909912109,        0.5798339844
1488506911.9094231129,1488506911.9117760658,        0.5864257812,        0.1088867188,       -0.1625976562,        0.4730224609,       -3.8909912109,        0.5798339844
1488506911.9120519161,1488506911.9143400192,        0.5776367188,        0.1074218750,       -0.1625976562,        0.5340576172,       -3.7536621094,        0.6408691406
1488506911.9146139622,1488506911.9169080257,        0.5776367188,        0.1074218750,       -0.1625976562,        0.5340576172,       -3.7536621094,        0.6408691406
1488506911.9171819687,1488506911.9194700718,        0.5776367188,        0.1074218750,       -0.1625976562,       -0.1525878906,       -3.2653808594,        0.3204345703
1488506911.9197430611,1488506911.9222009182,        0.5776367188,        0.1074218750,       -0.1791992188,       -0.1525878906,       -3.2653808594,        0.3204345703
1488506911.9224750996,1488506911.9247729778,        0.5864257812,        0.0883789062,       -0.1791992188,       -1.2664794922,       -2.3803710938,        0.1220703125
1488506911.9250481129,1488506911.9273359776,        0.5864257812,        0.0883789062,       -0.1791992188,       -1.2664794922,       -2.3803710938,        0.1220703125
1488506911.9277210236,1488506911.9300129414,        0.5864257812,        0.0883789062,       -0.1791992188,       -2.3651123047,       -2.1209716797,       -0.2441406250
1488506911.9302880764,1488506911.9326169491,        0.5864257812,        0.0610351562,       -0.1738281250,       -2.3651123047,       -2.1209716797,       -0.2441406250
1488506911.9328930378,1488506911.9351809025,        0.6064453125,        0.0610351562,       -0.1738281250,       -2.8686523438,       -1.7242431641,       -0.9002685547
1488506911.9354550838,1488506911.9377450943,        0.6064453125,        0.0610351562,       -0.1738281250,       -2.8686523438,       -1.7242431641,       -0.9002685547
1488506911.9380190372,1488506911.9405040741,        0.6064453125,        0.0610351562,       -0.1738281250,       -2.9907226562,       -1.3732910156,       -2.4871826172
1488506911.9407770634,1488506911.9432020187,        0.6118164062,        0.0493164062,       -0.1918945312,       -2.9907226562,       -1.3732910156,       -2.4871826172
1488506911.9434759617,1488506911.9457669258,        0.6118164062,        0.0493164062,       -0.1918945312,       -3.0059814453,       -0.8392333984,       -3.5858154297
1488506911.9460399151,1488506911.9491660595,        0.6118164062,        0.0493164062,       -0.1918945312,       -3.0059814453,       -0.8392333984,       -3.5858154297
1488506911.9494419098,1488506911.9517779350,        0.6118164062,        0.0493164062,       -0.1918945312,       -3.2501220703,       -0.1373291016,       -5.5847167969
1488506911.9520540237,1488506911.9543449879,        0.6083984375,        0.0424804688,       -0.1787109375,       -3.2501220703,       -0.1373291016,       -5.5847167969
1488506911.9546189308,1488506911.9569079876,        0.6083984375,        0.0424804688,       -0.1787109375,       -3.4637451172,        0.3509521484,       -7.9040527344
1488506911.9571809769,1488506911.9594709873,        0.6083984375,        0.0424804688,       -0.1787109375,       -3.4637451172,        0.3509521484,       -7.9040527344
1488506911.9597439766,1488506911.9620900154,        0.6083984375,        0.0424804688,       -0.1787109375,       -3.6926269531,        0.1983642578,       -9.9182128906
1488506911.9623630047,1488506911.9646530151,        0.6132812500,        0.0312500000,       -0.1694335938,       -3.6926269531,        0.1983642578,       -9.9182128906
1488506911.9649279118,1488506911.9672191143,        0.6132812500,        0.0312500000,       -0.1694335938,       -3.7536621094,        1.2969970703,      -12.5274658203
1488506911.9674990177,1488506911.9697859287,        0.6132812500,        0.0312500000,       -0.1694335938,       -3.7536621094,        1.2969970703,      -12.5274658203
1488506911.9700660706,1488506911.9723610878,        0.6132812500,        0.0312500000,       -0.1845703125,       -3.7536621094,        1.3732910156,      -15.3503417969
1488506911.9726400375,1488506911.9749310017,        0.6215820312,        0.0219726562,       -0.1845703125,       -4.3029785156,        1.3732910156,      -15.3503417969
1488506911.9752109051,1488506911.9774980545,        0.6215820312,        0.0219726562,       -0.1845703125,       -4.3029785156,        1.3732910156,      -18.0816650391
1488506911.9777760506,1488506911.9800670147,        0.6215820312,        0.0219726562,       -0.1845703125,       -4.5928955078,        1.7852783203,      -18.0816650391
1488506911.9803459644,1488506911.9826788902,        0.6215820312,        0.0219726562,       -0.1938476562,       -4.5928955078,        1.7852783203,      -21.9879150391
1488506911.9829580784,1488506911.9852540493,        0.6230468750,        0.0278320312,       -0.1938476562,       -5.2032470703,        1.9378662109,      -21.6522216797
1488506911.9855320454,1488506911.9878249168,        0.6230468750,        0.0278320312,       -0.1938476562,       -5.2032470703,        1.9378662109,      -21.6522216797
1488506911.9881019592,1488506911.9903919697,        0.6230468750,        0.0278320312,       -0.1938476562,       -6.2713623047,        1.9226074219,      -24.5361328125
1488506911.9907879829,1488506911.9931840897,        0.6230468750,        0.0307617188,       -0.1835937500,       -6.2713623047,        1.9226074219,      -24.5361328125
1488506911.9934639931,1488506911.9957571030,        0.6235351562,        0.0307617188,       -0.1835937500,       -6.9732666016,        2.5482177734,      -27.4353027344
1488506911.9960350990,1488506911.9983310699,        0.6235351562,        0.0307617188,       -0.1835937500,       -6.9732666016,        2.5482177734,      -27.4353027344
1488506911.9986100197,1488506912.0009090900,        0.6235351562,        0.0307617188,       -0.1835937500,       -7.7819824219,        3.2806396484,      -31.0821533203
1488506912.0011870861,1488506912.0036740303,        0.7485351562,        0.0190429688,       -0.1835937500,       -7.7819824219,        3.2806396484,      -31.0821533203
1488506912.0039610863,1488506912.0063769817,        0.6328125000,        0.0190429688,       -0.1835937500,       -9.0484619141,        3.6468505859,      -34.7747802734
1488506912.0066630840,1488506912.0090789795,        0.6328125000,        0.0190429688,       -0.1835937500,       -9.0484619141,        3.6468505859,      -34.7747802734
1488506912.0093638897,1488506912.0117928982,        0.6328125000,        0.0190429688,       -0.1835937500,       -8.5906982422,        3.9367675781,      -38.8641357422
1488506912.0120790005,1488506912.0144979954,        0.6284179688,       -0.0068359375,       -0.1733398438,       -8.5906982422,        3.9367675781,      -38.8641357422
1488506912.0147850513,1488506912.0172080994,        0.6284179688,       -0.0068359375,       -0.1733398438,       -7.6293945312,        4.1503906250,      -43.2128906250
1488506912.0174961090,1488506912.0199110508,        0.6284179688,       -0.0068359375,       -0.1733398438,       -7.6293945312,        4.1503906250,      -43.2128906250
1488506912.0201981068,1488506912.0226221085,        0.6284179688,       -0.0068359375,       -0.1733398438,       -6.0882568359,        3.8146972656,      -47.9736328125
1488506912.0229089260,1488506912.0253279209,        0.6235351562,        0.0019531250,       -0.1665039062,       -6.0882568359,        3.8146972656,      -47.9736328125
1488506912.0256140232,1488506912.0280349255,        0.6235351562,        0.0019531250,       -0.1665039062,       -3.4179687500,        3.5705566406,      -51.4678955078
1488506912.0283200741,1488506912.0307409763,        0.6235351562,        0.0019531250,       -0.1665039062,       -3.4179687500,        3.5705566406,      -51.4678955078
1488506912.0310270786,1488506912.0334460735,        0.6235351562,        0.0019531250,       -0.1801757812,       -1.3122558594,        3.6010742188,      -54.9163818359
1488506912.0337309837,1488506912.0361471176,        0.6225585938,        0.0122070312,       -0.1801757812,       -1.3122558594,        3.6010742188,      -54.9163818359
1488506912.0364339352,1488506912.0388510227,        0.6225585938,        0.0122070312,       -0.1801757812,        0.5645751953,        1.8310546875,      -58.9141845703
1488506912.0391380787,1488506912.0415580273,        0.6225585938,        0.0122070312,       -0.1801757812,        0.5645751953,        1.8310546875,      -58.9141845703
1488506912.0418419838,1488506912.0442640781,        0.6035156250,        0.0229492188,       -0.1567382812,        3.8757324219,        0.4425048828,      -62.3931884766
1488506912.0445489883,1488506912.0469648838,        0.6035156250,        0.0229492188,       -0.1567382812,        3.8757324219,        0.4425048828,      -62.3931884766
1488506912.0472509861,1488506912.0496699810,        0.6035156250,        0.0229492188,       -0.1567382812,        8.3770751953,       -0.7171630859,      -65.3228759766
1488506912.0499589443,1488506912.0523939133,        0.6035156250,        0.0229492188,       -0.1567382812,        8.3770751953,       -0.7171630859,      -65.3228759766
1488506912.0526809692,1488506912.0551009178,        0.6010742188,        0.0253906250,       -0.1489257812,       12.0086669922,       -1.9226074219,      -69.3511962891
1488506912.0554978848,1488506912.0579979420,        0.6010742188,        0.0253906250,       -0.1489257812,       12.0086669922,       -1.9226074219,      -69.3511962891
1488506912.0584530830,1488506912.0608620644,        0.6010742188,        0.0253906250,       -0.1489257812,       14.4195556641,       -3.0670166016,      -72.9370117188
1488506912.0611538887,1488506912.0639820099,        0.6010742188,        0.0253906250,       -0.1113281250,       14.4195556641,       -3.0670166016,      -72.9370117188
1488506912.0642731190,1488506912.0666940212,        0.6176757812,        0.1044921875,       -0.1113281250,       14.6484375000,       -4.2419433594,      -75.2563476562
1488506912.0669839382,1488506912.0694000721,        0.6176757812,        0.1044921875,       -0.1113281250,       14.6484375000,       -4.2419433594,      -75.2563476562
1488506912.0696890354,1488506912.0721130371,        0.6176757812,        0.1044921875,       -0.1113281250,       14.7857666016,       -5.9356689453,      -75.5310058594
1488506912.0724039078,1488506912.0748219490,        0.6406250000,        0.1162109375,       -0.1162109375,       14.7857666016,       -5.9356689453,      -75.5310058594
1488506912.0751109123,1488506912.0775279999,        0.6406250000,        0.1162109375,       -0.1162109375,       15.2130126953,       -6.6375732422,      -76.4465332031
1488506912.0778169632,1488506912.0802319050,        0.6406250000,        0.1162109375,       -0.1162109375,       15.2130126953,       -6.6375732422,      -76.4465332031
1488506912.0805220604,1488506912.0829520226,        0.6406250000,        0.1162109375,       -0.1162109375,       14.7552490234,       -7.1716308594,      -78.7353515625
1488506912.0832440853,1488506912.0856640339,        0.6367187500,        0.1303710938,       -0.0981445312,       14.7552490234,       -7.1716308594,      -78.7353515625
1488506912.0859529972,1488506912.0883729458,        0.6367187500,        0.1303710938,       -0.0981445312,       14.9993896484,       -7.9650878906,      -81.3140869141
1488506912.0886631012,1488506912.0910809040,        0.6367187500,        0.1303710938,       -0.0981445312,       14.9993896484,       -7.9650878906,      -81.3140869141
1488506912.0913701057,1488506912.0936949253,        0.6367187500,        0.1303710938,       -0.1054687500,       16.1590576172,       -9.0789794922,      -82.5653076172
1488506912.0939788818,1488506912.0962700844,        0.6279296875,        0.1015625000,       -0.1054687500,       16.1590576172,       -9.0789794922,      -82.5653076172
1488506912.0965530872,1488506912.0988469124,        0.6279296875,        0.1015625000,       -0.1054687500,       17.6849365234,       -9.7198486328,      -84.7167968750
1488506912.0991311073,1488506912.1014258862,        0.6279296875,        0.1015625000,       -0.1054687500,       17.6849365234,       -9.7198486328,      -84.7167968750
1488506912.1017470360,1488506912.1040389538,        0.6279296875,        0.1015625000,       -0.1269531250,       19.8059082031,       -9.7351074219,      -87.3107910156
1488506912.1043219566,1488506912.1066179276,        0.6582031250,        0.0864257812,       -0.1269531250,       19.8059082031,       -9.7351074219,      -87.3107910156
1488506912.1069018841,1488506912.1091980934,        0.6582031250,        0.0864257812,       -0.1269531250,       20.3247070312,      -10.3607177734,      -89.8437500000
1488506912.1094839573,1488506912.1118669510,        0.6582031250,        0.0864257812,       -0.1269531250,       20.3247070312,      -10.3607177734,      -89.8437500000
1488506912.1121718884,1488506912.1144819260,        0.6582031250,        0.1020507812,       -0.1362304688,       19.1040039062,      -11.2304687500,      -93.5516357422
1488506912.1147680283,1488506912.1170639992,        0.6210937500,        0.1020507812,       -0.1362304688,       19.1040039062,      -11.2304687500,      -93.5516357422
1488506912.1173479557,1488506912.1196410656,        0.6210937500,        0.1020507812,       -0.1362304688,       18.8140869141,      -11.3525390625,      -95.8251953125
1488506912.1200280190,1488506912.1224770546,        0.6210937500,        0.1020507812,       -0.1362304688,       18.8140869141,      -11.3525390625,      -95.8251953125
1488506912.1227738857,1488506912.1251931190,        0.5830078125,        0.1064453125,       -0.1596679688,       19.5922851562,      -12.0544433594,      -96.9543457031
1488506912.1254870892,1488506912.1279029846,        0.5830078125,        0.1064453125,       -0.1596679688,       19.5922851562,      -12.0544433594,      -96.9543457031
1488506912.1281960011,1488506912.1306149960,        0.5830078125,        0.1064453125,       -0.1596679688,       18.6004638672,      -13.3819580078,      -97.5646972656
1488506912.1309070587,1488506912.1332519054,        0.5830078125,        0.1064453125,       -0.1596679688,       18.6004638672,      -13.3819580078,      -97.5646972656
1488506912.1335380077,1488506912.1358330250,        0.5922851562,        0.1469726562,       -0.1840820312,       14.6942138672,      -13.7023925781,      -97.9309082031
1488506912.1361179352,1488506912.1384069920,        0.5922851562,        0.1469726562,       -0.1840820312,       15.6097412109,      -13.7023925781,      -97.9309082031
1488506912.1386919022,1488506912.1409809589,        0.5922851562,        0.1469726562,       -0.1840820312,       15.6097412109,      -13.7023925781,      -98.8159179688
1488506912.1412661076,1488506912.1436369419,        0.5922851562,        0.1469726562,       -0.1840820312,       14.4653320312,      -13.1225585938,      -98.8159179688
1488506912.1439230442,1488506912.1462099552,        0.6123046875,        0.1933593750,       -0.1728515625,       14.4653320312,      -13.1225585938,     -100.3112792969
1488506912.1464960575,1488506912.1487801075,        0.6123046875,        0.1933593750,       -0.1728515625,       14.8925781250,      -12.8784179688,     -100.3112792969
1488506912.1490640640,1488506912.1513559818,        0.6123046875,        0.1933593750,       -0.1728515625,       14.8925781250,      -12.8784179688,     -100.3112792969
1488506912.1516380310,1488506912.1539950371,        0.6123046875,        0.1933593750,       -0.1728515625,       15.3198242188,      -12.4359130859,     -100.9826660156
1488506912.1542789936,1488506912.1565690041,        0.6127929688,        0.2202148438,       -0.1669921875,       15.3198242188,      -12.4359130859,     -100.9826660156
1488506912.1568529606,1488506912.1591389179,        0.6127929688,        0.2202148438,       -0.1669921875,       14.9841308594,      -12.4511718750,     -102.1881103516
1488506912.1594231129,1488506912.1617639065,        0.6127929688,        0.2202148438,       -0.1669921875,       14.9841308594,      -12.4511718750,     -102.1881103516
1488506912.1620509624,1488506912.1643369198,        0.6127929688,        0.2202148438,       -0.0419921875,       12.6495361328,      -12.2375488281,     -103.0731201172
1488506912.1646239758,1488506912.1669139862,        0.6293945312,        0.2778320312,       -0.1240234375,       12.6495361328,      -12.2375488281,     -103.0731201172
1488506912.1672000885,1488506912.1694900990,        0.6293945312,        0.2778320312,       -0.1240234375,       12.4816894531,      -11.9781494141,     -102.2033691406
1488506912.1697750092,1488506912.1721320152,        0.6293945312,        0.2778320312,       -0.1240234375,       12.4816894531,      -11.9781494141,     -102.2033691406
1488506912.1724169254,1488506912.1747090816,        0.6293945312,        0.2778320312,       -0.1064453125,       11.3677978516,      -11.1541748047,     -100.2655029297
1488506912.1749939919,1488506912.1772849560,        0.5468750000,        0.2973632812,       -0.1064453125,       11.3677978516,      -11.1541748047,     -100.2655029297
1488506912.1775710583,1488506912.1800439358,        0.5468750000,        0.2973632812,       -0.1064453125,        7.7362060547,      -10.9710693359,      -96.7407226562
1488506912.1803290844,1488506912.1831269264,        0.5468750000,        0.2973632812,       -0.1064453125,        7.7362060547,      -10.9710693359,      -96.7407226562
1488506912.1834199429,1488506912.1858448982,        0.4633789062,        0.3066406250,       -0.1250000000,        4.5623779297,      -11.1083984375,      -95.4895019531
1488506912.1862399578,1488506912.1886630058,        0.4633789062,        0.3066406250,       -0.1250000000,        4.5623779297,      -11.1083984375,      -95.4895019531
1488506912.1889529228,1488506912.1913740635,        0.4633789062,        0.3066406250,       -0.1250000000,        1.9989013672,       -8.8348388672,      -96.1151123047
1488506912.1917009354,1488506912.1941180229,        0.4633789062,        0.3066406250,       -0.1250000000,        1.9989013672,       -8.8348388672,      -96.1151123047
1488506912.1944060326,1488506912.1968169212,        0.2514648438,        0.3393554688,       -0.1010742188,        1.2664794922,      -10.0708007812,      -93.4600830078
1488506912.1971080303,1488506912.1995260715,        0.2514648438,        0.3393554688,       -0.1010742188,        1.2664794922,      -10.0708007812,      -93.4600830078
1488506912.1998169422,1488506912.2022440434,        0.2514648438,        0.3393554688,       -0.1010742188,       -0.5645751953,      -10.1165771484,      -89.2791748047
1488506912.2025361061,1488506912.2049489021,        0.2514648438,        0.3393554688,       -0.1601562500,       -0.5645751953,      -10.1165771484,      -89.2791748047
1488506912.2052390575,1488506912.2076539993,        0.0888671875,        0.4282226562,       -0.1601562500,       -6.7443847656,       -7.1563720703,      -86.8835449219
1488506912.2079379559,1488506912.2103519440,        0.0888671875,        0.4282226562,       -0.1601562500,       -6.7443847656,       -7.1563720703,      -86.8835449219
1488506912.2106380463,1488506912.2130360603,        0.0888671875,        0.4282226562,       -0.1601562500,      -16.2506103516,       -8.1329345703,      -81.7413330078
1488506912.2133190632,1488506912.2156128883,        0.0888671875,        0.4560546875,       -0.2348632812,      -16.2506103516,       -8.1329345703,      -81.7413330078
1488506912.2158958912,1488506912.2181870937,       -0.0083007812,        0.4560546875,       -0.2348632812,      -25.7263183594,       -9.2315673828,      -76.5533447266
1488506912.2184679508,1488506912.2207620144,       -0.0083007812,        0.4560546875,       -0.2348632812,      -25.7263183594,       -9.2315673828,      -76.5533447266
1488506912.2210450172,1488506912.2233440876,       -0.0083007812,        0.4560546875,       -0.2348632812,      -32.7148437500,      -10.4827880859,      -74.8291015625
1488506912.2236309052,1488506912.2259240150,        0.2416992188,        0.4282226562,       -0.3525390625,      -32.7148437500,      -10.4827880859,      -74.8291015625
1488506912.2262101173,1488506912.2285048962,        0.1782226562,        0.4282226562,       -0.3525390625,      -39.5660400391,      -10.2233886719,      -68.7103271484
1488506912.2287890911,1488506912.2310850620,        0.1782226562,        0.4282226562,       -0.3525390625,      -39.5660400391,      -10.2233886719,      -68.7103271484
1488506912.2313709259,1488506912.2337570190,        0.1782226562,        0.4282226562,       -0.3525390625,      -43.4722900391,      -11.0473632812,      -62.8662109375
1488506912.2340428829,1488506912.2363400459,        0.4145507812,        0.4155273438,       -0.4453125000,      -44.2047119141,      -11.0473632812,      -62.8662109375
1488506912.2366249561,1488506912.2389140129,        0.4145507812,        0.4155273438,       -0.4453125000,      -44.2047119141,      -11.0473632812,      -60.3942871094
1488506912.2391989231,1488506912.2414939404,        0.4145507812,        0.4155273438,       -0.4453125000,      -43.8842773438,      -10.4980468750,      -60.3942871094
1488506912.2419528961,1488506912.2443840504,        0.4145507812,        0.4155273438,       -0.4453125000,      -43.8842773438,      -10.4980468750,      -63.3850097656
1488506912.2446761131,1488506912.2470889091,        0.6958007812,        0.3813476562,       -0.3940429688,      -43.9300537109,       -8.5906982422,      -63.3850097656
1488506912.2473781109,1488506912.2497940063,        0.6958007812,        0.3813476562,       -0.3940429688,      -43.9300537109,       -8.5906982422,      -60.2569580078
1488506912.2501890659,1488506912.2526149750,        0.6958007812,        0.3813476562,       -0.3940429688,      -42.9382324219,       -8.0108642578,      -60.2569580078
1488506912.2529048920,1488506912.2553260326,        0.6958007812,        0.3813476562,       -0.1440429688,      -42.9382324219,       -4.1046142578,      -60.5926513672
1488506912.2556140423,1488506912.2580258846,        1.0161132812,        0.3261718750,       -0.1948242188,      -40.3137207031,       -5.0506591797,      -60.5926513672
1488506912.2583160400,1488506912.2607340813,        1.0161132812,        0.3261718750,       -0.1948242188,      -40.3137207031,       -1.1444091797,      -60.8520507812
1488506912.2610220909,1488506912.2634389400,        1.0161132812,        0.3261718750,       -0.1948242188,      -35.9954833984,       -2.2583007812,      -60.8520507812
1488506912.2637269497,1488506912.2661430836,        1.0161132812,        0.2524414062,       -0.0649414062,      -35.9954833984,       -2.2583007812,      -60.5926513672
1488506912.2664320469,1488506912.2688438892,        1.0517578125,        0.2524414062,       -0.0649414062,      -30.8685302734,       -0.9613037109,      -60.5926513672
1488506912.2691330910,1488506912.2715520859,        1.0517578125,        0.2524414062,       -0.0649414062,      -30.8685302734,       -0.9613037109,      -63.6596679688
1488506912.2718329430,1488506912.2741260529,        1.0517578125,        0.2524414062,       -0.0649414062,      -24.5361328125,       -2.7008056641,      -63.6596679688
1488506912.2744090557,1488506912.2767000198,        0.8691406250,        0.2568359375,       -0.0815429688,      -24.5361328125,       -2.7008056641,      -66.9860839844
1488506912.2769820690,1488506912.2792749405,        0.8691406250,        0.2568359375,       -0.0815429688,      -20.4620361328,       -4.6844482422,      -66.9860839844
1488506912.2795569897,1488506912.2819280624,        0.8691406250,        0.2568359375,       -0.0815429688,      -20.4620361328,       -4.6844482422,      -66.9860839844
1488506912.2822179794,1488506912.2846310139,        0.8691406250,        0.2568359375,       -0.0815429688,      -15.6860351562,       -7.5073242188,      -68.6798095703
1488506912.2849218845,1488506912.2873399258,        0.6103515625,        0.3662109375,       -0.0913085938,      -15.6860351562,       -7.5073242188,      -68.6798095703
1488506912.2876288891,1488506912.2900490761,        0.6103515625,        0.3662109375,       -0.0913085938,      -11.9323730469,       -9.6282958984,      -70.0531005859
1488506912.2903399467,1488506912.2927639484,        0.6103515625,        0.3662109375,       -0.0913085938,      -11.9323730469,       -9.6282958984,      -70.0531005859
1488506912.2930560112,1488506912.2954690456,        0.6103515625,        0.3662109375,       -0.0913085938,       -8.7127685547,      -11.1846923828,      -69.2291259766
1488506912.2957570553,1488506912.2982618809,        0.4321289062,        0.4462890625,       -0.0571289062,       -8.7127685547,      -11.1846923828,      -69.2291259766
1488506912.2985529900,1488506912.3009591103,        0.4321289062,        0.4462890625,       -0.0571289062,       -7.1258544922,      -11.5509033203,      -68.3898925781
1488506912.3016378880,1488506912.3041050434,        0.4321289062,        0.4462890625,       -0.0571289062,       -7.1258544922,      -11.5509033203,      -66.4978027344
1488506912.3043971062,1488506912.3068170547,        0.4321289062,        0.5195312500,       -0.1108398438,       -6.1798095703,      -12.6953125000,      -66.4978027344
1488506912.3071069717,1488506912.3095259666,        0.3798828125,        0.5195312500,       -0.1108398438,       -6.1798095703,      -12.6953125000,      -60.3179931641
1488506912.3098139763,1488506912.3122351170,        0.3798828125,        0.5195312500,       -0.1108398438,       -6.2561035156,      -13.0767822266,      -60.3179931641
1488506912.3125250340,1488506912.3149409294,        0.3798828125,        0.5195312500,       -0.1108398438,       -6.2561035156,      -13.0767822266,      -55.0537109375
1488506912.3153359890,1488506912.3177530766,        0.3867187500,        0.4853515625,       -0.1538085938,       -5.7983398438,      -12.9089355469,      -55.0537109375
1488506912.3180429935,1488506912.3204588890,        0.3867187500,        0.4853515625,       -0.1538085938,       -5.7983398438,      -12.9089355469,      -52.9174804688
1488506912.3207490444,1488506912.3231101036,        0.3867187500,        0.4853515625,       -0.1538085938,       -5.9967041016,      -11.2762451172,      -52.9174804688
1488506912.3233919144,1488506912.3256869316,        0.3867187500,        0.4853515625,       -0.1538085938,       -5.9967041016,      -11.2762451172,      -49.7283935547
1488506912.3259670734,1488506912.3282570839,        0.3437500000,        0.4228515625,       -0.2143554688,       -4.3182373047,      -10.7116699219,      -49.7283935547
1488506912.3285388947,1488506912.3308250904,        0.3437500000,        0.4228515625,       -0.2143554688,       -4.3182373047,      -10.7116699219,      -49.7283935547
1488506912.3311059475,1488506912.3334569931,        0.3437500000,        0.4228515625,       -0.2143554688,       -3.1890869141,      -10.9863281250,      -45.8831787109
1488506912.3337380886,1488506912.3360331059,        0.3437500000,        0.4228515625,       -0.3393554688,       -3.1890869141,      -10.9863281250,      -45.8831787109
1488506912.3363139629,1488506912.3386049271,        0.3398437500,        0.5449218750,       -0.2651367188,       -2.2125244141,      -13.1683349609,      -40.1458740234
1488506912.3388860226,1488506912.3411788940,        0.3398437500,        0.5449218750,       -0.2651367188,       -2.2125244141,      -13.1683349609,      -40.1458740234
1488506912.3414618969,1488506912.3439209461,        0.3398437500,        0.5449218750,       -0.2651367188,       -1.9226074219,      -12.8021240234,      -35.3240966797
1488506912.3442020416,1488506912.3464949131,        0.3398437500,        0.5449218750,       -0.2075195312,       -1.9226074219,      -12.8021240234,      -35.3240966797
1488506912.3467750549,1488506912.3490669727,        0.5034179688,        0.5869140625,       -0.2075195312,       -2.8228759766,      -11.1541748047,      -30.8074951172
1488506912.3493480682,1488506912.3516409397,        0.5034179688,        0.5869140625,       -0.2075195312,       -2.8228759766,      -11.1541748047,      -30.8074951172
1488506912.3520920277,1488506912.3545100689,        0.5034179688,        0.5869140625,       -0.2075195312,       -2.0141601562,       -9.0484619141,      -25.8331298828
1488506912.3547949791,1488506912.3572158813,        0.5034179688,        0.4223632812,       -0.1040039062,       -2.0141601562,       -9.0484619141,      -25.8331298828
1488506912.3575019836,1488506912.3599209785,        0.6909179688,        0.4223632812,       -0.1040039062,        3.7689208984,       -7.7667236328,      -24.0936279297
1488506912.3602070808,1488506912.3626279831,        0.6909179688,        0.4223632812,       -0.1040039062,        3.7689208984,       -7.7667236328,      -24.0936279297
1488506912.3629140854,1488506912.3653290272,        0.6909179688,        0.4223632812,       -0.1040039062,       10.9405517578,       -5.4626464844,      -24.4140625000
1488506912.3656189442,1488506912.3680329323,        0.7573242188,        0.3579101562,       -0.1103515625,       10.9405517578,       -5.4626464844,      -24.4140625000
1488506912.3683209419,1488506912.3707420826,        0.7573242188,        0.3579101562,       -0.1103515625,       17.3187255859,       -3.0670166016,      -25.1007080078
1488506912.3710319996,1488506912.3734068871,        0.7573242188,        0.3579101562,       -0.1103515625,       17.3187255859,       -3.0670166016,      -25.1007080078
1488506912.3736910820,1488506912.3759849072,        0.7573242188,        0.3579101562,       -0.1103515625,       22.4456787109,       -1.7242431641,      -25.5737304688
1488506912.3762679100,1488506912.3785638809,        0.5722656250,        0.4106445312,       -0.1440429688,       22.4456787109,       -1.7242431641,      -25.5737304688
1488506912.3789560795,1488506912.3812499046,        0.5722656250,        0.4106445312,       -0.1440429688,       26.8249511719,       -0.0152587891,      -23.8647460938
1488506912.3815340996,1488506912.3839609623,        0.5722656250,        0.4106445312,       -0.1440429688,       26.8249511719,       -0.0152587891,      -23.8647460938
1488506912.3842511177,1488506912.3866679668,        0.5722656250,        0.4106445312,       -0.1440429688,       29.0222167969,        1.6937255859,      -19.8669433594
1488506912.3869569302,1488506912.3893749714,        0.3916015625,        0.5502929688,       -0.2124023438,       29.0222167969,        1.6937255859,      -19.8669433594
1488506912.3896639347,1488506912.3921270370,        0.3916015625,        0.5502929688,       -0.2124023438,       27.1606445312,        3.3569335938,      -15.2282714844
1488506912.3924179077,1488506912.3948318958,        0.3916015625,        0.5502929688,       -0.2124023438,       27.1606445312,        3.3569335938,      -15.2282714844
1488506912.3951220512,1488506912.3975410461,        0.3916015625,        0.4995117188,       -0.2290039062,       25.2227783203,        3.5705566406,       -9.2315673828
1488506912.3978250027,1488506912.4002480507,        0.2094726562,        0.4995117188,       -0.2290039062,       25.2227783203,        3.5705566406,       -9.2315673828
1488506912.4005329609,1488506912.4029600620,        0.2094726562,        0.4995117188,       -0.2290039062,       23.4375000000,        4.0130615234,       -4.0283203125
1488506912.4032440186,1488506912.4056630135,        0.2094726562,        0.4995117188,       -0.2290039062,       23.4375000000,        4.0130615234,       -4.0283203125
1488506912.4059491158,1488506912.4084649086,        0.0327148438,        0.5361328125,       -0.2314453125,       22.4761962891,        4.5013427734,        0.9002685547
1488506912.4087519646,1488506912.4111709595,        0.0327148438,        0.5361328125,       -0.2314453125,       22.4761962891,        4.5013427734,        0.9002685547
1488506912.4118731022,1488506912.4142940044,        0.0327148438,        0.5361328125,       -0.2314453125,       20.8892822266,        5.7678222656,        7.6599121094
1488506912.4145810604,1488506912.4170019627,        0.0327148438,        0.5361328125,       -0.2314453125,       20.8892822266,        5.7678222656,        7.6599121094
1488506912.4172880650,1488506912.4197061062,       -0.0024414062,        0.6386718750,       -0.2407226562,       19.5007324219,        6.8969726562,       15.9454345703
1488506912.4199960232,1488506912.4223909378,       -0.0024414062,        0.6386718750,       -0.2407226562,       19.5007324219,        6.8969726562,       15.9454345703
1488506912.4226729870,1488506912.4249670506,       -0.0024414062,        0.6386718750,       -0.2407226562,       16.8151855469,        7.2479248047,       24.0631103516
1488506912.4252510071,1488506912.4275410175,       -0.0024414062,        0.5136718750,       -0.1992187500,       16.8151855469,        7.2479248047,       24.0631103516
1488506912.4278240204,1488506912.4301190376,        0.1333007812,        0.5654296875,       -0.1992187500,       14.6636962891,        7.2784423828,       31.8298339844
1488506912.4303989410,1488506912.4327499866,        0.1333007812,        0.5654296875,       -0.1992187500,       14.6636962891,        7.2784423828,       31.8298339844
1488506912.4330370426,1488506912.4354538918,        0.1333007812,        0.5654296875,       -0.1992187500,       12.5885009766,        9.0484619141,       39.5660400391
1488506912.4357430935,1488506912.4381589890,        0.3833007812,        0.5200195312,       -0.2744140625,       12.5885009766,        9.0484619141,       39.5660400391
1488506912.4384489059,1488506912.4408679008,        0.4384765625,        0.5200195312,       -0.2744140625,       10.6353759766,        9.3688964844,       46.0357666016
1488506912.4411559105,1488506912.4434890747,        0.4384765625,        0.5200195312,       -0.2744140625,       10.6353759766,        9.3688964844,       46.0357666016
1488506912.4438800812,1488506912.4461739063,        0.4384765625,        0.5200195312,       -0.2744140625,       10.6353759766,        8.2092285156,       52.9174804688
1488506912.4464550018,1488506912.4487531185,        0.7426757812,        0.4965820312,       -0.3413085938,        9.8876953125,        8.2092285156,       52.9174804688
1488506912.4490311146,1488506912.4513249397,        0.7426757812,        0.4965820312,       -0.3413085938,        9.8876953125,        4.3029785156,       59.8754882812
1488506912.4516038895,1488506912.4539010525,        0.7426757812,        0.4965820312,       -0.3413085938,       10.7879638672,        6.9274902344,       59.8754882812
1488506912.4541831017,1488506912.4564769268,        0.7426757812,        0.4965820312,       -0.3413085938,       10.7879638672,        6.9274902344,       64.3005371094
1488506912.4567599297,1488506912.4590549469,        0.9072265625,        0.4384765625,       -0.3046875000,       14.5568847656,        5.5999755859,       64.3005371094
1488506912.4593360424,1488506912.4616310596,        0.9072265625,        0.4384765625,       -0.3046875000,       14.5568847656,        5.5999755859,       68.2067871094
1488506912.4620900154,1488506912.4643828869,        0.9072265625,        0.4384765625,       -0.3046875000,       18.5241699219,        4.7454833984,       67.6727294922
1488506912.4646639824,1488506912.4669580460,        0.9072265625,        0.4384765625,       -0.3046875000,       18.5241699219,        4.7454833984,       67.6727294922
1488506912.4672389030,1488506912.4695320129,        0.8940429688,        0.5278320312,       -0.1987304688,       19.3023681641,        5.4626464844,       72.1740722656
1488506912.4698140621,1488506912.4722239971,        0.8940429688,        0.5278320312,       -0.1987304688,       19.3023681641,        5.4626464844,       72.1740722656
1488506912.4725039005,1488506912.4748001099,        0.8940429688,        0.5278320312,       -0.1987304688,       19.5159912109,        5.5389404297,       79.9713134766
1488506912.4750819206,1488506912.4773778915,        0.8940429688,        0.5278320312,       -0.1987304688,       19.5159912109,        5.5389404297,       79.9713134766
1488506912.4776599407,1488506912.4799571037,        0.8779296875,        0.5771484375,       -0.1352539062,       19.0124511719,        5.7830810547,       87.8448486328
1488506912.4802389145,1488506912.4825971127,        0.8779296875,        0.5771484375,       -0.1352539062,       19.0124511719,        5.7830810547,       87.8448486328
1488506912.4828860760,1488506912.4853060246,        0.8779296875,        0.5771484375,       -0.1352539062,       16.6015625000,        5.6762695312,       97.4121093750
1488506912.4855959415,1488506912.4880170822,        0.8779296875,        0.5771484375,       -0.0795898438,       16.6015625000,        5.6762695312,       97.4121093750
1488506912.4883079529,1488506912.4907240868,        0.9248046875,        0.6611328125,       -0.0795898438,       10.7116699219,        6.0729980469,      108.1390380859
1488506912.4910130501,1488506912.4934329987,        0.9248046875,        0.6611328125,       -0.0795898438,       10.7116699219,        6.0729980469,      108.1390380859
1488506912.4937241077,1488506912.4961431026,        0.9248046875,        0.6611328125,       -0.0795898438,        2.1209716797,        5.7373046875,      120.6512451172
1488506912.4964280128,1488506912.4988489151,        1.0498046875,        0.7871093750,       -0.0688476562,        2.1209716797,        5.7373046875,      120.6512451172
1488506912.4991340637,1488506912.5015480518,        1.0146484375,        0.7871093750,       -0.0688476562,       -8.1329345703,        4.8980712891,      134.9792480469
1488506912.5018360615,1488506912.5042550564,        1.0146484375,        0.7871093750,       -0.0688476562,       -8.1329345703,        4.8980712891,      134.9792480469
1488506912.5045421124,1488506912.5069599152,        1.0146484375,        0.7871093750,       -0.0688476562,      -19.8822021484,        4.9285888672,      151.1535644531
1488506912.5073559284,1488506912.5097749233,        1.2431640625,        0.8120117188,       -0.0942382812,      -19.8822021484,        4.9285888672,      151.1535644531
1488506912.5100638866,1488506912.5124990940,        1.2431640625,        0.8120117188,       -0.0942382812,      -29.1290283203,        6.2866210938,      170.3491210938
1488506912.5127899647,1488506912.5152099133,        1.2431640625,        0.8120117188,       -0.0942382812,      -29.1290283203,        6.2866210938,      170.3491210938
1488506912.5154991150,1488506912.5179150105,        1.2431640625,        0.8120117188,       -0.0942382812,      -31.9519042969,        6.9427490234,      194.5648193359
1488506912.5182039738,1488506912.5206239223,        1.4897460938,        0.6796875000,       -0.1176757812,      -31.9519042969,        6.9427490234,      194.5648193359
1488506912.5209128857,1488506912.5232660770,        1.4897460938,        0.6796875000,       -0.1176757812,      -39.5812988281,       10.3302001953,      221.0083007812
1488506912.5235509872,1488506912.5258440971,        1.4897460938,        0.6796875000,       -0.1176757812,      -39.5812988281,       10.3302001953,      221.0083007812
1488506912.5261290073,1488506912.5287239552,        1.4897460938,        0.6796875000,       -0.1845703125,      -49.4079589844,       19.2413330078,      245.4376220703
1488506912.5290119648,1488506912.5313138962,        2.0019531250,        0.4736328125,       -0.1845703125,      -49.4079589844,       19.2413330078,      245.4376220703
1488506912.5320699215,1488506912.5344860554,        2.0019531250,        0.4736328125,       -0.1845703125,      -55.3283691406,       26.0162353516,      273.1628417969
1488506912.5347790718,1488506912.5371990204,        2.0019531250,        0.4736328125,       -0.1845703125,      -55.3283691406,       26.0162353516,      273.1628417969
1488506912.5374910831,1488506912.5399110317,        2.7304687500,       -0.1542968750,       -0.2705078125,      -64.6820068359,       29.4036865234,      302.4597167969
1488506912.5402040482,1488506912.5426290035,        2.7304687500,       -0.1542968750,       -0.2705078125,      -64.6820068359,       29.4036865234,      302.4597167969
1488506912.5429210663,1488506912.5453391075,        2.7304687500,       -0.1542968750,       -0.2705078125,      -74.4018554688,       30.5023193359,      328.3081054688
1488506912.5456309319,1488506912.5480530262,        2.7304687500,       -0.1542968750,       -0.2705078125,      -74.4018554688,       30.5023193359,      328.3081054688
1488506912.5483438969,1488506912.5507640839,        3.0244140625,       -1.0292968750,       -0.4960937500,      -69.6411132812,       32.6843261719,      353.4240722656
1488506912.5510540009,1488506912.5541160107,        3.0244140625,       -1.0292968750,       -0.4960937500,      -69.6411132812,       32.6843261719,      353.4240722656
1488506912.5544040203,1488506912.5566930771,        3.0244140625,       -1.0292968750,       -0.4960937500,      -58.8684082031,       37.3535156250,      344.7265625000
1488506912.5569760799,1488506912.5592739582,        3.3994140625,       -1.1484375000,       -0.6816406250,      -58.8684082031,       37.3535156250,      344.7265625000
1488506912.5595560074,1488506912.5619161129,        3.4125976562,       -1.1484375000,       -0.6816406250,      -60.9283447266,       57.7087402344,      317.2607421875
1488506912.5622000694,1488506912.5644900799,        3.4125976562,       -1.1484375000,       -0.6816406250,      -60.9283447266,       57.7087402344,      317.2607421875
1488506912.5647730827,1488506912.5670709610,        3.4125976562,       -1.1484375000,       -0.6816406250,      -68.6340332031,       74.9969482422,      277.8320312500
1488506912.5673539639,1488506912.5696439743,        3.6308593750,        0.6909179688,       -1.3188476562,      -68.6340332031,       74.9969482422,      277.8320312500
1488506912.5699269772,1488506912.5722749233,        3.6308593750,        0.6909179688,       -1.3188476562,      -80.6427001953,       69.3206787109,      187.4084472656
1488506912.5726680756,1488506912.5749609470,        3.6308593750,        0.6909179688,       -1.3188476562,      -80.6427001953,       69.3206787109,      187.4084472656
1488506912.5752460957,1488506912.5775370598,        3.6308593750,        0.6909179688,       -1.3188476562,      -81.8328857422,       43.7469482422,       59.9365234375
1488506912.5778191090,1488506912.5801200867,        1.4174804688,        5.8881835938,       -2.1416015625,      -81.8328857422,       43.7469482422,       59.9365234375
1488506912.5803990364,1488506912.5827059746,        1.4174804688,        5.8881835938,       -2.1416015625,     -101.7456054688,       19.9584960938,       37.3382568359
1488506912.5829870701,1488506912.5852780342,        1.4174804688,        5.8881835938,       -2.1416015625,     -101.7456054688,       19.9584960938,       37.3382568359
1488506912.5855579376,1488506912.5878539085,        1.4174804688,        5.8881835938,       -2.1416015625,     -169.2352294922,      -21.2707519531,       84.1369628906
1488506912.5881359577,1488506912.5904240608,       -2.2651367188,        4.6250000000,       -1.9287109375,     -169.2352294922,      -21.2707519531,       84.1369628906
1488506912.5907039642,1488506912.5930399895,       -2.2651367188,        4.6250000000,       -1.9287109375,     -200.4852294922,      -40.8477783203,       77.1331787109
1488506912.5933210850,1488506912.5956130028,       -2.2651367188,        4.6250000000,       -1.9287109375,     -201.1413574219,      -40.8477783203,       77.1331787109
1488506912.5958960056,1488506912.5981841087,       -2.2651367188,        4.6250000000,       -1.9287109375,     -201.1413574219,      -48.6602783203,        2.2735595703
1488506912.5984640121,1488506912.6007549763,        0.9243164062,       -1.0532226562,       -0.7241210938,     -178.2684326172,      -48.3551025391,        2.2735595703
1488506912.6010370255,1488506912.6034231186,        0.9243164062,       -1.0532226562,       -0.7241210938,     -178.2684326172,      -48.3551025391,     -101.4404296875
1488506912.6037099361,1488506912.6059999466,        0.9243164062,       -1.0532226562,       -0.7241210938,     -124.4354248047,      -52.6733398438,     -101.4404296875
1488506912.6062839031,1488506912.6085820198,        0.9243164062,       -1.0532226562,       -0.7241210938,     -124.4354248047,      -52.6733398438,     -179.5654296875
1488506912.6088659763,1488506912.6111619473,        1.4482421875,       -0.3862304688,        0.1152343750,      -84.9609375000,      -57.2357177734,     -178.8177490234
1488506912.6114470959,1488506912.6138970852,        1.4482421875,       -0.3862304688,        0.1152343750,      -84.9609375000,      -57.2357177734,     -178.8177490234
1488506912.6141829491,1488506912.6164829731,        1.4482421875,       -0.3862304688,        0.1152343750,      -64.1021728516,      -54.6722412109,     -206.8634033203
1488506912.6167678833,1488506912.6190590858,        1.4482421875,       -0.3862304688,        0.1152343750,      -64.1021728516,      -54.6722412109,     -206.8634033203
1488506912.6193449497,1488506912.6216468811,       -0.1352539062,        0.4409179688,        0.0976562500,      -40.7409667969,      -53.0242919922,     -208.5266113281
1488506912.6219921112,1488506912.6244039536,       -0.1352539062,        0.4409179688,        0.0976562500,      -40.7409667969,      -53.0242919922,     -208.5266113281
1488506912.6246969700,1488506912.6271159649,       -0.1352539062,        0.4409179688,        0.0976562500,      -13.4277343750,      -47.0275878906,     -195.2819824219
1488506912.6274099350,1488506912.6298310757,       -0.1352539062,       -0.0820312500,       -0.2646484375,      -13.4277343750,      -47.0275878906,     -195.2819824219
1488506912.6301240921,1488506912.6325559616,        0.2392578125,       -0.0820312500,       -0.2646484375,        9.2773437500,      -37.8570556641,     -169.5404052734
1488506912.6328470707,1488506912.6352639198,        0.2392578125,       -0.0820312500,       -0.2646484375,        9.2773437500,      -37.8570556641,     -169.5404052734
1488506912.6356599331,1488506912.6380798817,        0.2392578125,       -0.0820312500,       -0.2646484375,       30.6091308594,      -31.0363769531,     -141.6473388672
1488506912.6383740902,1488506912.6407890320,        0.2163085938,       -0.8671875000,       -0.0571289062,       30.6091308594,      -31.0363769531,     -141.6473388672
1488506912.6410820484,1488506912.6434218884,        0.2163085938,       -0.8671875000,       -0.0571289062,       50.0183105469,      -26.5960693359,     -119.0795898438
1488506912.6437098980,1488506912.6460020542,        0.2163085938,       -0.8671875000,       -0.0571289062,       50.0183105469,      -26.5960693359,     -119.0795898438
1488506912.6462891102,1488506912.6485750675,        0.2163085938,       -0.8671875000,       -0.0571289062,       59.9517822266,      -22.1862792969,     -103.6071777344
1488506912.6488618851,1488506912.6511569023,        0.1201171875,       -1.1230468750,        0.2270507812,       59.9517822266,      -22.1862792969,     -103.6071777344
1488506912.6514410973,1488506912.6537399292,        0.1201171875,       -1.1230468750,        0.2270507812,       60.0585937500,      -20.0347900391,      -87.5091552734
1488506912.6540250778,1488506912.6563200951,        0.1201171875,       -1.1230468750,        0.2270507812,       60.0585937500,      -20.0347900391,      -87.5091552734
1488506912.6566040516,1488506912.6588990688,        0.1201171875,       -1.1230468750,        0.2270507812,       61.9964599609,      -15.7928466797,      -68.7713623047
1488506912.6591830254,1488506912.6614780426,       -0.0439453125,       -1.1049804688,        0.4111328125,       61.9964599609,      -15.7928466797,      -68.7713623047
1488506912.6617588997,1488506912.6640601158,       -0.0439453125,       -1.1049804688,        0.4111328125,       65.9942626953,      -10.8489990234,      -47.3632812500
1488506912.6643440723,1488506912.6666378975,       -0.0439453125,       -1.1049804688,        0.4111328125,       65.9942626953,      -10.8489990234,      -47.3632812500
1488506912.6669230461,1488506912.6693789959,       -0.0439453125,       -1.1049804688,        0.4111328125,       77.7130126953,       -6.1035156250,      -22.5067138672
1488506912.6696619987,1488506912.6721799374,       -0.1801757812,       -0.8583984375,        0.2500000000,       74.3103027344,       -6.1035156250,      -22.5067138672
1488506912.6724669933,1488506912.6747529507,       -0.1801757812,       -0.8583984375,        0.2500000000,       82.1228027344,       -3.0364990234,        3.1890869141
1488506912.6750340462,1488506912.6773259640,       -0.1801757812,       -0.8583984375,        0.2500000000,       83.0993652344,       -3.0364990234,        3.1890869141
1488506912.6776049137,1488506912.6798911095,       -0.1801757812,       -0.8583984375,       -0.0722656250,       83.0993652344,       -3.0364990234,       31.4331054688
1488506912.6801729202,1488506912.6825311184,       -0.2597656250,       -0.4062500000,       -0.0722656250,       88.8977050781,       -1.4953613281,       31.4331054688
1488506912.6828119755,1488506912.6851089001,       -0.2597656250,       -0.4062500000,       -0.0722656250,       88.8977050781,       -1.4953613281,       58.9752197266
1488506912.6853909492,1488506912.6876769066,       -0.2597656250,       -0.4062500000,       -0.0722656250,       87.3413085938,       -1.6784667969,       58.9752197266
1488506912.6879589558,1488506912.6902489662,       -0.2597656250,       -0.0312500000,       -0.2089843750,       87.3413085938,       -1.6784667969,       78.5064697266
1488506912.6905310154,1488506912.6928720474,       -0.1542968750,       -0.0781250000,       -0.2089843750,       80.8868408203,       -2.9602050781,       80.3375244141
1488506912.6931540966,1488506912.6954460144,       -0.1542968750,       -0.0781250000,       -0.2089843750,       80.8868408203,       -2.9602050781,       80.3375244141
1488506912.6957280636,1488506912.6980199814,       -0.1542968750,       -0.0781250000,       -0.2089843750,       69.3359375000,       -4.7454833984,       91.5222167969
1488506912.6984119415,1488506912.7006969452,       -0.0292968750,        0.2045898438,       -0.1342773438,       69.3359375000,       -4.7454833984,       91.5222167969
1488506912.7009799480,1488506912.7032830715,       -0.0097656250,        0.2045898438,       -0.1342773438,       49.2401123047,       -8.2702636719,       93.4600830078
1488506912.7035679817,1488506912.7058629990,       -0.0097656250,        0.2045898438,       -0.1342773438,       49.2401123047,       -8.2702636719,       93.4600830078
1488506912.7061460018,1488506912.7084341049,       -0.0097656250,        0.2045898438,       -0.1342773438,       26.0162353516,      -12.5579833984,       88.1347656250
1488506912.7087209225,1488506912.7110049725,        0.0649414062,        0.3842773438,        0.0644531250,       26.0162353516,      -12.5579833984,       88.1347656250
1488506912.7112898827,1488506912.7136309147,        0.0649414062,        0.3842773438,        0.0644531250,        6.2713623047,      -17.1966552734,       77.4841308594
1488506912.7139110565,1488506912.7162010670,        0.0649414062,        0.3842773438,        0.0644531250,        6.2713623047,      -17.1966552734,       77.4841308594
1488506912.7164809704,1488506912.7187700272,        0.0649414062,        0.3842773438,        0.0644531250,       -6.8054199219,      -20.7366943359,       61.8133544922
1488506912.7190508842,1488506912.7213358879,        0.0839843750,        0.3046875000,        0.1640625000,       -6.8054199219,      -20.7366943359,       61.8133544922
1488506912.7216169834,1488506912.7240409851,        0.0839843750,        0.3046875000,        0.1640625000,      -16.0369873047,      -22.4761962891,       43.6401367188
1488506912.7243299484,1488506912.7266199589,        0.0839843750,        0.3046875000,        0.1640625000,      -16.0369873047,      -22.4761962891,       43.6401367188
1488506912.7269060612,1488506912.7291951180,        0.0839843750,        0.3046875000,        0.1640625000,      -19.9432373047,      -22.8424072266,       25.7568359375
1488506912.7294800282,1488506912.7318830490,        0.0566406250,        0.1904296875,        0.1538085938,      -22.2320556641,      -22.8424072266,       25.7568359375
1488506912.7321860790,1488506912.7346210480,        0.0566406250,        0.1904296875,        0.1538085938,      -26.1383056641,      -20.3704833984,        8.8958740234
1488506912.7349140644,1488506912.7373299599,        0.0566406250,        0.1904296875,        0.1538085938,      -24.2462158203,      -20.3704833984,        8.8958740234
1488506912.7376201153,1488506912.7400441170,        0.0566406250,        0.1904296875,        0.1538085938,      -24.2462158203,      -16.7083740234,       -6.8969726562
1488506912.7403349876,1488506912.7427120209,        0.0273437500,        0.0996093750,        0.1625976562,      -20.9655761719,      -16.7083740234,       -6.8969726562
1488506912.7429950237,1488506912.7452869415,        0.0273437500,        0.0996093750,        0.1625976562,      -20.9655761719,      -12.8021240234,      -21.7590332031
1488506912.7455720901,1488506912.7478709221,        0.0273437500,        0.0996093750,        0.1625976562,      -10.2539062500,      -15.1519775391,      -21.7590332031
1488506912.7481551170,1488506912.7504479885,        0.0273437500,        0.0996093750,        0.1625976562,      -10.2539062500,      -15.1519775391,      -36.0412597656
1488506912.7507319450,1488506912.7531468868,        0.1103515625,       -0.0297851562,        0.1357421875,        1.2664794922,      -11.3677978516,      -36.0412597656
1488506912.7534379959,1488506912.7558650970,        0.1103515625,       -0.0297851562,        0.1357421875,        1.2664794922,      -11.3677978516,      -47.8668212891
1488506912.7561540604,1488506912.7585699558,        0.1103515625,       -0.0297851562,        0.1357421875,       12.3443603516,       -7.2631835938,      -47.8668212891
1488506912.7588610649,1488506912.7612810135,        0.1103515625,       -0.2128906250,        0.1435546875,       12.3443603516,       -7.2631835938,      -54.5501708984
1488506912.7617120743,1488506912.7640130520,        0.0703125000,       -0.2128906250,        0.1435546875,       27.9541015625,       -3.3721923828,      -54.5501708984
1488506912.7642979622,1488506912.7665851116,        0.0703125000,       -0.2128906250,        0.1435546875,       27.9541015625,       -3.3721923828,      -58.4564208984
1488506912.7668659687,1488506912.7691659927,        0.0703125000,       -0.2128906250,        0.1435546875,       46.0205078125,        0.9613037109,      -57.7239990234
1488506912.7694470882,1488506912.7718439102,       -0.0097656250,       -0.2871093750,        0.1440429688,       46.0205078125,        0.9613037109,      -57.7239990234
1488506912.7721459866,1488506912.7744479179,       -0.0097656250,       -0.2871093750,        0.1440429688,       62.4237060547,        4.2419433594,      -58.8531494141
1488506912.7747340202,1488506912.7770290375,       -0.0097656250,       -0.2871093750,        0.1440429688,       62.4237060547,        4.2419433594,      -58.8531494141
1488506912.7773110867,1488506912.7796039581,       -0.0097656250,       -0.2871093750,        0.1440429688,       73.7915039062,        5.7525634766,      -56.4880371094
1488506912.7798860073,1488506912.7822868824,       -0.1010742188,       -0.2460937500,        0.1547851562,       73.7915039062,        5.7525634766,      -56.4880371094
1488506912.7825720310,1488506912.7848639488,       -0.1010742188,       -0.2460937500,        0.1547851562,       80.3680419922,        7.7819824219,      -51.1016845703
1488506912.7851479053,1488506912.7875299454,       -0.1010742188,       -0.2460937500,        0.1547851562,       80.3680419922,        7.7819824219,      -51.1016845703
1488506912.7878320217,1488506912.7901349068,       -0.1010742188,       -0.2460937500,        0.1547851562,       82.4890136719,        9.9945068359,      -41.1682128906
1488506912.7904191017,1488506912.7931120396,       -0.2128906250,       -0.1660156250,        0.1206054688,       82.4890136719,        9.9945068359,      -41.1682128906
1488506912.7933990955,1488506912.7956910133,       -0.2128906250,       -0.1660156250,        0.1206054688,       79.9102783203,       10.8032226562,      -29.9682617188
1488506912.7959771156,1488506912.7982599735,       -0.2128906250,       -0.1660156250,        0.1206054688,       79.9102783203,       10.8032226562,      -29.9682617188
1488506912.7985448837,1488506912.8008339405,       -0.2128906250,       -0.1660156250,        0.1206054688,       73.8830566406,       11.0473632812,      -18.8293457031
1488506912.8011190891,1488506912.8034610748,       -0.2241210938,       -0.0312500000,        0.0541992188,       73.8830566406,       11.0473632812,      -18.8293457031
1488506912.8037469387,1488506912.8060350418,       -0.2241210938,       -0.0312500000,        0.0541992188,       65.6280517578,       10.8337402344,       -7.4920654297
1488506912.8063158989,1488506912.8086121082,       -0.2241210938,       -0.0312500000,        0.0541992188,       65.6280517578,       10.8337402344,       -7.4920654297
1488506912.8088939190,1488506912.8111820221,       -0.2241210938,       -0.0312500000,       -0.0693359375,       53.6804199219,        9.2773437500,        4.0130615234
1488506912.8114609718,1488506912.8138010502,       -0.1889648438,        0.0844726562,       -0.0693359375,       53.6804199219,        9.2773437500,        4.0130615234
1488506912.8140780926,1488506912.8163750172,       -0.1889648438,        0.0844726562,       -0.0693359375,       41.9616699219,        7.0037841797,       15.0146484375
1488506912.8166561127,1488506912.8189470768,       -0.1889648438,        0.0844726562,       -0.0693359375,       39.3218994141,        7.0037841797,       15.0146484375
1488506912.8192288876,1488506912.8215169907,       -0.1889648438,        0.2094726562,       -0.1083984375,       39.3218994141,        7.0037841797,       25.1312255859
1488506912.8217980862,1488506912.8240909576,       -0.1416015625,        0.1547851562,       -0.1083984375,       20.6604003906,        4.1961669922,       25.1312255859
1488506912.8243739605,1488506912.8266670704,       -0.1416015625,        0.1547851562,       -0.1083984375,       20.6604003906,        4.1961669922,       34.2864990234
1488506912.8270568848,1488506912.8293540478,       -0.1416015625,        0.1547851562,       -0.1083984375,       -0.4577636719,        1.4648437500,       34.2864990234
1488506912.8296310902,1488506912.8319499493,       -0.1416015625,        0.1499023438,       -0.0537109375,       -0.4577636719,        1.4648437500,       41.5344238281
1488506912.8322269917,1488506912.8345229626,       -0.1171875000,        0.1499023438,       -0.0537109375,      -20.5688476562,       -1.2207031250,       41.5344238281
1488506912.8348050117,1488506912.8371050358,       -0.1171875000,        0.1499023438,       -0.0537109375,      -20.5688476562,       -1.2207031250,       41.5344238281
1488506912.8373889923,1488506912.8396821022,       -0.1171875000,        0.1499023438,       -0.0537109375,      -39.8406982422,       -4.2266845703,       46.1120605469
1488506912.8399660587,1488506912.8424150944,       -0.1171875000,        0.0961914062,        0.0029296875,      -39.8406982422,       -4.2266845703,       46.1120605469
1488506912.8426990509,1488506912.8449978828,       -0.1049804688,        0.0961914062,        0.0029296875,      -56.5490722656,       -6.5002441406,       48.1719970703
1488506912.8452820778,1488506912.8475730419,       -0.1049804688,        0.0961914062,        0.0029296875,      -56.5490722656,       -6.5002441406,       48.1719970703
1488506912.8478550911,1488506912.8501520157,       -0.1049804688,        0.0961914062,        0.0029296875,      -70.7244873047,       -7.5225830078,       47.9736328125
1488506912.8504350185,1488506912.8528618813,       -0.0810546875,        0.0195312500,        0.0234375000,      -70.7244873047,       -7.5225830078,       47.9736328125
1488506912.8531489372,1488506912.8555309772,       -0.0810546875,        0.0195312500,        0.0234375000,      -84.1064453125,       -7.4310302734,       46.8444824219
1488506912.8558158875,1488506912.8582010269,       -0.0810546875,        0.0195312500,        0.0234375000,      -84.1064453125,       -7.4310302734,       46.8444824219
1488506912.8584868908,1488506912.8609519005,       -0.0810546875,        0.0195312500,        0.0234375000,      -94.8944091797,       -6.9732666016,       45.8679199219
1488506912.8612360954,1488506912.8636939526,       -0.0712890625,       -0.0478515625,        0.0405273438,      -94.8944091797,       -6.9732666016,       45.8679199219
1488506912.8639819622,1488506912.8663659096,       -0.0712890625,       -0.0478515625,        0.0405273438,     -103.5614013672,       -6.4697265625,       45.4101562500
1488506912.8666520119,1488506912.8692018986,       -0.0712890625,       -0.0478515625,        0.0405273438,     -103.5614013672,       -6.4697265625,       45.4101562500
1488506912.8694849014,1488506912.8718559742,       -0.0712890625,       -0.0478515625,        0.0454101562,     -110.1989746094,       -5.9051513672,       44.1741943359
1488506912.8721549511,1488506912.8744540215,       -0.0576171875,       -0.0942382812,        0.0454101562,     -110.1989746094,       -5.9051513672,       44.1741943359
1488506912.8747360706,1488506912.8770260811,       -0.0576171875,       -0.0942382812,        0.0454101562,     -115.6616210938,       -4.8065185547,       43.5180664062
1488506912.8773069382,1488506912.8795928955,       -0.0576171875,       -0.0942382812,        0.0454101562,     -115.6616210938,       -4.8065185547,       43.5180664062
1488506912.8798749447,1488506912.8821709156,       -0.0576171875,       -0.0942382812,        0.0620117188,     -119.7662353516,       -3.6163330078,       42.4499511719
1488506912.8824529648,1488506912.8847470284,       -0.0688476562,       -0.1162109375,        0.0620117188,     -119.7662353516,       -3.6163330078,       42.4499511719
1488506912.8850328922,1488506912.8873200417,       -0.0688476562,       -0.1162109375,        0.0620117188,     -121.0937500000,       -3.1280517578,       41.0461425781
1488506912.8876039982,1488506912.8898921013,       -0.0688476562,       -0.1162109375,        0.0620117188,     -121.0937500000,       -3.1280517578,       41.0461425781
1488506912.8902890682,1488506912.8925890923,       -0.0688476562,       -0.1054687500,        0.0703125000,     -121.0937500000,       -3.0517578125,       39.8559570312
1488506912.8928709030,1488506912.8951559067,       -0.0996093750,       -0.1054687500,        0.0703125000,     -120.2545166016,       -3.0517578125,       39.8559570312
1488506912.8954389095,1488506912.8977351189,       -0.0996093750,       -0.1054687500,        0.0703125000,     -120.2545166016,       -2.4261474609,       38.8946533203
1488506912.8980169296,1488506912.9003069401,       -0.0996093750,       -0.1054687500,        0.0703125000,     -118.9575195312,       -2.4261474609,       38.8946533203
1488506912.9005899429,1488506912.9029049873,       -0.2246093750,       -0.0898437500,        0.0605468750,     -118.9575195312,       -2.4261474609,       38.5284423828
1488506912.9031879902,1488506912.9054760933,       -0.1342773438,       -0.0898437500,        0.0605468750,     -116.5161132812,       -1.7852783203,       38.5284423828
