time_stamp before, time_stamp after, Acceleration x, Acceleration y, Acceleration z, Gyro x, Gyro y, Gyro z
1488506709.0315868855,1488506709.0455350876,        0.5942382812,        0.1054687500,       -0.1748046875,       -0.5798339844,       -0.4119873047,       -0.8697509766
1488506709.0458369255,1488506709.0485470295,        0.5966796875,        0.1054687500,       -0.1748046875,       -0.5798339844,       -0.3204345703,       -0.9765625000
1488506709.0488400459,1488506709.0520310402,        0.5966796875,        0.1054687500,       -0.1748046875,        0.4272460938,       -0.3204345703,       -0.9765625000
1488506709.0523231030,1488506709.0549170971,        0.5966796875,        0.1127929688,       -0.1679687500,        0.0762939453,       -0.8087158203,       -1.2054443359
1488506709.0552070141,1488506709.0576229095,        0.5917968750,        0.1127929688,       -0.1679687500,        0.0762939453,       -0.8087158203,       -1.2054443359
1488506709.0579040051,1488506709.0603160858,        0.5917968750,        0.1127929688,       -0.1679687500,       -0.2441406250,       -0.7476806641,       -1.0070800781
1488506709.0605959892,1488506709.0630130768,        0.5917968750,        0.1127929688,       -0.1679687500,       -0.2441406250,       -0.7476806641,       -1.0070800781
1488506709.0632920265,1488506709.0657069683,        0.5927734375,        0.1010742188,       -0.1791992188,        0.0305175781,       -0.7324218750,       -1.0223388672
1488506709.0659899712,1488506709.0684020519,        0.5927734375,        0.1010742188,       -0.1791992188,        0.0305175781,       -0.7324218750,       -1.0223388672
1488506709.0686819553,1488506709.0710959435,        0.5927734375,        0.1010742188,       -0.1791992188,        0.4272460938,       -1.0070800781,       -1.3275146484
1488506709.0713748932,1488506709.0738029480,        0.5927734375,        0.1010742188,       -0.1791992188,        0.4272460938,       -1.0070800781,       -1.3275146484
1488506709.0740818977,1488506709.0764980316,        0.5932617188,        0.1035156250,       -0.1865234375,       -0.4730224609,       -0.4119873047,       -1.1596679688
1488506709.0767769814,1488506709.0791909695,        0.5932617188,        0.1035156250,       -0.1865234375,       -0.4730224609,       -0.4119873047,       -1.1596679688
1488506709.0794699192,1488506709.0818850994,        0.5932617188,        0.1035156250,       -0.1865234375,       -0.0457763672,       -0.2593994141,       -0.9918212891
1488506709.0821580887,1488506709.0844509602,        0.5932617188,        0.1035156250,       -0.1840820312,       -0.0457763672,       -0.2593994141,       -0.9918212891
1488506709.0847249031,1488506709.0870130062,        0.6000976562,        0.0947265625,       -0.1840820312,        0.3051757812,       -0.6103515625,       -1.2664794922
1488506709.0879490376,1488506709.0902440548,        0.6000976562,        0.0947265625,       -0.1840820312,        0.3051757812,       -0.6103515625,       -1.2664794922
1488506709.0905179977,1488506709.0929310322,        0.6000976562,        0.0947265625,       -0.1840820312,        0.1678466797,       -0.7781982422,       -1.5258789062
1488506709.0932130814,1488506709.0956180096,        0.6030273438,        0.0986328125,       -0.1835937500,        0.1678466797,       -0.7781982422,       -1.5258789062
1488506709.0959019661,1488506709.0983109474,        0.6030273438,        0.0986328125,       -0.1835937500,       -0.0762939453,       -0.6561279297,       -1.5258789062
1488506709.0985920429,1488506709.1009910107,        0.6030273438,        0.0986328125,       -0.1835937500,       -0.0762939453,       -0.6561279297,       -1.5258789062
1488506709.1012740135,1488506709.1036760807,        0.6030273438,        0.0986328125,       -0.1835937500,        0.2288818359,       -0.4882812500,       -1.4038085938
1488506709.1039559841,1488506709.1064310074,        0.6074218750,        0.0908203125,       -0.1840820312,        0.2288818359,       -0.4882812500,       -1.4038085938
1488506709.1067149639,1488506709.1091339588,        0.6074218750,        0.0908203125,       -0.1840820312,        0.8239746094,       -0.4577636719,       -1.3885498047
1488506709.1095869541,1488506709.1120169163,        0.6074218750,        0.0908203125,       -0.1840820312,        0.8239746094,       -0.4577636719,       -1.3885498047
1488506709.1123011112,1488506709.1147139072,        0.6074218750,        0.0908203125,       -0.1640625000,        0.4272460938,       -0.6408691406,       -1.4495849609
1488506709.1149959564,1488506709.1174070835,        0.6005859375,        0.0976562500,       -0.1640625000,        0.4272460938,       -0.6408691406,       -1.4495849609
1488506709.1176869869,1488506709.1201109886,        0.6005859375,        0.0976562500,       -0.1640625000,        0.3814697266,       -0.6713867188,       -1.3580322266
1488506709.1203930378,1488506709.1227669716,        0.6005859375,        0.0976562500,       -0.1640625000,        0.3814697266,       -0.6713867188,       -1.3580322266
1488506709.1230449677,1488506709.1253349781,        0.6005859375,        0.1152343750,       -0.1738281250,        0.5187988281,       -1.1138916016,       -1.1291503906
1488506709.1256101131,1488506709.1278998852,        0.6040039062,        0.1152343750,       -0.1738281250,        0.5187988281,       -1.1138916016,       -1.1291503906
1488506709.1281740665,1488506709.1304690838,        0.6040039062,        0.1152343750,       -0.1738281250,        0.5035400391,       -0.6866455078,       -1.0986328125
1488506709.1307430267,1488506709.1332280636,        0.6040039062,        0.1152343750,       -0.1738281250,        0.5035400391,       -0.6866455078,       -1.0986328125
1488506709.1335029602,1488506709.1357951164,        0.5991210938,        0.1215820312,       -0.1665039062,        0.2136230469,       -0.7781982422,       -0.4730224609
1488506709.1360700130,1488506709.1383640766,        0.5991210938,        0.1215820312,       -0.1665039062,        0.2136230469,       -0.7781982422,       -0.4730224609
1488506709.1386380196,1488506709.1409380436,        0.5991210938,        0.1215820312,       -0.1665039062,       -3.6926269531,       -0.6866455078,       -0.2136230469
1488506709.1412129402,1488506709.1437740326,        0.5991210938,        0.1215820312,       -0.1665039062,       -0.2136230469,       -0.6866455078,       -0.2136230469
1488506709.1440560818,1488506709.1464629173,        0.5913085938,        0.1030273438,       -0.1591796875,       -0.2136230469,       -0.5340576172,       -0.3204345703
1488506709.1467459202,1488506709.1491439342,        0.5913085938,        0.1030273438,       -0.1591796875,       -0.4882812500,       -0.5340576172,       -0.3204345703
1488506709.1494240761,1488506709.1518249512,        0.5913085938,        0.1030273438,       -0.1591796875,       -0.4882812500,       -0.5950927734,       -0.1831054688
1488506709.1521070004,1488506709.1545140743,        0.5913085938,        0.1030273438,       -0.1591796875,       -0.3814697266,       -0.5950927734,       -0.1831054688
1488506709.1547949314,1488506709.1571938992,        0.5952148438,        0.1093750000,       -0.1938476562,       -0.3814697266,       -0.6866455078,       -0.1983642578
1488506709.1574769020,1488506709.1598780155,        0.5952148438,        0.1093750000,       -0.1938476562,       -0.4425048828,       -0.6866455078,       -0.1983642578
1488506709.1601600647,1488506709.1625831127,        0.5952148438,        0.1093750000,       -0.1938476562,       -0.4425048828,       -0.6408691406,        0.0915527344
1488506709.1628661156,1488506709.1652629375,        0.5952148438,        0.1093750000,       -0.1840820312,       -0.7171630859,       -0.6408691406,        0.0915527344
1488506709.1655440331,1488506709.1679430008,        0.5942382812,        0.0991210938,       -0.1840820312,       -0.7171630859,       -0.6408691406,        0.0610351562
1488506709.1682240963,1488506709.1706221104,        0.5942382812,        0.0991210938,       -0.1840820312,       -1.2817382812,       -0.4730224609,        0.0610351562
1488506709.1709039211,1488506709.1733169556,        0.5942382812,        0.0991210938,       -0.1840820312,       -1.2817382812,       -0.4730224609,       -0.4119873047
1488506709.1737089157,1488506709.1761169434,        0.6020507812,        0.0937500000,       -0.1831054688,       -0.9918212891,       -0.0457763672,       -0.4119873047
1488506709.1764008999,1488506709.1788029671,        0.6020507812,        0.0937500000,       -0.1831054688,       -0.9918212891,       -0.0457763672,       -0.3967285156
1488506709.1790840626,1488506709.1814870834,        0.6020507812,        0.0937500000,       -0.1831054688,       -0.6408691406,       -0.5950927734,       -0.3967285156
1488506709.1818408966,1488506709.1842479706,        0.6020507812,        0.0937500000,       -0.1831054688,       -0.6408691406,       -0.5950927734,       -0.4272460938
1488506709.1845309734,1488506709.1869308949,        0.5913085938,        0.0966796875,       -0.1791992188,       -0.1220703125,       -0.8239746094,       -0.4272460938
1488506709.1872138977,1488506709.1896150112,        0.5913085938,        0.0966796875,       -0.1791992188,       -0.1220703125,       -0.8239746094,       -0.6561279297
1488506709.1898949146,1488506709.1924269199,        0.5913085938,        0.0966796875,       -0.1791992188,        0.0457763672,       -0.5950927734,       -0.6561279297
1488506709.1927070618,1488506709.1950869560,        0.5913085938,        0.0966796875,       -0.1791992188,        0.0457763672,       -0.5950927734,       -0.3509521484
1488506709.1953680515,1488506709.1979401112,        0.6025390625,        0.0961914062,       -0.1831054688,        0.0152587891,       -0.6103515625,       -0.3509521484
1488506709.1982231140,1488506709.2006309032,        0.6025390625,        0.0961914062,       -0.1831054688,        0.0152587891,       -0.6103515625,       -0.3662109375
1488506709.2009139061,1488506709.2033119202,        0.6025390625,        0.0961914062,       -0.1831054688,        0.0610351562,       -0.5187988281,       -0.3662109375
1488506709.2035939693,1488506709.2059769630,        0.6025390625,        0.1030273438,       -0.1860351562,        0.0610351562,       -0.5187988281,       -0.5798339844
1488506709.2062959671,1488506709.2087080479,        0.5976562500,        0.1030273438,       -0.1860351562,       -0.1525878906,       -0.4577636719,       -0.5798339844
1488506709.2089920044,1488506709.2114050388,        0.5976562500,        0.1030273438,       -0.1860351562,       -0.1525878906,       -0.4577636719,       -0.4272460938
1488506709.2116959095,1488506709.2141129971,        0.5976562500,        0.1030273438,       -0.1860351562,       -0.4425048828,       -0.3051757812,       -0.4272460938
1488506709.2143969536,1488506709.2168109417,        0.5976562500,        0.1044921875,       -0.1821289062,       -0.4425048828,       -0.3051757812,        0.0610351562
1488506709.2170929909,1488506709.2195129395,        0.5976562500,        0.1044921875,       -0.1821289062,       -0.7934570312,       -0.1983642578,        0.0610351562
1488506709.2197959423,1488506709.2222180367,        0.5976562500,        0.1044921875,       -0.1821289062,       -0.7934570312,       -0.1983642578,       -0.0305175781
1488506709.2225019932,1488506709.2249159813,        0.5976562500,        0.1044921875,       -0.1821289062,       -0.8697509766,       -0.5950927734,       -0.0305175781
1488506709.2251980305,1488506709.2276198864,        0.6049804688,        0.1181640625,       -0.1748046875,       -0.8697509766,       -0.5950927734,       -0.0457763672
1488506709.2279028893,1488506709.2303190231,        0.6049804688,        0.1181640625,       -0.1748046875,       -1.1901855469,       -0.5493164062,       -0.0457763672
1488506709.2306010723,1488506709.2329668999,        0.6049804688,        0.1181640625,       -0.1748046875,       -1.1901855469,       -0.5493164062,       -0.1068115234
1488506709.2332420349,1488506709.2355298996,        0.6049804688,        0.1181640625,       -0.1748046875,       -1.6174316406,       -0.4577636719,       -0.1068115234
1488506709.2358050346,1488506709.2380990982,        0.5917968750,        0.1049804688,       -0.1547851562,       -1.6174316406,       -0.4577636719,        3.7994384766
1488506709.2384819984,1488506709.2407720089,        0.5917968750,        0.1049804688,       -0.1547851562,       -0.9002685547,       -0.3509521484,        0.0152587891
1488506709.2410469055,1488506709.2434279919,        0.5917968750,        0.1049804688,       -0.1547851562,       -0.9002685547,       -0.3509521484,        0.0152587891
1488506709.2437028885,1488506709.2459919453,        0.5917968750,        0.1049804688,       -0.1723632812,       -0.8850097656,       -0.6713867188,        0.2441406250
1488506709.2462658882,1488506709.2485558987,        0.5927734375,        0.1074218750,       -0.1723632812,       -0.8850097656,       -0.6713867188,        0.2441406250
1488506709.2488300800,1488506709.2511200905,        0.5927734375,        0.1074218750,       -0.1723632812,       -1.2664794922,       -0.5187988281,       -0.0610351562
1488506709.2513930798,1488506709.2548270226,        0.5927734375,        0.1074218750,       -0.1723632812,       -1.2664794922,       -0.5187988281,        3.8452148438
1488506709.2551190853,1488506709.2583549023,        0.6005859375,        0.1005859375,       -0.1767578125,       -1.2969970703,       -0.3967285156,        0.0762939453
1488506709.2586441040,1488506709.2619059086,        0.6005859375,        0.1005859375,       -0.1767578125,       -0.9765625000,       -0.3814697266,       -0.0457763672
1488506709.2621979713,1488506709.2646079063,        0.6005859375,        0.1005859375,       -0.1767578125,       -0.9765625000,       -0.3814697266,       -0.0457763672
1488506709.2648899555,1488506709.2672860622,        0.5937500000,        0.1040039062,       -0.1733398438,       -0.8697509766,       -0.2899169922,       -0.2136230469
1488506709.2675681114,1488506709.2699670792,        0.5937500000,        0.1040039062,       -0.1733398438,       -0.8697509766,       -0.2899169922,       -0.2136230469
1488506709.2702488899,1488506709.2726969719,        0.5937500000,        0.1040039062,       -0.1733398438,       -0.7171630859,       -0.2593994141,       -0.2136230469
1488506709.2729799747,1488506709.2753829956,        0.5937500000,        0.1040039062,       -0.1733398438,       -0.7171630859,       -0.2593994141,       -0.2136230469
1488506709.2756640911,1488506709.2786669731,        0.5996093750,        0.0947265625,       -0.1708984375,       -0.1678466797,       -0.6408691406,       -0.5493164062
1488506709.2789471149,1488506709.2812349796,        0.5996093750,        0.0947265625,       -0.1708984375,       -0.1678466797,       -0.6408691406,       -0.5493164062
1488506709.2815110683,1488506709.2838649750,        0.5996093750,        0.0947265625,       -0.1708984375,        0.0152587891,       -0.5950927734,       -0.9918212891
1488506709.2841420174,1488506709.2864320278,        0.5996093750,        0.0947265625,       -0.1801757812,        0.0152587891,       -0.5950927734,       -0.9918212891
1488506709.2867059708,1488506709.2889928818,        0.5986328125,        0.1064453125,       -0.1801757812,       -0.3814697266,       -0.4882812500,       -0.6713867188
1488506709.2892680168,1488506709.2915580273,        0.5986328125,        0.1064453125,       -0.1801757812,       -0.3814697266,       -0.4882812500,       -0.6713867188
1488506709.2918310165,1488506709.2941648960,        0.5986328125,        0.1064453125,       -0.1801757812,        0.0000000000,       -0.5950927734,       -0.6256103516
1488506709.2944419384,1488506709.2967329025,        0.5986328125,        0.1064453125,       -0.1777343750,        0.0000000000,       -0.5950927734,       -0.6256103516
1488506709.2970070839,1488506709.2993009090,        0.5986328125,        0.1015625000,       -0.1777343750,       -0.2746582031,       -0.5035400391,       -1.1444091797
1488506709.2995760441,1488506709.3020670414,        0.5986328125,        0.1015625000,       -0.1777343750,       -0.2746582031,       -0.5035400391,       -1.1444091797
1488506709.3023440838,1488506709.3046278954,        0.5986328125,        0.1015625000,       -0.1777343750,        0.0457763672,       -0.6103515625,       -1.1138916016
1488506709.3050210476,1488506709.3073151112,        0.5976562500,        0.1020507812,       -0.1865234375,        0.0457763672,       -0.6103515625,       -1.1138916016
1488506709.3077108860,1488506709.3099980354,        0.5976562500,        0.1020507812,       -0.1865234375,       -0.0305175781,       -0.2593994141,       -0.7934570312
1488506709.3102719784,1488506709.3130910397,        0.5976562500,        0.1020507812,       -0.1865234375,       -0.0305175781,       -0.2593994141,       -0.7934570312
1488506709.3133759499,1488506709.3157989979,        0.5976562500,        0.1020507812,       -0.1865234375,        0.4119873047,       -0.2899169922,       -0.8850097656
1488506709.3160820007,1488506709.3185019493,        0.6069335938,        0.1044921875,       -0.1777343750,        0.4119873047,       -0.2899169922,       -0.8850097656
1488506709.3187839985,1488506709.3212029934,        0.6069335938,        0.1044921875,       -0.1777343750,       -0.3204345703,       -0.4272460938,       -0.5493164062
1488506709.3214869499,1488506709.3239181042,        0.6069335938,        0.1044921875,       -0.1777343750,       -0.3204345703,       -0.4272460938,       -0.5493164062
1488506709.3242011070,1488506709.3266170025,        0.6069335938,        0.1044921875,       -0.1777343750,       -0.8392333984,       -0.5035400391,       -0.3356933594
1488506709.3269000053,1488506709.3293159008,        0.6035156250,        0.1088867188,       -0.1875000000,       -0.8392333984,       -0.5035400391,       -0.3356933594
1488506709.3295960426,1488506709.3320140839,        0.6035156250,        0.1088867188,       -0.1875000000,       -0.5035400391,       -0.5645751953,       -0.1983642578
1488506709.3322958946,1488506709.3347160816,        0.6035156250,        0.1088867188,       -0.1875000000,       -0.5035400391,       -0.5645751953,       -0.1983642578
1488506709.3349978924,1488506709.3374149799,        0.6035156250,        0.1083984375,       -0.1567382812,       -0.3662109375,       -0.1068115234,       -0.3356933594
1488506709.3376970291,1488506709.3401119709,        0.6020507812,        0.1083984375,       -0.1567382812,       -0.3662109375,       -0.1068115234,       -0.3356933594
1488506709.3403940201,1488506709.3427739143,        0.6020507812,        0.1083984375,       -0.1567382812,       -0.6256103516,       -0.3356933594,       -0.3051757812
1488506709.3430509567,1488506709.3453431129,        0.6020507812,        0.1083984375,       -0.1567382812,       -0.6256103516,       -0.3356933594,       -0.3051757812
1488506709.3456161022,1488506709.3479108810,        0.5952148438,        0.1118164062,       -0.1640625000,       -0.6256103516,       -0.5187988281,       -0.2899169922
1488506709.3481860161,1488506709.3504860401,        0.5952148438,        0.1118164062,       -0.1640625000,       -0.9918212891,       -0.5187988281,       -0.2899169922
1488506709.3507599831,1488506709.3531029224,        0.5952148438,        0.1118164062,       -0.1640625000,       -0.9918212891,       -0.5493164062,       -0.1678466797
1488506709.3533790112,1488506709.3556790352,        0.5952148438,        0.1118164062,       -0.1640625000,       -0.8697509766,       -0.5493164062,       -0.1678466797
1488506709.3559529781,1488506709.3582489491,        0.5942382812,        0.1059570312,       -0.1757812500,       -0.8697509766,       -0.5493164062,       -0.3662109375
1488506709.3585250378,1488506709.3608229160,        0.5942382812,        0.1059570312,       -0.1757812500,       -0.4272460938,       -0.2593994141,       -0.3662109375
1488506709.3610980511,1488506709.3635599613,        0.5942382812,        0.1059570312,       -0.1757812500,       -0.4272460938,       -0.2593994141,       -0.6866455078
1488506709.3638360500,1488506709.3661320210,        0.5942382812,        0.1059570312,       -0.1757812500,        0.1373291016,       -0.1220703125,       -0.6866455078
1488506709.3664081097,1488506709.3687040806,        0.5932617188,        0.1093750000,       -0.1865234375,        0.1373291016,       -0.1220703125,       -0.6866455078
1488506709.3690869808,1488506709.3713879585,        0.5932617188,        0.1093750000,       -0.1865234375,       -0.1068115234,       -0.6561279297,       -0.6256103516
1488506709.3718109131,1488506709.3742160797,        0.5932617188,        0.1093750000,       -0.1865234375,       -0.1068115234,       -0.6561279297,       -0.6256103516
1488506709.3744978905,1488506709.3769071102,        0.5932617188,        0.1093750000,       -0.1865234375,       -0.2136230469,       -0.7324218750,       -0.4119873047
1488506709.3771889210,1488506709.3795890808,        0.5981445312,        0.1000976562,       -0.1787109375,       -0.2136230469,       -0.7324218750,       -0.4119873047
1488506709.3798708916,1488506709.3823249340,        0.5981445312,        0.1000976562,       -0.1787109375,        0.4577636719,       -0.6256103516,       -0.7171630859
1488506709.3826079369,1488506709.3850259781,        0.5981445312,        0.1000976562,       -0.1787109375,        0.4577636719,       -0.6256103516,       -0.7171630859
1488506709.3853070736,1488506709.3877251148,        0.5981445312,        0.1000976562,       -0.1865234375,        0.8239746094,       -0.7781982422,       -0.9765625000
1488506709.3880081177,1488506709.3904340267,        0.6035156250,        0.1040039062,       -0.1865234375,        0.8239746094,       -0.7781982422,       -0.9765625000
1488506709.3907160759,1488506709.3932929039,        0.6035156250,        0.1040039062,       -0.1865234375,        0.4119873047,       -0.4730224609,       -0.7781982422
1488506709.3935770988,1488506709.3959650993,        0.6035156250,        0.1040039062,       -0.1865234375,        0.4119873047,       -0.4730224609,       -0.7781982422
1488506709.3962469101,1488506709.3989241123,        0.5957031250,        0.1074218750,       -0.1791992188,       -0.1678466797,       -0.1068115234,       -0.4425048828
1488506709.3992030621,1488506709.4014899731,        0.5957031250,        0.1074218750,       -0.1791992188,       -0.1678466797,       -0.1068115234,       -0.4425048828
1488506709.4018530846,1488506709.4041519165,        0.5957031250,        0.1074218750,       -0.1791992188,       -0.2899169922,       -0.5035400391,       -0.7324218750
1488506709.4044270515,1488506709.4067249298,        0.5957031250,        0.1074218750,       -0.1791992188,       -0.2899169922,       -0.5035400391,       -0.7324218750
1488506709.4069991112,1488506709.4092850685,        0.6030273438,        0.1079101562,       -0.1889648438,       -0.5035400391,       -0.3814697266,       -0.5187988281
1488506709.4095599651,1488506709.4119040966,        0.6030273438,        0.1079101562,       -0.1889648438,       -0.5035400391,       -0.3814697266,       -0.5187988281
1488506709.4121770859,1488506709.4144649506,        0.6030273438,        0.1079101562,       -0.1889648438,       -0.7934570312,       -0.1068115234,       -0.4425048828
1488506709.4147388935,1488506709.4170289040,        0.6030273438,        0.1079101562,       -0.1889648438,       -0.7934570312,       -0.1068115234,       -0.4425048828
1488506709.4173059464,1488506709.4195981026,        0.6000976562,        0.1093750000,       -0.1865234375,       -0.4272460938,       -0.1525878906,       -0.2441406250
1488506709.4198760986,1488506709.4221680164,        0.6000976562,        0.1093750000,       -0.1865234375,       -0.4272460938,       -0.1525878906,       -0.2441406250
1488506709.4224450588,1488506709.4247310162,        0.6000976562,        0.1093750000,       -0.1865234375,       -0.6256103516,        0.1068115234,       -0.5950927734
1488506709.4250059128,1488506709.4272990227,        0.6000976562,        0.1093750000,       -0.1865234375,       -0.6256103516,        0.1068115234,       -0.5950927734
1488506709.4275739193,1488506709.4298610687,        0.5961914062,        0.1098632812,       -0.1713867188,       -0.5493164062,       -0.3356933594,       -0.2746582031
1488506709.4301359653,1488506709.4324951172,        0.5961914062,        0.1098632812,       -0.1713867188,       -0.5493164062,       -0.3356933594,       -0.2746582031
1488506709.4328711033,1488506709.4351580143,        0.5961914062,        0.1098632812,       -0.1713867188,       -0.7629394531,       -0.4882812500,       -0.1678466797
1488506709.4354319572,1488506709.4377250671,        0.5961914062,        0.1098632812,       -0.1713867188,       -0.7629394531,       -0.4882812500,       -0.1678466797
1488506709.4379990101,1488506709.4402899742,        0.5947265625,        0.1127929688,       -0.1713867188,       -0.7629394531,       -0.3509521484,       -0.0152587891
1488506709.4405651093,1488506709.4429929256,        0.5947265625,        0.1127929688,       -0.1713867188,       -0.8544921875,       -0.3509521484,       -0.0152587891
1488506709.4432699680,1488506709.4455521107,        0.5947265625,        0.1127929688,       -0.1713867188,       -0.8544921875,       -0.3509521484,       -0.1831054688
1488506709.4458270073,1488506709.4481229782,        0.5947265625,        0.1127929688,       -0.1752929688,       -0.5035400391,       -0.3662109375,       -0.1831054688
1488506709.4483990669,1488506709.4506890774,        0.5986328125,        0.1098632812,       -0.1752929688,       -0.5035400391,       -0.3662109375,       -0.6713867188
1488506709.4509649277,1488506709.4533710480,        0.5986328125,        0.1098632812,       -0.1752929688,       -0.3662109375,       -0.4882812500,       -0.6713867188
1488506709.4536468983,1488506709.4559330940,        0.5986328125,        0.1098632812,       -0.1752929688,       -0.3662109375,       -0.4882812500,       -0.6713867188
1488506709.4562070370,1488506709.4584949017,        0.5986328125,        0.1083984375,       -0.1865234375,       -0.5187988281,       -0.3814697266,       -0.7171630859
1488506709.4587690830,1488506709.4610679150,        0.6000976562,        0.1083984375,       -0.1865234375,       -0.5187988281,       -0.3814697266,       -0.7171630859
1488506709.4613420963,1488506709.4636430740,        0.6000976562,        0.1083984375,       -0.1865234375,       -0.7019042969,       -0.6256103516,       -0.5950927734
1488506709.4639170170,1488506709.4662070274,        0.6000976562,        0.1083984375,       -0.1865234375,       -0.7019042969,       -0.6256103516,       -0.5950927734
1488506709.4664819241,1488506709.4687759876,        0.6000976562,        0.1049804688,       -0.1738281250,       -0.3051757812,       -0.1983642578,       -0.4425048828
1488506709.4690499306,1488506709.4713420868,        0.5952148438,        0.1049804688,       -0.1738281250,       -0.3051757812,       -0.1983642578,       -0.4425048828
1488506709.4716179371,1488506709.4739239216,        0.5952148438,        0.1049804688,       -0.1738281250,       -0.4119873047,       -0.5340576172,       -0.5645751953
1488506709.4742000103,1488506709.4764950275,        0.5952148438,        0.1049804688,       -0.1738281250,       -0.4119873047,       -0.5340576172,       -0.5645751953
1488506709.4767699242,1488506709.4790630341,        0.5952148438,        0.0937500000,       -0.1826171875,        0.6713867188,       -0.4119873047,       -0.9002685547
1488506709.4793388844,1488506709.4816420078,        0.6064453125,        0.0937500000,       -0.1826171875,        0.6713867188,       -0.4119873047,       -0.9002685547
1488506709.4819788933,1488506709.4843959808,        0.6064453125,        0.0937500000,       -0.1826171875,        1.2054443359,       -0.3814697266,       -0.9460449219
1488506709.4846780300,1488506709.4870960712,        0.6064453125,        0.0937500000,       -0.1826171875,        1.2054443359,       -0.3814697266,       -0.9460449219
1488506709.4873778820,1488506709.4897930622,        0.5878906250,        0.1176757812,       -0.1850585938,        0.7476806641,       -0.6408691406,       -1.1749267578
1488506709.4900770187,1488506709.4925088882,        0.5878906250,        0.1176757812,       -0.1850585938,        0.7476806641,       -0.6408691406,       -1.1749267578
1488506709.4927909374,1488506709.4952149391,        0.5878906250,        0.1176757812,       -0.1850585938,        0.1220703125,       -0.4882812500,       -1.0528564453
1488506709.4954979420,1488506709.4979178905,        0.5878906250,        0.1176757812,       -0.1850585938,        0.1220703125,       -0.4882812500,       -1.0528564453
1488506709.4983060360,1488506709.5007219315,        0.5991210938,        0.1079101562,       -0.1801757812,        0.3814697266,       -0.7324218750,       -0.7781982422
1488506709.5010039806,1488506709.5034310818,        0.5991210938,        0.1079101562,       -0.1801757812,        0.3814697266,       -0.7324218750,       -0.7781982422
1488506709.5037119389,1488506709.5061280727,        0.5991210938,        0.1079101562,       -0.1801757812,       -0.0762939453,       -0.7019042969,       -0.6561279297
1488506709.5064120293,1488506709.5089399815,        0.5991210938,        0.1079101562,       -0.1738281250,       -0.0762939453,       -0.7019042969,       -0.6561279297
1488506709.5092229843,1488506709.5119020939,        0.5952148438,        0.1113281250,       -0.1738281250,       -0.0457763672,       -0.4272460938,       -0.7781982422
1488506709.5121788979,1488506709.5144670010,        0.5952148438,        0.1113281250,       -0.1738281250,       -0.0457763672,       -0.4272460938,       -0.7781982422
1488506709.5147418976,1488506709.5170469284,        0.5952148438,        0.1113281250,       -0.1738281250,        0.0915527344,       -0.3051757812,       -0.5950927734
1488506709.5173230171,1488506709.5196158886,        0.6059570312,        0.1147460938,       -0.1870117188,        0.0915527344,       -0.3051757812,       -0.5950927734
1488506709.5198910236,1488506709.5222249031,        0.6059570312,        0.1147460938,       -0.1870117188,       -0.1525878906,       -0.4119873047,       -0.1525878906
1488506709.5225069523,1488506709.5249240398,        0.6059570312,        0.1147460938,       -0.1870117188,       -0.1525878906,       -0.4119873047,       -0.1525878906
1488506709.5252070427,1488506709.5276250839,        0.6059570312,        0.1147460938,       -0.1870117188,       -0.6103515625,       -0.2899169922,       -0.2593994141
1488506709.5279059410,1488506709.5303270817,        0.6030273438,        0.1049804688,       -0.1738281250,       -0.6103515625,       -0.2899169922,       -0.2593994141
1488506709.5306100845,1488506709.5330319405,        0.6030273438,        0.1049804688,       -0.1738281250,       -0.6103515625,       -0.3204345703,       -0.3204345703
1488506709.5333149433,1488506709.5357279778,        0.6030273438,        0.1049804688,       -0.1738281250,       -0.8544921875,       -0.3204345703,       -0.3204345703
1488506709.5360090733,1488506709.5384340286,        0.6030273438,        0.1049804688,       -0.1738281250,       -0.8544921875,       -0.6103515625,       -0.5798339844
1488506709.5387170315,1488506709.5411319733,        0.6005859375,        0.1025390625,       -0.1708984375,       -0.1983642578,       -0.6103515625,       -0.5798339844
1488506709.5414140224,1488506709.5437180996,        0.6005859375,        0.1025390625,       -0.1708984375,        3.7078857422,       -0.8544921875,       -0.5645751953
1488506709.5439920425,1488506709.5462880135,        0.6005859375,        0.1025390625,       -0.1708984375,        0.0152587891,       -0.8544921875,       -0.5645751953
1488506709.5465629101,1488506709.5488600731,        0.6005859375,        0.1025390625,       -0.1708984375,        0.0152587891,       -0.8544921875,       -0.2899169922
1488506709.5491349697,1488506709.5514299870,        0.5883789062,        0.1054687500,       -0.1635742188,       -0.1068115234,       -0.6256103516,       -0.2899169922
1488506709.5517439842,1488506709.5540370941,        0.5883789062,        0.1054687500,       -0.1635742188,       -0.1068115234,       -0.6256103516,       -0.4272460938
1488506709.5543129444,1488506709.5566000938,        0.5883789062,        0.1054687500,       -0.1635742188,       -0.1678466797,       -0.6408691406,       -0.4272460938
1488506709.5568759441,1488506709.5591759682,        0.5883789062,        0.1054687500,       -0.1816406250,       -0.1678466797,       -0.6408691406,       -0.4272460938
1488506709.5594511032,1488506709.5618679523,        0.5947265625,        0.1069335938,       -0.1816406250,       -0.0610351562,       -0.7019042969,       -0.4119873047
1488506709.5622520447,1488506709.5645530224,        0.5947265625,        0.1069335938,       -0.1816406250,       -0.0610351562,       -0.7019042969,       -0.4119873047
1488506709.5648279190,1488506709.5671188831,        0.5947265625,        0.1069335938,       -0.1816406250,       -0.1068115234,       -0.6713867188,       -0.5950927734
1488506709.5673940182,1488506709.5696890354,        0.5947265625,        0.1079101562,       -0.1796875000,       -0.1068115234,       -0.6713867188,       -0.5950927734
1488506709.5699629784,1488506709.5724480152,        0.5874023438,        0.1079101562,       -0.1796875000,        0.0152587891,       -0.7476806641,       -0.8239746094
1488506709.5727310181,1488506709.5751450062,        0.5874023438,        0.1079101562,       -0.1796875000,        0.0152587891,       -0.7476806641,       -0.8239746094
1488506709.5754289627,1488506709.5778429508,        0.5874023438,        0.1079101562,       -0.1796875000,        0.5187988281,       -1.0681152344,       -1.1596679688
1488506709.5781250000,1488506709.5805399418,        0.6025390625,        0.1015625000,       -0.1806640625,        0.5187988281,       -1.0681152344,       -1.1596679688
1488506709.5808210373,1488506709.5832378864,        0.6025390625,        0.1015625000,       -0.1806640625,        0.5035400391,       -0.9613037109,       -0.9918212891
1488506709.5835199356,1488506709.5859379768,        0.6025390625,        0.1015625000,       -0.1806640625,        0.5035400391,       -0.9613037109,       -0.9918212891
1488506709.5862190723,1488506709.5886399746,        0.6025390625,        0.1015625000,       -0.1806640625,        0.1831054688,       -0.7476806641,       -0.9307861328
1488506709.5889239311,1488506709.5913319588,        0.6020507812,        0.1103515625,       -0.1894531250,        0.1831054688,       -0.7476806641,       -0.9307861328
1488506709.5916140079,1488506709.5940399170,        0.6020507812,        0.1103515625,       -0.1894531250,       -0.2899169922,       -0.3051757812,       -0.6408691406
1488506709.5943229198,1488506709.5968070030,        0.6020507812,        0.1103515625,       -0.1894531250,       -0.2899169922,       -0.3051757812,       -0.6408691406
1488506709.5970840454,1488506709.5993740559,        0.6020507812,        0.1103515625,       -0.1894531250,       -0.9002685547,        0.1678466797,       -0.5035400391
1488506709.5996479988,1488506709.6020328999,        0.6054687500,        0.1010742188,       -0.1806640625,       -0.9002685547,        0.1678466797,       -0.5035400391
1488506709.6023159027,1488506709.6047000885,        0.6054687500,        0.1010742188,       -0.1806640625,       -0.1983642578,       -0.1678466797,       -0.7019042969
1488506709.6049809456,1488506709.6073670387,        0.6054687500,        0.1010742188,       -0.1806640625,       -0.1983642578,       -0.1678466797,       -0.7019042969
1488506709.6082119942,1488506709.6105020046,        0.6103515625,        0.0996093750,       -0.1782226562,       -0.0915527344,       -0.4882812500,       -0.3051757812
1488506709.6107780933,1488506709.6131010056,        0.6103515625,        0.0996093750,       -0.1782226562,       -0.0915527344,       -0.4882812500,       -0.3051757812
1488506709.6133749485,1488506709.6156659126,        0.6103515625,        0.0996093750,       -0.1782226562,       -0.0762939453,       -0.4119873047,       -0.5645751953
1488506709.6159410477,1488506709.6182270050,        0.6103515625,        0.0996093750,       -0.1782226562,       -0.0762939453,       -0.4119873047,       -0.5645751953
1488506709.6185019016,1488506709.6207919121,        0.5893554688,        0.1162109375,       -0.1665039062,       -0.1983642578,       -0.8239746094,       -0.3967285156
1488506709.6210660934,1488506709.6234118938,        0.5893554688,        0.1162109375,       -0.1665039062,       -0.1983642578,       -0.8239746094,       -0.3967285156
1488506709.6236870289,1488506709.6259748936,        0.5893554688,        0.1162109375,       -0.1665039062,       -0.7781982422,       -0.6561279297,       -0.3509521484
1488506709.6263570786,1488506709.6286470890,        0.5893554688,        0.1162109375,       -0.1665039062,       -0.7781982422,       -0.6561279297,       -0.3509521484
1488506709.6289238930,1488506709.6312088966,        0.5996093750,        0.1083984375,       -0.1772460938,       -0.9155273438,       -0.2746582031,       -0.6561279297
1488506709.6314849854,1488506709.6338179111,        0.5996093750,        0.1083984375,       -0.1772460938,       -0.9155273438,       -0.2746582031,       -0.6561279297
1488506709.6340930462,1488506709.6363809109,        0.5996093750,        0.1083984375,       -0.1772460938,       -0.9155273438,       -0.3814697266,       -0.4119873047
1488506709.6366560459,1488506709.6389439106,        0.5996093750,        0.1083984375,       -0.1772460938,       -0.8239746094,       -0.3814697266,       -0.4119873047
1488506709.6392168999,1488506709.6414990425,        0.5942382812,        0.1103515625,       -0.1674804688,       -0.8239746094,       -0.3814697266,       -0.3204345703
1488506709.6417710781,1488506709.6440649033,        0.5942382812,        0.1103515625,       -0.1674804688,       -0.4119873047,       -0.6561279297,       -0.3204345703
1488506709.6443409920,1488506709.6466300488,        0.5942382812,        0.1103515625,       -0.1674804688,       -0.4119873047,       -0.6561279297,       -0.7324218750
1488506709.6469058990,1488506709.6491909027,        0.5942382812,        0.1103515625,       -0.1674804688,       -0.2288818359,       -0.8087158203,       -0.7324218750
1488506709.6494669914,1488506709.6518580914,        0.5854492188,        0.1113281250,       -0.1777343750,       -0.2288818359,       -0.8087158203,       -0.7324218750
1488506709.6521339417,1488506709.6544311047,        0.5854492188,        0.1113281250,       -0.1777343750,       -0.1678466797,       -0.8392333984,       -0.7019042969
1488506709.6547050476,1488506709.6570041180,        0.5854492188,        0.1113281250,       -0.1777343750,       -0.1678466797,       -0.8392333984,       -0.7019042969
1488506709.6572771072,1488506709.6595699787,        0.5854492188,        0.1113281250,       -0.1777343750,       -0.4730224609,       -0.4119873047,       -0.3509521484
1488506709.6598439217,1488506709.6622440815,        0.5981445312,        0.1132812500,       -0.1733398438,       -0.4730224609,       -0.4119873047,       -0.3509521484
1488506709.6625199318,1488506709.6648159027,        0.5981445312,        0.1132812500,       -0.1733398438,       -0.7476806641,       -0.2288818359,       -0.3509521484
1488506709.6650919914,1488506709.6673839092,        0.5981445312,        0.1132812500,       -0.1733398438,       -0.7476806641,       -0.2288818359,       -0.3509521484
1488506709.6676580906,1488506709.6699519157,        0.5981445312,        0.1132812500,       -0.1733398438,       -0.9155273438,       -0.1373291016,       -0.1525878906
1488506709.6702260971,1488506709.6725759506,        0.5927734375,        0.1030273438,       -0.1733398438,       -0.9155273438,       -0.1373291016,       -0.1525878906
1488506709.6728589535,1488506709.6752719879,        0.5927734375,        0.1030273438,       -0.1733398438,       -0.7781982422,       -0.3509521484,       -0.4272460938
1488506709.6755518913,1488506709.6779689789,        0.5927734375,        0.1030273438,       -0.1733398438,       -0.7781982422,       -0.3509521484,       -0.4272460938
1488506709.6782500744,1488506709.6806650162,        0.5927734375,        0.1030273438,       -0.1835937500,       -0.5493164062,       -0.0610351562,       -0.6561279297
1488506709.6809480190,1488506709.6833748817,        0.6000976562,        0.1079101562,       -0.1835937500,       -0.5493164062,       -0.0610351562,       -0.6561279297
1488506709.6836578846,1488506709.6860730648,        0.6000976562,        0.1079101562,       -0.1835937500,       -0.6103515625,       -0.0457763672,       -0.6866455078
1488506709.6863560677,1488506709.6887700558,        0.6000976562,        0.1079101562,       -0.1835937500,       -0.6103515625,       -0.0457763672,       -0.6866455078
1488506709.6891610622,1488506709.6915769577,        0.6010742188,        0.0952148438,       -0.1840820312,       -0.1831054688,       -0.6866455078,       -1.0833740234
1488506709.6919031143,1488506709.6943221092,        0.6010742188,        0.0952148438,       -0.1840820312,       -0.1831054688,       -0.6866455078,       -1.0833740234
1488506709.6946051121,1488506709.6970229149,        0.6010742188,        0.0952148438,       -0.1840820312,        0.3509521484,       -0.4577636719,       -1.1444091797
1488506709.6973049641,1488506709.6997179985,        0.6010742188,        0.0952148438,       -0.1840820312,        0.3509521484,       -0.4577636719,       -1.1444091797
1488506709.6999990940,1488506709.7024180889,        0.6088867188,        0.0976562500,       -0.1840820312,        0.8392333984,       -0.1678466797,       -1.2512207031
1488506709.7026989460,1488506709.7051041126,        0.6088867188,        0.0976562500,       -0.1840820312,        0.8392333984,       -0.1678466797,       -1.2512207031
1488506709.7053849697,1488506709.7078189850,        0.6088867188,        0.0976562500,       -0.1840820312,        0.5645751953,       -0.5950927734,       -1.4953613281
1488506709.7081019878,1488506709.7105190754,        0.6088867188,        0.0976562500,       -0.1840820312,        0.5645751953,       -0.5950927734,       -1.4953613281
1488506709.7108030319,1488506709.7131519318,        0.6005859375,        0.1147460938,       -0.1806640625,        0.5035400391,       -0.9155273438,       -1.1138916016
1488506709.7134289742,1488506709.7157180309,        0.6005859375,        0.1147460938,       -0.1806640625,        0.5035400391,       -0.9155273438,       -1.1138916016
1488506709.7159929276,1488506709.7186360359,        0.6005859375,        0.1147460938,       -0.1806640625,        0.0305175781,       -0.5645751953,       -0.7629394531
1488506709.7189130783,1488506709.7212150097,        0.6005859375,        0.1079101562,       -0.1665039062,        0.0305175781,       -0.5645751953,       -0.7629394531
1488506709.7214910984,1488506709.7242860794,        0.5986328125,        0.1079101562,       -0.1665039062,        0.1983642578,       -0.4119873047,       -0.5340576172
1488506709.7245700359,1488506709.7269489765,        0.5986328125,        0.1079101562,       -0.1665039062,        0.1983642578,       -0.4119873047,       -0.5340576172
1488506709.7272279263,1488506709.7297019958,        0.5986328125,        0.1079101562,       -0.1665039062,       -0.4577636719,       -0.3509521484,       -0.5035400391
1488506709.7299840450,1488506709.7323870659,        0.5957031250,        0.1074218750,       -0.1635742188,       -0.4577636719,       -0.3509521484,       -0.5035400391
1488506709.7326669693,1488506709.7350409031,        0.5957031250,        0.1074218750,       -0.1635742188,       -0.7781982422,       -0.4577636719,       -0.5493164062
1488506709.7353188992,1488506709.7377009392,        0.5957031250,        0.1074218750,       -0.1635742188,       -0.7781982422,       -0.4577636719,       -0.5493164062
1488506709.7379798889,1488506709.7405269146,        0.5957031250,        0.1074218750,       -0.1635742188,       -0.5493164062,       -0.3356933594,       -0.6408691406
1488506709.7408111095,1488506709.7432041168,        0.6020507812,        0.1147460938,       -0.1767578125,       -0.5493164062,       -0.3356933594,       -0.6408691406
1488506709.7434840202,1488506709.7458600998,        0.6020507812,        0.1147460938,       -0.1767578125,       -0.4882812500,       -0.3814697266,       -0.4272460938
1488506709.7461390495,1488506709.7485470772,        0.6020507812,        0.1147460938,       -0.1767578125,       -0.4882812500,       -0.3814697266,       -0.4272460938
1488506709.7488300800,1488506709.7512450218,        0.6020507812,        0.1147460938,       -0.1821289062,        0.0762939453,       -0.4730224609,       -0.8239746094
1488506709.7515280247,1488506709.7538459301,        0.5996093750,        0.1118164062,       -0.1821289062,        0.0762939453,       -0.4730224609,       -0.8239746094
1488506709.7542309761,1488506709.7565219402,        0.5996093750,        0.1118164062,       -0.1821289062,       -0.2288818359,       -0.6561279297,       -0.4882812500
1488506709.7567989826,1488506709.7590920925,        0.5996093750,        0.1118164062,       -0.1821289062,       -0.2288818359,       -0.6561279297,       -0.4882812500
1488506709.7593669891,1488506709.7617249489,        0.5996093750,        0.1054687500,       -0.1699218750,       -0.0915527344,       -0.5340576172,       -0.5950927734
1488506709.7620000839,1488506709.7642920017,        0.5996093750,        0.1054687500,       -0.1699218750,       -0.0915527344,       -0.5340576172,       -0.5950927734
1488506709.7645668983,1488506709.7668559551,        0.5996093750,        0.1054687500,       -0.1699218750,       -0.0915527344,       -0.4730224609,       -0.7629394531
1488506709.7671298981,1488506709.7694249153,        0.5996093750,        0.1054687500,       -0.1699218750,        0.1678466797,       -0.4730224609,       -0.7629394531
1488506709.7697000504,1488506709.7721168995,        0.5996093750,        0.1088867188,       -0.1850585938,        0.1678466797,       -0.4730224609,       -0.8544921875
1488506709.7723939419,1488506709.7746880054,        0.5917968750,        0.1088867188,       -0.1850585938,        0.0762939453,       -0.3509521484,       -0.8544921875
1488506709.7749640942,1488506709.7772560120,        0.5917968750,        0.1088867188,       -0.1850585938,        0.0762939453,       -0.3509521484,       -1.2817382812
1488506709.7775321007,1488506709.7798171043,        0.5917968750,        0.1088867188,       -0.1850585938,        0.2899169922,       -0.1831054688,       -1.2817382812
1488506709.7800929546,1488506709.7824409008,        0.5971679688,        0.1035156250,       -0.1767578125,        0.2899169922,       -0.1831054688,       -1.2817382812
1488506709.7827229500,1488506709.7851219177,        0.5971679688,        0.1035156250,       -0.1767578125,       -0.0305175781,       -0.3204345703,       -1.4648437500
1488506709.7854049206,1488506709.7878088951,        0.5971679688,        0.1035156250,       -0.1767578125,       -0.0305175781,       -0.3204345703,       -1.4648437500
1488506709.7880890369,1488506709.7904939651,        0.5971679688,        0.1035156250,       -0.1767578125,        0.0610351562,       -0.4730224609,       -1.3732910156
1488506709.7907750607,1488506709.7931880951,        0.5981445312,        0.1093750000,       -0.1811523438,        0.0610351562,       -0.4730224609,       -1.3732910156
1488506709.7934710979,1488506709.7958741188,        0.5981445312,        0.1093750000,       -0.1811523438,        0.0305175781,       -0.4882812500,       -1.2207031250
1488506709.7961549759,1488506709.7985589504,        0.5981445312,        0.1093750000,       -0.1811523438,        0.0305175781,       -0.4882812500,       -1.2207031250
1488506709.7988400459,1488506709.8012430668,        0.5981445312,        0.1093750000,       -0.1811523438,       -0.2288818359,       -0.1983642578,       -1.0986328125
1488506709.8015260696,1488506709.8039119244,        0.6054687500,        0.1044921875,       -0.1772460938,       -0.2288818359,       -0.1983642578,       -1.0986328125
1488506709.8041911125,1488506709.8065679073,        0.6054687500,        0.1044921875,       -0.1772460938,        0.2288818359,       -0.5493164062,       -1.5106201172
1488506709.8068480492,1488506709.8092501163,        0.6054687500,        0.1044921875,       -0.1772460938,        0.2288818359,       -0.5493164062,       -1.5106201172
1488506709.8095340729,1488506709.8119559288,        0.6054687500,        0.1044921875,       -0.1791992188,        0.4577636719,       -0.1220703125,       -1.7852783203
1488506709.8122310638,1488506709.8145220280,        0.6010742188,        0.1083984375,       -0.1791992188,        0.4577636719,       -0.1220703125,       -1.7852783203
1488506709.8147959709,1488506709.8170909882,        0.6010742188,        0.1083984375,       -0.1791992188,        0.3662109375,       -0.0610351562,       -1.7242431641
1488506709.8174729347,1488506709.8197689056,        0.6010742188,        0.1083984375,       -0.1791992188,        0.3662109375,       -0.0610351562,       -1.7242431641
1488506709.8200449944,1488506709.8224980831,        0.6010742188,        0.1162109375,       -0.1684570312,        0.0610351562,       -0.3662109375,       -1.8310546875
1488506709.8227748871,1488506709.8250639439,        0.5976562500,        0.1162109375,       -0.1684570312,        0.0610351562,       -0.3662109375,       -1.8310546875
1488506709.8253390789,1488506709.8276290894,        0.5976562500,        0.1162109375,       -0.1684570312,       -0.0915527344,       -0.2899169922,       -1.5106201172
1488506709.8279030323,1488506709.8301959038,        0.5976562500,        0.1162109375,       -0.1684570312,       -0.0915527344,       -0.2899169922,       -1.5106201172
1488506709.8304719925,1488506709.8329350948,        0.5976562500,        0.1123046875,       -0.1738281250,       -0.2593994141,       -0.1068115234,       -1.3275146484
1488506709.8332159519,1488506709.8356020451,        0.6020507812,        0.1123046875,       -0.1738281250,       -0.2593994141,       -0.1068115234,       -1.3275146484
1488506709.8358819485,1488506709.8384220600,        0.6020507812,        0.1123046875,       -0.1738281250,       -0.0915527344,        0.0152587891,       -1.5258789062
1488506709.8387060165,1488506709.8411190510,        0.6020507812,        0.1123046875,       -0.1738281250,       -0.0915527344,        0.0152587891,       -1.5258789062
1488506709.8418500423,1488506709.8442521095,        0.5957031250,        0.1191406250,       -0.1791992188,       -0.3662109375,       -0.3204345703,       -1.5411376953
1488506709.8445339203,1488506709.8469419479,        0.5957031250,        0.1191406250,       -0.1791992188,       -0.3662109375,       -0.3204345703,       -1.5411376953
1488506709.8472230434,1488506709.8496220112,        0.5957031250,        0.1191406250,       -0.1791992188,       -0.3051757812,       -0.6408691406,       -1.2817382812
1488506709.8499031067,1488506709.8523070812,        0.5957031250,        0.1191406250,       -0.1762695312,       -0.3051757812,       -0.6408691406,       -1.2817382812
1488506709.8525879383,1488506709.8549680710,        0.5952148438,        0.1098632812,       -0.1762695312,       -0.1831054688,       -0.4577636719,       -1.1596679688
1488506709.8552470207,1488506709.8576309681,        0.5952148438,        0.1098632812,       -0.1762695312,       -0.1831054688,       -0.4577636719,       -1.1596679688
1488506709.8579111099,1488506709.8602890968,        0.5952148438,        0.1098632812,       -0.1762695312,       -0.5035400391,       -0.0915527344,       -1.3580322266
1488506709.8605690002,1488506709.8629810810,        0.5952148438,        0.1054687500,       -0.1791992188,       -0.5035400391,       -0.0915527344,       -1.3580322266
1488506709.8632640839,1488506709.8656830788,        0.5942382812,        0.1054687500,       -0.1791992188,       -0.8544921875,        0.0610351562,       -1.4648437500
1488506709.8659660816,1488506709.8683819771,        0.5942382812,        0.1054687500,       -0.1791992188,       -0.8544921875,        0.0610351562,       -1.4648437500
1488506709.8686659336,1488506709.8710839748,        0.5942382812,        0.1054687500,       -0.1791992188,       -0.2746582031,        0.1678466797,       -2.0446777344
1488506709.8713669777,1488506709.8736929893,        0.6054687500,        0.1040039062,       -0.1889648438,       -0.2746582031,        0.1678466797,       -2.0446777344
1488506709.8739678860,1488506709.8762590885,        0.6054687500,        0.1040039062,       -0.1889648438,        0.1983642578,       -0.2593994141,       -2.5024414062
1488506709.8765339851,1488506709.8788239956,        0.6054687500,        0.1040039062,       -0.1889648438,        0.1983642578,       -0.2593994141,       -2.5024414062
1488506709.8791000843,1488506709.8813879490,        0.6054687500,        0.1040039062,       -0.1889648438,       -3.7078857422,        0.0000000000,       -2.4566650391
1488506709.8818891048,1488506709.8841969967,        0.6054687500,        0.0927734375,       -0.1801757812,       -0.0610351562,        0.0000000000,       -2.4566650391
1488506709.8844730854,1488506709.8867650032,        0.6054687500,        0.0927734375,       -0.1801757812,        3.8452148438,       -0.1220703125,       -2.6702880859
1488506709.8870398998,1488506709.8893311024,        0.6054687500,        0.0927734375,       -0.1801757812,        0.1220703125,       -0.1220703125,       -2.6702880859
1488506709.8896059990,1488506709.8920400143,        0.6054687500,        0.0927734375,       -0.1801757812,        0.1220703125,       -0.1220703125,       -3.2806396484
1488506709.8923180103,1488506709.8946061134,        0.6074218750,        0.1064453125,       -0.1850585938,        0.8850097656,       -0.3967285156,       -3.2806396484
1488506709.8948810101,1488506709.8971750736,        0.6074218750,        0.1064453125,       -0.1850585938,        0.8850097656,       -0.3967285156,       -3.2348632812
1488506709.8974499702,1488506709.8997430801,        0.6074218750,        0.1064453125,       -0.1850585938,        0.7629394531,       -0.1220703125,       -3.2348632812
1488506709.9000170231,1488506709.9024360180,        0.6074218750,        0.1064453125,       -0.1850585938,        0.7629394531,       -0.1220703125,       -3.1127929688
1488506709.9027149677,1488506709.9050970078,        0.5971679688,        0.1059570312,       -0.1689453125,        0.4730224609,       -0.1525878906,       -3.1127929688
1488506709.9053769112,1488506709.9077560902,        0.5971679688,        0.1059570312,       -0.1689453125,        0.4730224609,       -0.1525878906,       -3.1127929688
1488506709.9080359936,1488506709.9104549885,        0.5971679688,        0.1059570312,       -0.1689453125,        0.7171630859,       -0.1220703125,       -2.6702880859
1488506709.9107389450,1488506709.9130940437,        0.5971679688,        0.1059570312,       -0.1733398438,        0.7171630859,       -0.1220703125,       -2.6702880859
1488506709.9133720398,1488506709.9156639576,        0.6025390625,        0.1166992188,       -0.1733398438,        0.5493164062,        0.0000000000,       -2.5634765625
1488506709.9159379005,1488506709.9182300568,        0.6025390625,        0.1166992188,       -0.1733398438,        0.5493164062,        0.0000000000,       -2.5634765625
1488506709.9185030460,1488506709.9207959175,        0.6025390625,        0.1166992188,       -0.1733398438,       -0.1525878906,       -0.1220703125,       -2.8991699219
1488506709.9210710526,1488506709.9235088825,        0.6025390625,        0.1176757812,       -0.1708984375,       -0.1525878906,       -0.1220703125,       -2.8991699219
1488506709.9237909317,1488506709.9262070656,        0.5981445312,        0.1176757812,       -0.1708984375,       -0.0610351562,       -0.2288818359,       -2.3345947266
1488506709.9264869690,1488506709.9288969040,        0.5981445312,        0.1176757812,       -0.1708984375,       -0.0610351562,       -0.2288818359,       -2.3345947266
1488506709.9291799068,1488506709.9316000938,        0.5981445312,        0.1176757812,       -0.1708984375,       -0.4882812500,       -0.2288818359,       -2.1820068359
1488506709.9319329262,1488506709.9343481064,        0.5903320312,        0.1210937500,       -0.1723632812,       -0.4882812500,       -0.2288818359,       -2.1820068359
1488506709.9346299171,1488506709.9370400906,        0.5903320312,        0.1210937500,       -0.1723632812,       -0.7324218750,        0.0915527344,       -2.0141601562
1488506709.9373230934,1488506709.9397380352,        0.5903320312,        0.1210937500,       -0.1723632812,       -0.7324218750,        0.0915527344,       -2.0141601562
1488506709.9400200844,1488506709.9424419403,        0.5903320312,        0.1210937500,       -0.1723632812,       -0.7019042969,        0.0152587891,       -2.5787353516
1488506709.9427239895,1488506709.9451439381,        0.6035156250,        0.1069335938,       -0.1689453125,       -0.7019042969,        0.0152587891,       -2.5787353516
1488506709.9455349445,1488506709.9479560852,        0.6035156250,        0.1069335938,       -0.1689453125,       -0.7019042969,       -0.1220703125,       -2.4108886719
1488506709.9482378960,1488506709.9506568909,        0.6035156250,        0.1069335938,       -0.1689453125,       -0.7019042969,       -0.1220703125,       -2.4108886719
1488506709.9509389400,1488506709.9532880783,        0.6035156250,        0.1069335938,       -0.1684570312,       -0.7476806641,       -0.0610351562,       -2.2277832031
1488506709.9535639286,1488506709.9558598995,        0.5903320312,        0.1181640625,       -0.1684570312,       -0.7476806641,       -0.0610351562,       -2.2277832031
1488506709.9561359882,1488506709.9586129189,        0.5903320312,        0.1181640625,       -0.1684570312,       -0.4882812500,        0.1068115234,       -2.4261474609
1488506709.9588890076,1488506709.9611799717,        0.5903320312,        0.1181640625,       -0.1684570312,       -0.4882812500,        0.1068115234,       -2.4261474609
1488506709.9614560604,1488506709.9643290043,        0.5903320312,        0.1083984375,       -0.1665039062,       -0.2136230469,       -0.0305175781,       -2.2735595703
1488506709.9646129608,1488506709.9670259953,        0.6010742188,        0.1083984375,       -0.1665039062,       -0.2136230469,       -0.0305175781,       -2.2735595703
1488506709.9673080444,1488506709.9697229862,        0.6010742188,        0.1083984375,       -0.1665039062,       -0.4730224609,       -0.0152587891,       -2.9144287109
1488506709.9700059891,1488506709.9724299908,        0.6010742188,        0.1083984375,       -0.1665039062,       -0.4730224609,       -0.0152587891,       -2.9144287109
1488506709.9727120399,1488506709.9751319885,        0.5917968750,        0.1088867188,       -0.1748046875,       -0.6408691406,        0.3051757812,       -3.5705566406
1488506709.9754140377,1488506709.9778289795,        0.5917968750,        0.1088867188,       -0.1748046875,       -0.6408691406,        0.3051757812,       -3.5705566406
1488506709.9781119823,1488506709.9805240631,        0.5917968750,        0.1088867188,       -0.1748046875,       -0.1220703125,       -0.0610351562,       -3.6010742188
1488506709.9808061123,1488506709.9832289219,        0.5917968750,        0.1088867188,       -0.1748046875,       -0.1220703125,       -0.0610351562,       -3.6010742188
1488506709.9835140705,1488506709.9859309196,        0.5957031250,        0.1123046875,       -0.1899414062,       -0.0305175781,       -0.1525878906,       -3.7078857422
1488506709.9862120152,1488506709.9886319637,        0.5957031250,        0.1123046875,       -0.1899414062,       -0.0305175781,       -0.1525878906,       -3.7078857422
1488506709.9889140129,1488506709.9913320541,        0.5957031250,        0.1123046875,       -0.1899414062,       -0.1220703125,       -0.1068115234,       -4.1961669922
1488506709.9916119576,1488506709.9939041138,        0.5957031250,        0.1123046875,       -0.1777343750,       -0.1220703125,       -0.1068115234,       -4.1961669922
1488506709.9941821098,1488506709.9964759350,        0.5898437500,        0.1147460938,       -0.1777343750,       -0.2441406250,        0.2593994141,       -4.5471191406
1488506709.9967520237,1488506709.9990439415,        0.5898437500,        0.1147460938,       -0.1777343750,       -0.2441406250,        0.2593994141,       -4.5471191406
1488506709.9993178844,1488506710.0016150475,        0.5898437500,        0.1147460938,       -0.1777343750,       -0.4119873047,        0.6866455078,       -4.4097900391
1488506710.0019500256,1488506710.0042409897,        0.5898437500,        0.1035156250,       -0.1704101562,       -0.4119873047,        0.6866455078,       -4.4097900391
1488506710.0045158863,1488506710.0068109035,        0.5961914062,        0.1035156250,       -0.1704101562,       -0.1983642578,        0.6103515625,       -4.7302246094
1488506710.0070838928,1488506710.0094110966,        0.5961914062,        0.1035156250,       -0.1704101562,       -0.1983642578,        0.6103515625,       -4.7302246094
1488506710.0097899437,1488506710.0122408867,        0.5961914062,        0.1035156250,       -0.1704101562,       -0.4119873047,        0.9002685547,       -5.4779052734
1488506710.0125169754,1488506710.0148060322,        0.5996093750,        0.1171875000,       -0.1865234375,       -0.4119873047,        0.9002685547,       -5.4779052734
1488506710.0150809288,1488506710.0173759460,        0.5996093750,        0.1171875000,       -0.1865234375,       -0.4119873047,        0.9155273438,       -5.4931640625
1488506710.0176498890,1488506710.0199410915,        0.5996093750,        0.1171875000,       -0.1865234375,       -0.9002685547,        0.9155273438,       -5.4931640625
1488506710.0202150345,1488506710.0226469040,        0.5996093750,        0.1171875000,       -0.1865234375,       -0.9002685547,        0.9155273438,       -5.4473876953
1488506710.0229330063,1488506710.0253450871,        0.5986328125,        0.1152343750,       -0.1601562500,       -0.9460449219,        0.9613037109,       -5.4473876953
1488506710.0256268978,1488506710.0280420780,        0.5986328125,        0.1152343750,       -0.1601562500,       -0.9460449219,        0.9613037109,       -6.4849853516
1488506710.0283238888,1488506710.0307390690,        0.5986328125,        0.1152343750,       -0.1601562500,       -0.7629394531,        1.2512207031,       -6.4849853516
1488506710.0310199261,1488506710.0333518982,        0.5986328125,        0.1152343750,       -0.1601562500,       -0.7629394531,        1.2512207031,       -7.1258544922
1488506710.0336260796,1488506710.0359179974,        0.6054687500,        0.1132812500,       -0.1796875000,       -0.9765625000,        1.6326904297,       -7.1258544922
1488506710.0361909866,1488506710.0384850502,        0.6054687500,        0.1132812500,       -0.1796875000,       -0.9765625000,        1.6326904297,       -7.0495605469
1488506710.0387599468,1488506710.0410480499,        0.6054687500,        0.1132812500,       -0.1796875000,       -1.1901855469,        1.5106201172,       -7.0495605469
1488506710.0413219929,1488506710.0437529087,        0.6054687500,        0.1132812500,       -0.1796875000,       -1.1901855469,        1.5106201172,       -7.0495605469
1488506710.0440359116,1488506710.0464470387,        0.5961914062,        0.1079101562,       -0.1660156250,       -1.2817382812,        1.6174316406,       -7.2937011719
1488506710.0467300415,1488506710.0491459370,        0.5961914062,        0.1079101562,       -0.1660156250,       -1.2817382812,        1.6174316406,       -7.2937011719
1488506710.0494270325,1488506710.0518419743,        0.5961914062,        0.1079101562,       -0.1660156250,       -1.3580322266,        1.7547607422,       -7.9345703125
1488506710.0521240234,1488506710.0545370579,        0.5961914062,        0.1079101562,       -0.1762695312,       -1.3580322266,        1.7547607422,       -7.9345703125
1488506710.0548179150,1488506710.0572330952,        0.5922851562,        0.1093750000,       -0.1762695312,       -1.6479492188,        2.3498535156,       -9.6588134766
1488506710.0575160980,1488506710.0599260330,        0.5922851562,        0.1093750000,       -0.1762695312,       -1.6479492188,        2.3498535156,       -9.6588134766
1488506710.0602080822,1488506710.0626320839,        0.5922851562,        0.1093750000,       -0.1762695312,       -2.2277832031,        2.5177001953,      -11.1389160156
1488506710.0629189014,1488506710.0653328896,        0.5922851562,        0.1157226562,       -0.1728515625,       -2.2277832031,        2.5177001953,      -11.1389160156
1488506710.0656170845,1488506710.0680348873,        0.5957031250,        0.1157226562,       -0.1728515625,       -2.4566650391,        2.6092529297,      -12.4053955078
1488506710.0683209896,1488506710.0707359314,        0.5957031250,        0.1157226562,       -0.1728515625,       -2.4566650391,        2.6092529297,      -12.4053955078
1488506710.0710198879,1488506710.0734539032,        0.5957031250,        0.1157226562,       -0.1728515625,       -2.8228759766,        3.2348632812,      -13.7786865234
1488506710.0738620758,1488506710.0762820244,        0.5869140625,        0.1054687500,       -0.1728515625,       -2.8228759766,        3.2348632812,      -13.7786865234
1488506710.0765678883,1488506710.0790190697,        0.5869140625,        0.1054687500,       -0.1728515625,       -3.3111572266,        3.4790039062,      -15.7012939453
1488506710.0793070793,1488506710.0817248821,        0.5869140625,        0.1054687500,       -0.1728515625,       -3.3111572266,        3.4790039062,      -15.7012939453
1488506710.0823929310,1488506710.0846860409,        0.5869140625,        0.1054687500,       -0.1860351562,       -3.6010742188,        3.7078857422,      -17.3645019531
1488506710.0849668980,1488506710.0872581005,        0.5869140625,        0.0898437500,       -0.1860351562,       -3.6010742188,        3.7078857422,      -17.3645019531
1488506710.0875399113,1488506710.0898330212,        0.5869140625,        0.0898437500,       -0.1860351562,       -3.7231445312,        3.9978027344,      -19.4396972656
1488506710.0901129246,1488506710.0924499035,        0.5869140625,        0.0898437500,       -0.1860351562,       -3.7231445312,        3.9978027344,      -19.4396972656
1488506710.0927360058,1488506710.0951590538,        0.5869140625,        0.0898437500,       -0.1982421875,       -3.6468505859,        4.1351318359,      -21.8505859375
1488506710.0954430103,1488506710.0978569984,        0.6049804688,        0.0478515625,       -0.1982421875,       -3.6468505859,        4.1351318359,      -21.8505859375
1488506710.0981419086,1488506710.1005580425,        0.6049804688,        0.0478515625,       -0.1982421875,       -2.8533935547,        4.7607421875,      -24.2156982422
1488506710.1008439064,1488506710.1033039093,        0.6049804688,        0.0478515625,       -0.1982421875,       -2.8533935547,        4.7607421875,      -24.2156982422
1488506710.1035909653,1488506710.1060039997,        0.6210937500,        0.0571289062,       -0.2031250000,       -2.1667480469,        5.2032470703,      -26.4129638672
1488506710.1062910557,1488506710.1087059975,        0.6210937500,        0.0571289062,       -0.2031250000,       -2.1667480469,        5.2032470703,      -26.4129638672
1488506710.1089909077,1488506710.1114139557,        0.6210937500,        0.0571289062,       -0.2031250000,       -1.8005371094,        5.1269531250,      -28.5186767578
1488506710.1117110252,1488506710.1140029430,        0.6210937500,        0.0571289062,       -0.2031250000,       -1.8005371094,        5.1269531250,      -28.5186767578
1488506710.1142809391,1488506710.1165750027,        0.6166992188,        0.1010742188,       -0.1855468750,       -2.6855468750,        5.0659179688,      -30.7464599609
1488506710.1168539524,1488506710.1191480160,        0.6166992188,        0.1010742188,       -0.1855468750,       -2.6855468750,        5.0659179688,      -30.7464599609
1488506710.1194260120,1488506710.1217501163,        0.6166992188,        0.1010742188,       -0.1855468750,       -3.2501220703,        4.5776367188,      -32.2418212891
1488506710.1220290661,1488506710.1243178844,        0.6166992188,        0.1010742188,       -0.1855468750,       -3.2501220703,        4.5776367188,      -32.2418212891
1488506710.1245961189,1488506710.1268920898,        0.6147460938,        0.0668945312,       -0.1938476562,       -3.2043457031,        4.4555664062,      -33.9355468750
1488506710.1271700859,1488506710.1294639111,        0.6147460938,        0.0668945312,       -0.1938476562,       -3.2043457031,        4.4555664062,      -33.9355468750
1488506710.1297419071,1488506710.1322090626,        0.6147460938,        0.0668945312,       -0.1938476562,       -2.7923583984,        5.0201416016,      -35.5377197266
1488506710.1324870586,1488506710.1347839832,        0.6147460938,        0.0668945312,       -0.1938476562,       -2.7923583984,        5.0201416016,      -35.5377197266
1488506710.1350619793,1488506710.1373560429,        0.6132812500,        0.0839843750,       -0.1665039062,       -2.3803710938,        4.9285888672,      -37.0941162109
1488506710.1377329826,1488506710.1400279999,        0.6132812500,        0.0839843750,       -0.1665039062,       -2.3803710938,        4.9285888672,      -37.0941162109
1488506710.1403079033,1488506710.1428248882,        0.6132812500,        0.0839843750,       -0.1665039062,       -2.3803710938,        4.5776367188,      -38.5894775391
1488506710.1431109905,1488506710.1455299854,        0.6132812500,        0.0839843750,       -0.1455078125,       -2.8686523438,        4.5776367188,      -38.5894775391
1488506710.1458170414,1488506710.1482338905,        0.6152343750,        0.1293945312,       -0.1455078125,       -4.1351318359,        4.1961669922,      -39.6881103516
1488506710.1485180855,1488506710.1509420872,        0.6152343750,        0.1293945312,       -0.1455078125,       -4.1351318359,        4.1961669922,      -39.6881103516
1488506710.1512279510,1488506710.1536509991,        0.6152343750,        0.1293945312,       -0.1455078125,       -4.8828125000,        3.9062500000,      -40.9393310547
1488506710.1539371014,1488506710.1563529968,        0.6108398438,        0.1303710938,       -0.1264648438,       -4.8828125000,        3.9062500000,      -40.9393310547
1488506710.1566390991,1488506710.1590569019,        0.6108398438,        0.1303710938,       -0.1264648438,       -4.8828125000,        3.7689208984,      -41.9921875000
1488506710.1593420506,1488506710.1617729664,        0.6108398438,        0.1303710938,       -0.1264648438,       -4.4250488281,        3.7689208984,      -41.9921875000
1488506710.1620600224,1488506710.1644771099,        0.6108398438,        0.1303710938,       -0.1264648438,       -0.5187988281,        4.0893554688,      -43.4722900391
1488506710.1647629738,1488506710.1671779156,        0.5869140625,        0.1601562500,       -0.1401367188,       -3.7078857422,        4.0893554688,      -43.4722900391
1488506710.1674630642,1488506710.1698780060,        0.5869140625,        0.1601562500,       -0.1401367188,       -3.7078857422,        4.3029785156,      -44.7998046875
1488506710.1701619625,1488506710.1725530624,        0.5869140625,        0.1601562500,       -0.1401367188,       -3.6468505859,        4.3029785156,      -44.7998046875
1488506710.1728310585,1488506710.1751201153,        0.5869140625,        0.1601562500,       -0.1401367188,       -3.6468505859,        3.6926269531,      -45.6848144531
1488506710.1753969193,1488506710.1776890755,        0.5639648438,        0.1586914062,       -0.1533203125,       -3.7994384766,        3.6926269531,      -45.6848144531
1488506710.1779689789,1488506710.1802599430,        0.5639648438,        0.1586914062,       -0.1533203125,       -3.7994384766,        3.6926269531,      -46.6613769531
1488506710.1805388927,1488506710.1829459667,        0.5639648438,        0.1586914062,       -0.1533203125,       -4.1351318359,        3.0212402344,      -46.6613769531
1488506710.1832311153,1488506710.1856369972,        0.5639648438,        0.1586914062,       -0.1533203125,       -4.1351318359,        3.0212402344,      -48.2788085938
1488506710.1859219074,1488506710.1883280277,        0.5551757812,        0.1333007812,       -0.1542968750,       -4.1046142578,        2.0294189453,      -48.2788085938
1488506710.1886129379,1488506710.1910150051,        0.5551757812,        0.1333007812,       -0.1542968750,       -4.1046142578,        2.0294189453,      -49.0570068359
1488506710.1912989616,1488506710.1937110424,        0.5551757812,        0.1333007812,       -0.1542968750,       -3.1433105469,        1.2207031250,      -49.0570068359
1488506710.1939949989,1488506710.1963980198,        0.5551757812,        0.0805664062,       -0.1430664062,       -3.1433105469,        1.2207031250,      -50.1861572266
1488506710.1966850758,1488506710.1992950439,        0.6088867188,        0.0805664062,       -0.1430664062,       -1.7700195312,        1.0070800781,      -50.1861572266
1488506710.1995830536,1488506710.2019989491,        0.6088867188,        0.0805664062,       -0.1430664062,       -1.7700195312,        1.0070800781,      -51.8188476562
1488506710.2026109695,1488506710.2050170898,        0.6088867188,        0.0805664062,       -0.1430664062,       -0.5187988281,        1.6479492188,      -51.8188476562
1488506710.2054200172,1488506710.2078258991,        0.6547851562,        0.1118164062,       -0.1401367188,       -0.5187988281,        0.9613037109,      -53.7109375000
1488506710.2081120014,1488506710.2105178833,        0.6547851562,        0.1118164062,       -0.1401367188,        2.6702880859,        0.9613037109,      -53.7109375000
1488506710.2108249664,1488506710.2135100365,        0.6547851562,        0.1118164062,       -0.1401367188,        6.5765380859,        0.2136230469,      -54.7943115234
1488506710.2137989998,1488506710.2162189484,        0.6547851562,        0.1118164062,       -0.1850585938,        5.4016113281,        0.2136230469,      -54.7943115234
1488506710.2165050507,1488506710.2189168930,        0.6391601562,        0.1455078125,       -0.1850585938,        5.4016113281,        0.3814697266,      -55.1147460938
1488506710.2192039490,1488506710.2216169834,        0.6391601562,        0.1455078125,       -0.1850585938,        6.5002441406,        0.3814697266,      -55.1147460938
1488506710.2219469547,1488506710.2242379189,        0.6391601562,        0.1455078125,       -0.1850585938,        6.5002441406,        0.1220703125,      -54.7485351562
1488506710.2245159149,1488506710.2268140316,        0.5141601562,        0.2290039062,       -0.1865234375,        6.8664550781,        0.1220703125,      -54.7485351562
1488506710.2270920277,1488506710.2293829918,        0.5913085938,        0.2290039062,       -0.1865234375,        6.8664550781,       -3.7841796875,      -53.9855957031
1488506710.2296590805,1488506710.2319591045,        0.5913085938,        0.2290039062,       -0.1865234375,        6.1187744141,       -0.3662109375,      -53.9855957031
1488506710.2322371006,1488506710.2345321178,        0.5913085938,        0.2290039062,       -0.1865234375,        6.1187744141,       -0.3662109375,      -52.5665283203
1488506710.2348110676,1488506710.2370998859,        0.5654296875,        0.2846679688,       -0.1762695312,        3.6163330078,       -0.4119873047,      -52.5665283203
1488506710.2373800278,1488506710.2396669388,        0.5654296875,        0.2846679688,       -0.1762695312,        3.6163330078,       -0.4119873047,      -52.5665283203
1488506710.2399439812,1488506710.2422869205,        0.5654296875,        0.2846679688,       -0.1762695312,        1.0070800781,       -0.2593994141,      -50.1861572266
1488506710.2425661087,1488506710.2448558807,        0.5654296875,        0.2846679688,       -0.1762695312,        1.0070800781,       -0.2593994141,      -50.1861572266
1488506710.2451360226,1488506710.2474238873,        0.5410156250,        0.2763671875,       -0.1484375000,       -0.7476806641,       -0.2288818359,      -48.4619140625
1488506710.2477049828,1488506710.2499980927,        0.5410156250,        0.2763671875,       -0.1484375000,       -0.7476806641,       -0.2288818359,      -48.4619140625
1488506710.2502770424,1488506710.2526979446,        0.5410156250,        0.2763671875,       -0.1484375000,       -1.9073486328,        0.3662109375,      -47.3632812500
1488506710.2529768944,1488506710.2552700043,        0.5410156250,        0.2763671875,       -0.1484375000,       -1.9073486328,        0.3662109375,      -47.3632812500
1488506710.2555480003,1488506710.2578430176,        0.5581054688,        0.2509765625,       -0.1503906250,       -3.6163330078,       -0.1068115234,      -46.0968017578
1488506710.2581210136,1488506710.2604129314,        0.5581054688,        0.2509765625,       -0.1503906250,       -3.6163330078,       -0.1068115234,      -46.0968017578
1488506710.2606899738,1488506710.2632160187,        0.5581054688,        0.2509765625,       -0.1503906250,       -3.8604736328,       -0.4730224609,      -45.8984375000
1488506710.2635009289,1488506710.2659220695,        0.5581054688,        0.2509765625,       -0.1503906250,       -3.8604736328,       -0.4730224609,      -45.8984375000
1488506710.2662060261,1488506710.2686300278,        0.5644531250,        0.2363281250,       -0.1494140625,       -4.0740966797,       -0.3051757812,      -46.0357666016
1488506710.2690238953,1488506710.2714440823,        0.5644531250,        0.2363281250,       -0.1494140625,       -4.0740966797,       -0.3051757812,      -46.0357666016
1488506710.2717399597,1488506710.2740299702,        0.5644531250,        0.2363281250,       -0.1494140625,       -4.0740966797,       -0.4577636719,      -46.0052490234
1488506710.2743089199,1488506710.2765979767,        0.5644531250,        0.2363281250,       -0.1435546875,       -4.0740966797,       -0.4577636719,      -46.0052490234
1488506710.2768759727,1488506710.2791669369,        0.5620117188,        0.2426757812,       -0.1435546875,       -3.5552978516,        0.0000000000,      -46.6461181641
1488506710.2794449329,1488506710.2817480564,        0.5620117188,        0.2426757812,       -0.1435546875,       -3.5552978516,        0.0000000000,      -46.6461181641
1488506710.2820339203,1488506710.2844469547,        0.5620117188,        0.2426757812,       -0.1435546875,       -3.1585693359,       -0.1983642578,      -47.3937988281
1488506710.2847330570,1488506710.2871520519,        0.5620117188,        0.3676757812,       -0.1469726562,       -3.1585693359,       -0.1983642578,      -47.3937988281
1488506710.2874391079,1488506710.2898569107,        0.5629882812,        0.2500000000,       -0.1469726562,       -2.8533935547,       -0.0152587891,      -48.2635498047
1488506710.2901449203,1488506710.2925350666,        0.5629882812,        0.2500000000,       -0.1469726562,       -2.8533935547,       -0.0152587891,      -48.2635498047
1488506710.2928140163,1488506710.2951080799,        0.5629882812,        0.2500000000,       -0.1469726562,       -2.8533935547,       -0.2746582031,      -48.7060546875
1488506710.2953870296,1488506710.2976789474,        0.5629882812,        0.2319335938,       -0.1420898438,       -3.2501220703,       -0.2746582031,      -48.7060546875
1488506710.2979559898,1488506710.3002529144,        0.5688476562,        0.2319335938,       -0.1420898438,       -3.2501220703,        0.0457763672,      -49.4537353516
1488506710.3005321026,1488506710.3029470444,        0.5688476562,        0.2319335938,       -0.1420898438,       -3.6621093750,        0.0457763672,      -49.4537353516
1488506710.3032350540,1488506710.3056519032,        0.5688476562,        0.2319335938,       -0.1420898438,       -3.6621093750,        0.0457763672,      -51.2847900391
1488506710.3059399128,1488506710.3083560467,        0.5483398438,        0.1635742188,       -0.1240234375,       -2.4871826172,        0.2899169922,      -51.2847900391
1488506710.3086440563,1488506710.3110570908,        0.5483398438,        0.1635742188,       -0.1240234375,       -2.4871826172,       -3.6163330078,      -53.3599853516
1488506710.3113429546,1488506710.3137729168,        0.5483398438,        0.1635742188,       -0.1240234375,        0.2899169922,       -0.2288818359,      -53.3599853516
1488506710.3140599728,1488506710.3164770603,        0.5483398438,        0.1635742188,       -0.1240234375,        0.2899169922,       -0.2288818359,      -55.4504394531
1488506710.3167641163,1488506710.3192310333,        0.4770507812,        0.2192382812,       -0.1708984375,        4.6081542969,       -1.0223388672,      -55.4504394531
1488506710.3195180893,1488506710.3219270706,        0.4770507812,        0.2192382812,       -0.1708984375,        4.6081542969,       -1.0223388672,      -56.7779541016
1488506710.3225960732,1488506710.3248898983,        0.4770507812,        0.2192382812,       -0.1708984375,        7.8582763672,       -0.6713867188,      -56.7779541016
1488506710.3251700401,1488506710.3274600506,        0.4770507812,        0.3442382812,       -0.2265625000,        7.8582763672,       -0.3967285156,      -56.1523437500
1488506710.3277390003,1488506710.3300330639,        0.4829101562,        0.3085937500,       -0.2265625000,        7.8735351562,       -0.3967285156,      -56.1523437500
1488506710.3303120136,1488506710.3327100277,        0.4829101562,        0.3085937500,       -0.2265625000,        7.8735351562,       -0.3967285156,      -54.5806884766
1488506710.3331038952,1488506710.3355200291,        0.4829101562,        0.3085937500,       -0.2265625000,        6.0729980469,       -0.7934570312,      -54.5806884766
1488506710.3358070850,1488506710.3382220268,        0.4829101562,        0.2988281250,       -0.2045898438,        6.0729980469,       -0.7934570312,      -53.8024902344
1488506710.3385069370,1488506710.3409221172,        0.4790039062,        0.2988281250,       -0.2045898438,        3.7384033203,       -1.3122558594,      -53.8024902344
1488506710.3412070274,1488506710.3436260223,        0.4790039062,        0.2988281250,       -0.2045898438,        3.7384033203,       -1.3122558594,      -53.7872314453
1488506710.3439109325,1488506710.3463230133,        0.4790039062,        0.2988281250,       -0.2045898438,        1.3580322266,       -2.0141601562,      -53.7872314453
1488506710.3466091156,1488506710.3490250111,        0.5488281250,        0.2836914062,       -0.1992187500,        1.3580322266,       -2.0141601562,      -52.5817871094
1488506710.3493111134,1488506710.3517379761,        0.5488281250,        0.2836914062,       -0.1992187500,       -1.1291503906,       -2.2735595703,      -52.5817871094
1488506710.3520181179,1488506710.3543078899,        0.5488281250,        0.2836914062,       -0.1992187500,       -1.1291503906,       -2.2735595703,      -52.1240234375
1488506710.3545858860,1488506710.3568799496,        0.5488281250,        0.2836914062,       -0.1992187500,       -2.9602050781,       -2.1972656250,      -52.1240234375
1488506710.3571579456,1488506710.3594501019,        0.6147460938,        0.2436523438,       -0.1625976562,       -2.9602050781,       -2.1972656250,      -52.1240234375
1488506710.3597269058,1488506710.3620231152,        0.6147460938,        0.2436523438,       -0.1625976562,       -3.9062500000,       -2.4414062500,      -53.7567138672
1488506710.3623020649,1488506710.3645958900,        0.6147460938,        0.2436523438,       -0.1625976562,       -3.9062500000,       -2.4414062500,      -53.7567138672
1488506710.3648738861,1488506710.3671638966,        0.6147460938,        0.2436523438,       -0.1625976562,       -4.5013427734,       -2.8839111328,      -55.4046630859
1488506710.3674409389,1488506710.3697319031,        0.5991210938,        0.2753906250,       -0.1484375000,       -4.5013427734,       -2.8839111328,      -55.4046630859
1488506710.3700098991,1488506710.3724319935,        0.5991210938,        0.2753906250,       -0.1484375000,       -5.1727294922,       -2.5939941406,      -56.5185546875
1488506710.3727099895,1488506710.3750050068,        0.5991210938,        0.2753906250,       -0.1484375000,       -5.1727294922,       -2.5939941406,      -56.5185546875
1488506710.3752839565,1488506710.3775761127,        0.5991210938,        0.2753906250,       -0.1484375000,       -5.5694580078,       -2.2583007812,      -57.7087402344
1488506710.3778550625,1488506710.3801479340,        0.5893554688,        0.3046875000,       -0.1611328125,       -5.5694580078,       -2.2583007812,      -57.7087402344
1488506710.3804249763,1488506710.3828630447,        0.5893554688,        0.3046875000,       -0.1611328125,       -6.3476562500,       -2.0904541016,      -57.6934814453
1488506710.3831501007,1488506710.3855628967,        0.5893554688,        0.3046875000,       -0.1611328125,       -6.3476562500,       -2.0904541016,      -57.6934814453
1488506710.3858480453,1488506710.3882598877,        0.5893554688,        0.3046875000,       -0.1596679688,       -6.3018798828,       -1.9073486328,      -57.8460693359
1488506710.3885459900,1488506710.3909668922,        0.5507812500,        0.2846679688,       -0.1596679688,       -6.3018798828,       -1.9073486328,      -57.8460693359
1488506710.3912520409,1488506710.3937220573,        0.5507812500,        0.2846679688,       -0.1596679688,       -7.2784423828,       -3.0517578125,      -58.5479736328
1488506710.3940060139,1488506710.3964231014,        0.5507812500,        0.2846679688,       -0.1596679688,       -7.2784423828,       -3.0517578125,      -58.5479736328
1488506710.3968169689,1488506710.3992259502,        0.5820312500,        0.2651367188,       -0.1416015625,       -8.2397460938,       -2.7465820312,      -58.8989257812
1488506710.3995120525,1488506710.4019379616,        0.5820312500,        0.2651367188,       -0.1416015625,       -8.2397460938,       -2.7465820312,      -58.8989257812
1488506710.4022240639,1488506710.4046370983,        0.5820312500,        0.2651367188,       -0.1416015625,       -8.4838867188,       -1.7242431641,      -60.8215332031
1488506710.4049229622,1488506710.4073410034,        0.5820312500,        0.2651367188,       -0.1416015625,       -8.4838867188,       -1.7242431641,      -60.8215332031
1488506710.4076271057,1488506710.4100480080,        0.5419921875,        0.2377929688,       -0.1303710938,       -6.5460205078,       -1.1901855469,      -62.4389648438
1488506710.4103360176,1488506710.4127171040,        0.5419921875,        0.2377929688,       -0.1303710938,       -6.5460205078,       -1.1901855469,      -62.4389648438
1488506710.4129951000,1488506710.4152851105,        0.5419921875,        0.2377929688,       -0.1303710938,       -3.6773681641,       -1.6632080078,      -64.0411376953
1488506710.4155640602,1488506710.4178578854,        0.5419921875,        0.2377929688,       -0.1303710938,       -3.6773681641,       -1.6632080078,      -64.0411376953
1488506710.4181358814,1488506710.4204270840,        0.4575195312,        0.3452148438,       -0.1894531250,       -0.7324218750,       -1.6174316406,      -64.0411376953
1488506710.4207050800,1488506710.4230589867,        0.4575195312,        0.3452148438,       -0.1894531250,       -0.7324218750,       -1.6174316406,      -64.0411376953
1488506710.4233388901,1488506710.4256279469,        0.4575195312,        0.3452148438,       -0.1894531250,        3.1738281250,       -0.7324218750,      -63.4765625000
1488506710.4259049892,1488506710.4281940460,        0.4575195312,        0.3452148438,       -0.1894531250,        0.6866455078,       -0.7324218750,      -63.4765625000
1488506710.4284720421,1488506710.4307630062,        0.4926757812,        0.4262695312,       -0.1894531250,        0.6866455078,       -0.7324218750,      -60.4400634766
1488506710.4310410023,1488506710.4333469868,        0.4926757812,        0.4262695312,       -0.1894531250,       -1.0528564453,       -0.3051757812,      -60.4400634766
1488506710.4336249828,1488506710.4359140396,        0.4926757812,        0.4262695312,       -0.1894531250,       -1.0528564453,       -0.3051757812,      -57.4340820312
1488506710.4361920357,1488506710.4386589527,        0.4926757812,        0.4262695312,       -0.1796875000,       -3.1738281250,       -0.3662109375,      -57.4340820312
1488506710.4389400482,1488506710.4412319660,        0.5493164062,        0.3657226562,       -0.1796875000,       -3.1738281250,       -0.3662109375,      -57.4340820312
1488506710.4415121078,1488506710.4440710545,        0.5493164062,        0.3657226562,       -0.1796875000,       -4.8522949219,        0.4119873047,      -57.8155517578
1488506710.4443519115,1488506710.4466381073,        0.5493164062,        0.3657226562,       -0.1796875000,       -4.8522949219,        0.4119873047,      -61.7218017578
1488506710.4469170570,1488506710.4491999149,        0.5493164062,        0.3085937500,       -0.2075195312,       -6.2103271484,        1.3885498047,      -58.6242675781
1488506710.4494791031,1488506710.4517710209,        0.6040039062,        0.3085937500,       -0.2075195312,       -6.2103271484,        1.3885498047,      -58.6242675781
1488506710.4520509243,1488506710.4543380737,        0.6040039062,        0.3085937500,       -0.2075195312,       -6.8969726562,        1.5869140625,      -58.5021972656
1488506710.4546160698,1488506710.4569020271,        0.6040039062,        0.3085937500,       -0.2075195312,       -6.8969726562,        1.5869140625,      -58.5021972656
1488506710.4571800232,1488506710.4594669342,        0.5742187500,        0.3203125000,       -0.2080078125,       -8.5144042969,        0.3356933594,      -58.6700439453
1488506710.4598550797,1488506710.4622619152,        0.5742187500,        0.3203125000,       -0.2080078125,       -8.5144042969,        0.3356933594,      -58.6700439453
1488506710.4625411034,1488506710.4648280144,        0.5742187500,        0.3203125000,       -0.2080078125,       -9.5062255859,       -0.8392333984,      -59.4635009766
1488506710.4651079178,1488506710.4673988819,        0.5742187500,        0.3203125000,       -0.2080078125,       -9.5062255859,       -0.8392333984,      -59.4635009766
1488506710.4676771164,1488506710.4699649811,        0.5874023438,        0.3852539062,       -0.2207031250,       -9.9182128906,       -2.5634765625,      -59.8449707031
1488506710.4702429771,1488506710.4725420475,        0.5874023438,        0.3852539062,       -0.2207031250,       -9.9182128906,       -2.5634765625,      -59.8449707031
1488506710.4728200436,1488506710.4751160145,        0.5874023438,        0.3852539062,       -0.2207031250,      -10.4675292969,       -3.3111572266,      -60.2569580078
1488506710.4753980637,1488506710.4776880741,        0.5874023438,        0.3852539062,       -0.2207031250,      -10.4675292969,       -3.3111572266,      -60.2569580078
1488506710.4779698849,1488506710.4802639484,        0.5771484375,        0.4052734375,       -0.1879882812,      -11.2304687500,       -4.1351318359,      -59.4024658203
1488506710.4805440903,1488506710.4828810692,        0.5771484375,        0.4052734375,       -0.1879882812,      -11.2304687500,       -4.1351318359,      -59.4024658203
1488506710.4831619263,1488506710.4854559898,        0.5771484375,        0.4052734375,       -0.1879882812,      -15.1367187500,       -4.7912597656,      -58.2733154297
1488506710.4857370853,1488506710.4880349636,        0.5771484375,        0.4052734375,       -0.1879882812,      -13.1835937500,       -4.7912597656,      -58.2733154297
1488506710.4883151054,1488506710.4906039238,        0.6269531250,        0.4213867188,       -0.1508789062,      -13.1835937500,       -4.7912597656,      -56.3964843750
1488506710.4908850193,1488506710.4933469296,        0.6269531250,        0.4213867188,       -0.1508789062,      -14.4500732422,       -5.1422119141,      -56.3964843750
1488506710.4936289787,1488506710.4959180355,        0.6269531250,        0.4213867188,       -0.1508789062,      -14.4500732422,       -5.1422119141,      -56.1218261719
1488506710.4961969852,1488506710.4984860420,        0.6269531250,        0.4213867188,       -0.1508789062,      -14.5568847656,       -5.6304931641,      -56.1218261719
1488506710.4987680912,1488506710.5010569096,        0.6586914062,        0.3745117188,       -0.1347656250,      -14.5568847656,       -5.6304931641,      -56.1218261719
1488506710.5013389587,1488506710.5038518906,        0.6586914062,        0.3745117188,       -0.1347656250,      -13.3819580078,       -6.2561035156,      -57.3883056641
1488506710.5041429996,1488506710.5065560341,        0.6586914062,        0.3745117188,       -0.1347656250,      -13.3819580078,       -6.2561035156,      -57.3883056641
1488506710.5068440437,1488506710.5092599392,        0.6586914062,        0.3745117188,       -0.1098632812,      -11.4746093750,       -6.0119628906,      -58.0139160156
1488506710.5095489025,1488506710.5119669437,        0.6196289062,        0.3530273438,       -0.1098632812,      -11.4746093750,       -6.0119628906,      -58.0139160156
1488506710.5122499466,1488506710.5145430565,        0.6196289062,        0.3530273438,       -0.1098632812,       -8.9721679688,       -6.5765380859,      -58.3038330078
1488506710.5148239136,1488506710.5172688961,        0.6196289062,        0.3530273438,       -0.1098632812,       -8.9721679688,       -6.5765380859,      -58.3038330078
1488506710.5175499916,1488506710.5198450089,        0.6196289062,        0.4199218750,       -0.1298828125,       -6.1492919922,       -6.8359375000,      -58.1817626953
1488506710.5201239586,1488506710.5226490498,        0.5908203125,        0.4199218750,       -0.1298828125,       -6.1492919922,       -6.8359375000,      -58.1817626953
1488506710.5230429173,1488506710.5254249573,        0.5908203125,        0.4199218750,       -0.1298828125,       -4.6691894531,       -6.8054199219,      -58.4716796875
1488506710.5257079601,1488506710.5288910866,        0.5908203125,        0.4199218750,       -0.1298828125,       -4.6691894531,       -6.8054199219,      -58.5327148438
1488506710.5291728973,1488506710.5314640999,        0.5649414062,        0.4160156250,       -0.1064453125,       -3.6926269531,       -5.3558349609,      -58.5327148438
1488506710.5317540169,1488506710.5340440273,        0.5649414062,        0.4160156250,       -0.1064453125,       -3.6926269531,       -5.3558349609,      -58.1512451172
1488506710.5343210697,1488506710.5366129875,        0.5649414062,        0.4160156250,       -0.1064453125,       -2.2583007812,       -3.7841796875,      -58.1512451172
1488506710.5368909836,1488506710.5391819477,        0.5649414062,        0.4160156250,       -0.1064453125,       -2.2583007812,       -3.7841796875,      -58.1512451172
1488506710.5394589901,1488506710.5417549610,        0.5219726562,        0.4077148438,       -0.0986328125,       -1.2359619141,       -2.8991699219,      -57.7239990234
1488506710.5420329571,1488506710.5443310738,        0.5219726562,        0.4077148438,       -0.0986328125,       -1.2359619141,       -2.8991699219,      -57.7239990234
1488506710.5446100235,1488506710.5468990803,        0.5219726562,        0.4077148438,       -0.0986328125,       -0.4882812500,       -1.9226074219,      -57.3730468750
1488506710.5471780300,1488506710.5494680405,        0.5219726562,        0.4077148438,       -0.1240234375,       -0.4882812500,       -1.9226074219,      -57.3730468750
1488506710.5497469902,1488506710.5520908833,        0.5214843750,        0.4213867188,       -0.1240234375,       -0.0305175781,       -1.6021728516,      -56.5643310547
1488506710.5523700714,1488506710.5546579361,        0.5214843750,        0.4213867188,       -0.1240234375,       -0.0305175781,       -1.6021728516,      -56.5643310547
1488506710.5549380779,1488506710.5572299957,        0.5214843750,        0.4213867188,       -0.1240234375,        0.3814697266,       -0.5645751953,      -56.2286376953
1488506710.5575089455,1488506710.5597999096,        0.5214843750,        0.4213867188,       -0.1318359375,        0.3814697266,       -0.5645751953,      -56.2286376953
1488506710.5600779057,1488506710.5623729229,        0.4892578125,        0.4116210938,       -0.1318359375,        0.6408691406,       -0.2899169922,      -55.6793212891
1488506710.5626509190,1488506710.5649449825,        0.4892578125,        0.4116210938,       -0.1318359375,        0.6408691406,       -0.2899169922,      -55.6793212891
1488506710.5652239323,1488506710.5675148964,        0.4892578125,        0.4116210938,       -0.1318359375,        0.2136230469,        0.1678466797,      -55.7861328125
1488506710.5677940845,1488506710.5700860023,        0.4892578125,        0.4116210938,       -0.1718750000,        0.2136230469,        0.1678466797,      -55.7861328125
1488506710.5703639984,1488506710.5728230476,        0.4956054688,        0.4140625000,       -0.1718750000,       -3.6926269531,        1.1291503906,      -56.0302734375
1488506710.5731019974,1488506710.5753989220,        0.4956054688,        0.4140625000,       -0.1718750000,       -0.3051757812,        1.1291503906,      -56.0302734375
1488506710.5756769180,1488506710.5779700279,        0.4956054688,        0.4140625000,       -0.1718750000,       -0.3051757812,        1.0528564453,      -56.2896728516
1488506710.5782499313,1488506710.5805449486,        0.4956054688,        0.3735351562,       -0.2128906250,       -0.0457763672,        1.0528564453,      -56.2896728516
1488506710.5808238983,1488506710.5832819939,        0.4448242188,        0.3735351562,       -0.2128906250,       -0.0457763672,        1.0528564453,      -56.5490722656
1488506710.5835719109,1488506710.5859889984,        0.4448242188,        0.3735351562,       -0.2128906250,        0.3967285156,        1.3427734375,      -56.5490722656
1488506710.5863850117,1488506710.5887999535,        0.4448242188,        0.3735351562,       -0.2128906250,        0.3967285156,        0.8239746094,      -55.8166503906
1488506710.5890879631,1488506710.5915040970,        0.3540039062,        0.4687500000,       -0.2177734375,       -0.3356933594,        0.8239746094,      -55.8166503906
1488506710.5918009281,1488506710.5942211151,        0.3540039062,        0.4687500000,       -0.2177734375,       -0.3356933594,        0.8239746094,      -53.7261962891
1488506710.5945069790,1488506710.5969250202,        0.3540039062,        0.4687500000,       -0.2177734375,       -1.6784667969,        0.3967285156,      -53.7261962891
1488506710.5972108841,1488506710.5996320248,        0.3540039062,        0.4687500000,       -0.2177734375,       -1.6784667969,       -3.5095214844,      -51.8493652344
1488506710.5999159813,1488506710.6023499966,        0.3227539062,        0.5053710938,       -0.1967773438,       -2.4566650391,       -0.2593994141,      -51.8493652344
1488506710.6026360989,1488506710.6050560474,        0.3227539062,        0.5053710938,       -0.1967773438,       -2.4566650391,       -0.2593994141,      -50.0946044922
1488506710.6053431034,1488506710.6077599525,        0.3227539062,        0.5053710938,       -0.1967773438,       -3.4027099609,       -1.0375976562,      -50.0946044922
1488506710.6080439091,1488506710.6104619503,        0.3227539062,        0.5053710938,       -0.1684570312,       -3.4027099609,       -1.0375976562,      -48.1262207031
1488506710.6107499599,1488506710.6131050587,        0.3896484375,        0.5063476562,       -0.1684570312,       -3.6163330078,       -2.0294189453,      -48.1262207031
1488506710.6133830547,1488506710.6156749725,        0.3896484375,        0.5063476562,       -0.1684570312,       -3.6163330078,       -2.0294189453,      -46.4935302734
1488506710.6159529686,1488506710.6182439327,        0.3896484375,        0.5063476562,       -0.1684570312,       -2.2735595703,       -1.8768310547,      -46.4935302734
1488506710.6185228825,1488506710.6210160255,        0.3896484375,        0.4550781250,       -0.1215820312,       -2.2735595703,       -1.8768310547,      -45.5017089844
1488506710.6213068962,1488506710.6238598824,        0.4106445312,        0.4550781250,       -0.1215820312,       -0.7934570312,       -1.9073486328,      -45.5017089844
1488506710.6241478920,1488506710.6265349388,        0.4106445312,        0.4550781250,       -0.1215820312,       -0.7934570312,       -1.9073486328,      -45.1202392578
1488506710.6268188953,1488506710.6294939518,        0.4106445312,        0.4550781250,       -0.1215820312,        1.2054443359,       -2.3193359375,      -45.1202392578
1488506710.6297760010,1488506710.6321361065,        0.3969726562,        0.4643554688,       -0.0800781250,        1.2054443359,       -2.3193359375,      -43.6248779297
1488506710.6324179173,1488506710.6347138882,        0.3969726562,        0.4643554688,       -0.0800781250,        3.2196044922,       -2.8076171875,      -43.6248779297
1488506710.6349930763,1488506710.6372818947,        0.3969726562,        0.4643554688,       -0.0800781250,        3.2196044922,       -2.8076171875,      -42.0684814453
1488506710.6375598907,1488506710.6398549080,        0.3969726562,        0.4643554688,       -0.0800781250,        5.0201416016,       -2.1209716797,      -42.0684814453
1488506710.6401340961,1488506710.6424720287,        0.4301757812,        0.4956054688,       -0.0649414062,        5.0201416016,       -2.1209716797,      -42.0684814453
1488506710.6427509785,1488506710.6450428963,        0.4301757812,        0.4956054688,       -0.0649414062,        8.1634521484,       -1.1444091797,      -41.4123535156
1488506710.6453230381,1488506710.6476180553,        0.4301757812,        0.4956054688,       -0.0649414062,        8.1634521484,       -1.1444091797,      -41.4123535156
1488506710.6478970051,1488506710.6501820087,        0.4301757812,        0.4956054688,       -0.0649414062,       10.6658935547,       -0.2593994141,      -40.0695800781
1488506710.6505789757,1488506710.6528949738,        0.4306640625,        0.4750976562,       -0.0693359375,       10.6658935547,       -0.2593994141,      -40.0695800781
1488506710.6531770229,1488506710.6554710865,        0.4306640625,        0.4750976562,       -0.0693359375,       12.2375488281,        0.6408691406,      -39.0319824219
1488506710.6557540894,1488506710.6580479145,        0.4306640625,        0.4750976562,       -0.0693359375,       12.2375488281,        0.6408691406,      -39.0319824219
1488506710.6583321095,1488506710.6606209278,        0.4306640625,        0.4750976562,       -0.0693359375,       14.2822265625,        1.2817382812,      -39.2761230469
1488506710.6609029770,1488506710.6632339954,        0.3759765625,        0.4125976562,       -0.0786132812,       14.2822265625,        1.2817382812,      -39.2761230469
1488506710.6635160446,1488506710.6658079624,        0.3759765625,        0.4125976562,       -0.0786132812,       16.0522460938,        0.4577636719,      -39.5965576172
1488506710.6660900116,1488506710.6683819294,        0.3759765625,        0.4125976562,       -0.0786132812,       16.0522460938,        0.4577636719,      -39.5965576172
1488506710.6686639786,1488506710.6709570885,        0.3759765625,        0.4125976562,       -0.0927734375,       17.2576904297,       -0.0305175781,      -38.6810302734
1488506710.6712379456,1488506710.6735839844,        0.2934570312,        0.4873046875,       -0.0927734375,       17.2576904297,       -0.0305175781,      -38.6810302734
1488506710.6738669872,1488506710.6761651039,        0.2934570312,        0.4873046875,       -0.0927734375,       17.2576904297,        0.5187988281,      -34.9121093750
1488506710.6764469147,1488506710.6787409782,        0.2934570312,        0.4873046875,       -0.0927734375,       18.7072753906,        0.5187988281,      -34.9121093750
1488506710.6790199280,1488506710.6813209057,        0.2934570312,        0.5219726562,       -0.1528320312,       18.7072753906,        3.5705566406,      -33.5540771484
1488506710.6816010475,1488506710.6841320992,        0.2753906250,        0.5219726562,       -0.1528320312,       23.6206054688,        3.5705566406,      -33.5540771484
1488506710.6844220161,1488506710.6868369579,        0.2753906250,        0.5219726562,       -0.1528320312,       23.6206054688,        3.8299560547,      -32.2570800781
1488506710.6871259212,1488506710.6895461082,        0.2753906250,        0.5219726562,       -0.1528320312,       24.6734619141,        3.8299560547,      -32.2570800781
1488506710.6898360252,1488506710.6922659874,        0.2084960938,        0.5781250000,       -0.1240234375,       24.6734619141,        3.4790039062,      -27.7099609375
1488506710.6925480366,1488506710.6948380470,        0.2084960938,        0.5781250000,       -0.1240234375,       23.7731933594,        3.4790039062,      -27.7099609375
1488506710.6951189041,1488506710.6974189281,        0.2084960938,        0.5781250000,       -0.1240234375,       23.7731933594,        3.4790039062,      -22.6593017578
1488506710.6977028847,1488506710.6999940872,        0.2084960938,        0.5781250000,       -0.1240234375,       21.7437744141,        3.7536621094,      -22.6593017578
1488506710.7002770901,1488506710.7025780678,        0.2299804688,        0.5620117188,       -0.1372070312,       21.7437744141,        3.7536621094,      -18.2037353516
1488506710.7028601170,1488506710.7051539421,        0.2299804688,        0.5620117188,       -0.1372070312,       20.6298828125,        3.0975341797,      -18.2037353516
1488506710.7054340839,1488506710.7077279091,        0.2299804688,        0.5620117188,       -0.1372070312,       20.6298828125,        3.0975341797,      -18.2037353516
1488506710.7080109119,1488506710.7103021145,        0.2299804688,        0.5620117188,       -0.1372070312,       20.1110839844,        2.9144287109,      -14.5416259766
1488506710.7105851173,1488506710.7129120827,        0.2827148438,        0.5722656250,       -0.1386718750,       20.1110839844,        2.9144287109,      -14.5416259766
1488506710.7132999897,1488506710.7155919075,        0.2827148438,        0.5722656250,       -0.1386718750,       21.1181640625,        2.7008056641,      -10.9710693359
1488506710.7158730030,1488506710.7181670666,        0.2827148438,        0.5722656250,       -0.1386718750,       21.1181640625,        2.7008056641,      -10.9710693359
1488506710.7184469700,1488506710.7207350731,        0.2827148438,        0.5722656250,       -0.1386718750,       22.3693847656,        2.4108886719,       -8.0566406250
1488506710.7210121155,1488506710.7233181000,        0.3100585938,        0.5512695312,       -0.1044921875,       22.3693847656,        2.4108886719,       -8.0566406250
1488506710.7235970497,1488506710.7258899212,        0.3100585938,        0.5512695312,       -0.1044921875,       23.9868164062,        2.8381347656,       -5.5236816406
1488506710.7261691093,1488506710.7284519672,        0.3100585938,        0.5512695312,       -0.1044921875,       23.9868164062,        2.8381347656,       -5.5236816406
1488506710.7287290096,1488506710.7310209274,        0.3100585938,        0.5512695312,       -0.1044921875,       25.1007080078,        3.2196044922,       -2.5482177734
1488506710.7312989235,1488506710.7336750031,        0.3422851562,        0.5737304688,       -0.0629882812,       25.1007080078,        3.2196044922,       -2.5482177734
1488506710.7339539528,1488506710.7362329960,        0.3422851562,        0.5737304688,       -0.0629882812,       24.7955322266,        3.8909912109,        0.5035400391
1488506710.7365119457,1488506710.7389419079,        0.3422851562,        0.5737304688,       -0.0629882812,       24.7955322266,        3.8909912109,        0.5035400391
1488506710.7392230034,1488506710.7415099144,        0.3422851562,        0.5737304688,       -0.0302734375,       25.9246826172,        4.8522949219,        3.2806396484
1488506710.7421851158,1488506710.7446091175,        0.3530273438,        0.5419921875,       -0.0302734375,       25.9246826172,        4.8522949219,        3.2806396484
1488506710.7448968887,1488506710.7473099232,        0.3530273438,        0.5419921875,       -0.0302734375,       27.8320312500,        6.4849853516,        6.5002441406
1488506710.7475941181,1488506710.7500119209,        0.3530273438,        0.5419921875,       -0.0302734375,       27.8320312500,        6.4849853516,        6.5002441406
1488506710.7502980232,1488506710.7527298927,        0.3251953125,        0.5561523438,       -0.0590820312,       30.7006835938,        7.0953369141,        9.7656250000
1488506710.7530159950,1488506710.7554290295,        0.3251953125,        0.5561523438,       -0.0590820312,       30.7006835938,        7.0953369141,        9.7656250000
1488506710.7557139397,1488506710.7581310272,        0.3251953125,        0.5561523438,       -0.0590820312,       32.7301025391,        8.1024169922,       12.2833251953
1488506710.7584209442,1488506710.7608380318,        0.3251953125,        0.5561523438,       -0.0590820312,       32.7301025391,        8.1024169922,       12.2833251953
1488506710.7611260414,1488506710.7634649277,        0.3144531250,        0.5288085938,       -0.0737304688,       34.9121093750,        9.7961425781,       14.6179199219
1488506710.7637469769,1488506710.7660429478,        0.3144531250,        0.5288085938,       -0.0737304688,       34.9121093750,        9.7961425781,       14.6179199219
1488506710.7663259506,1488506710.7686190605,        0.3144531250,        0.5288085938,       -0.0737304688,       38.8183593750,        9.9945068359,       17.3034667969
1488506710.7688989639,1488506710.7711989880,        0.3144531250,        0.5288085938,       -0.0737304688,       37.9180908203,        9.9945068359,       17.3034667969
1488506710.7714810371,1488506710.7738220692,        0.3022460938,        0.5122070312,       -0.2319335938,       37.9180908203,        9.9945068359,       20.2026367188
1488506710.7741041183,1488506710.7763979435,        0.3022460938,        0.5122070312,       -0.2319335938,       40.7409667969,       11.6271972656,       20.2026367188
1488506710.7767848969,1488506710.7790820599,        0.3022460938,        0.5122070312,       -0.2319335938,       40.7409667969,       11.6271972656,       24.7802734375
1488506710.7793650627,1488506710.7817139626,        0.3022460938,        0.5122070312,       -0.2319335938,       40.4815673828,       11.5814208984,       24.7802734375
1488506710.7819991112,1488506710.7842950821,        0.2626953125,        0.6181640625,       -0.4511718750,       40.4815673828,       11.5814208984,       30.6091308594
1488506710.7845790386,1488506710.7868790627,        0.2626953125,        0.6181640625,       -0.4511718750,       36.7584228516,        9.1247558594,       30.6091308594
1488506710.7871589661,1488506710.7894508839,        0.2626953125,        0.6181640625,       -0.4511718750,       36.7584228516,        9.1247558594,       30.6091308594
1488506710.7897319794,1488506710.7921950817,        0.2626953125,        0.6181640625,       -0.5468750000,       29.2968750000,        4.7912597656,       37.7960205078
1488506710.7924740314,1488506710.7947759628,        0.2958984375,        0.6147460938,       -0.5468750000,       29.2968750000,        4.7912597656,       37.7960205078
1488506710.7950539589,1488506710.7973480225,        0.2958984375,        0.6147460938,       -0.5468750000,       19.8516845703,       -2.0294189453,       46.9665527344
1488506710.7976300716,1488506710.7999329567,        0.2958984375,        0.6147460938,       -0.5468750000,       19.8516845703,       -2.0294189453,       46.9665527344
1488506710.8002159595,1488506710.8027129173,        0.2958984375,        0.6147460938,       -0.5620117188,       12.9852294922,       -9.8876953125,       55.7556152344
1488506710.8030009270,1488506710.8054130077,        0.5434570312,        0.5141601562,       -0.5620117188,       12.9852294922,       -9.8876953125,       55.7556152344
1488506710.8057010174,1488506710.8081219196,        0.5434570312,        0.5141601562,       -0.5620117188,        9.3383789062,      -17.9901123047,       63.0340576172
1488506710.8084108829,1488506710.8108270168,        0.5434570312,        0.5141601562,       -0.5620117188,        9.3383789062,      -17.9901123047,       63.0340576172
1488506710.8111178875,1488506710.8134500980,        0.7988281250,        0.5405273438,       -0.3872070312,        7.3394775391,      -24.5056152344,       67.7032470703
1488506710.8137350082,1488506710.8160281181,        0.7988281250,        0.5405273438,       -0.3872070312,        7.3394775391,      -24.5056152344,       67.7032470703
1488506710.8163108826,1488506710.8186020851,        0.7988281250,        0.5405273438,       -0.3872070312,        5.4931640625,      -29.6325683594,       73.7304687500
1488506710.8188819885,1488506710.8211779594,        0.7988281250,        0.5405273438,       -0.3872070312,        5.4931640625,      -29.6325683594,       73.7304687500
1488506710.8214590549,1488506710.8238000870,        1.0375976562,        0.5937500000,       -0.1611328125,        2.2430419922,      -31.0974121094,       79.6356201172
1488506710.8240818977,1488506710.8264861107,        1.0375976562,        0.5937500000,       -0.1611328125,        2.2430419922,      -31.0974121094,       79.6356201172
1488506710.8267691135,1488506710.8290638924,        1.0375976562,        0.5937500000,       -0.1611328125,        0.1068115234,      -31.3110351562,       84.4421386719
1488506710.8293459415,1488506710.8316409588,        1.0375976562,        0.5937500000,       -0.1611328125,        0.1068115234,      -31.3110351562,       84.4421386719
1488506710.8321299553,1488506710.8344209194,        1.1767578125,        0.6279296875,       -0.0146484375,       -1.6479492188,      -28.3050537109,       88.4246826172
1488506710.8347029686,1488506710.8369901180,        1.1767578125,        0.6279296875,       -0.0146484375,       -1.6479492188,      -28.3050537109,       88.4246826172
1488506710.8378310204,1488506710.8401200771,        1.1767578125,        0.6279296875,       -0.0146484375,       -5.2185058594,      -25.4821777344,       93.5058593750
1488506710.8404030800,1488506710.8428030014,        1.1767578125,        0.6279296875,        0.0156250000,       -5.2185058594,      -25.4821777344,       93.5058593750
1488506710.8431921005,1488506710.8454780579,        1.2143554688,        0.7094726562,        0.0156250000,      -10.5743408203,      -23.3001708984,      102.8289794922
1488506710.8457629681,1488506710.8480489254,        1.2143554688,        0.7094726562,        0.0156250000,      -10.5743408203,      -23.3001708984,      102.8289794922
1488506710.8483319283,1488506710.8506190777,        1.2143554688,        0.7094726562,        0.0156250000,      -16.6778564453,      -20.5078125000,      114.6240234375
1488506710.8509030342,1488506710.8532469273,        1.2143554688,        0.6777343750,        0.0107421875,      -16.6778564453,      -20.5078125000,      114.6240234375
1488506710.8535308838,1488506710.8558208942,        1.1879882812,        0.6777343750,        0.0107421875,      -21.4996337891,      -17.3339843750,      128.0517578125
1488506710.8561060429,1488506710.8583950996,        1.1879882812,        0.6777343750,        0.0107421875,      -21.4996337891,      -17.3339843750,      128.0517578125
1488506710.8586800098,1488506710.8609681129,        1.1879882812,        0.6777343750,        0.0107421875,      -21.4996337891,      -12.9852294922,      141.8304443359
1488506710.8612520695,1488506710.8635609150,        1.1879882812,        0.5615234375,       -0.0917968750,      -22.0794677734,      -12.9852294922,      141.8304443359
1488506710.8638470173,1488506710.8661339283,        1.2026367188,        0.5615234375,       -0.0917968750,      -22.0794677734,      -12.9852294922,      157.4554443359
1488506710.8664178848,1488506710.8687059879,        1.2026367188,        0.5615234375,       -0.0917968750,      -21.8658447266,       -6.3323974609,      157.4554443359
1488506710.8689870834,1488506710.8712780476,        1.2026367188,        0.5615234375,       -0.0917968750,      -21.8658447266,       -6.3323974609,      173.0804443359
1488506710.8715589046,1488506710.8739340305,        1.0903320312,        0.5395507812,       -0.1699218750,      -21.6979980469,        2.2277832031,      173.7518310547
1488506710.8742148876,1488506710.8765029907,        1.0903320312,        0.5395507812,       -0.1699218750,      -21.6979980469,        2.2277832031,      173.7518310547
1488506710.8767840862,1488506710.8790690899,        1.0903320312,        0.5395507812,       -0.1699218750,      -22.0642089844,       11.3983154297,      191.8029785156
1488506710.8793540001,1488506710.8816430569,        1.0903320312,        0.5395507812,       -0.1699218750,      -22.0642089844,       11.3983154297,      191.8029785156
1488506710.8821039200,1488506710.8843979836,        1.1479492188,        0.4497070312,       -0.2275390625,      -23.1018066406,       19.7601318359,      207.0922851562
1488506710.8846819401,1488506710.8869750500,        1.1479492188,        0.4497070312,       -0.2275390625,      -23.1018066406,       19.7601318359,      207.0922851562
1488506710.8872609138,1488506710.8895530701,        1.1479492188,        0.4497070312,       -0.2275390625,      -24.2004394531,       25.9704589844,      223.2666015625
1488506710.8898379803,1488506710.8922739029,        1.1479492188,        0.4497070312,       -0.2275390625,      -24.2004394531,       25.9704589844,      223.2666015625
1488506710.8925659657,1488506710.8949820995,        1.2275390625,        0.2348632812,       -0.3413085938,      -20.0653076172,       30.7617187500,      241.1041259766
1488506710.8952751160,1488506710.8976891041,        1.2275390625,        0.2348632812,       -0.3413085938,      -20.0653076172,       30.7617187500,      241.1041259766
1488506710.8979809284,1488506710.9003949165,        1.2275390625,        0.2348632812,       -0.3413085938,      -12.4206542969,       36.1785888672,      252.7923583984
1488506710.9006860256,1488506710.9030420780,        1.2275390625,        0.2348632812,       -0.5913085938,      -12.4206542969,       36.1785888672,      252.7923583984
1488506710.9033269882,1488506710.9056229591,        1.3632812500,       -0.0844726562,       -0.5014648438,       -4.4860839844,       39.9627685547,      257.7362060547
1488506710.9060089588,1488506710.9082939625,        1.3632812500,       -0.0844726562,       -0.5014648438,       -4.4860839844,       39.9627685547,      257.7362060547
1488506710.9085750580,1488506710.9108679295,        1.3632812500,       -0.0844726562,       -0.5014648438,        5.2490234375,       43.1365966797,      255.1422119141
1488506710.9111480713,1488506710.9135448933,        1.3632812500,       -0.0844726562,       -0.5512695312,        5.2490234375,       43.1365966797,      255.1422119141
1488506710.9138340950,1488506710.9162359238,        1.6650390625,       -0.1708984375,       -0.5512695312,       15.3656005859,       46.7987060547,      248.0010986328
1488506710.9165260792,1488506710.9189269543,        1.6650390625,       -0.1708984375,       -0.5512695312,       15.3656005859,       46.7987060547,      248.0010986328
1488506710.9192159176,1488506710.9216139317,        1.6650390625,       -0.1708984375,       -0.5512695312,       21.2249755859,       53.3752441406,      244.5373535156
