time_stamp before, time_stamp after, Acceleration x, Acceleration y, Acceleration z, Gyro x, Gyro y, Gyro z
1488506810.0299689770,1488506810.0358569622,        0.5986328125,       -0.0112304688,       -0.2382812500,       -0.3662109375,       -1.1291503906,       -1.2054443359
1488506810.0361659527,1488506810.0392448902,        0.5986328125,       -0.0112304688,       -0.2382812500,       -0.3662109375,       -0.9002685547,       -1.0528564453
1488506810.0395491123,1488506810.0419549942,        0.5986328125,       -0.0112304688,       -0.2255859375,       -0.2136230469,       -0.9002685547,       -1.0528564453
1488506810.0422289371,1488506810.0445659161,        0.5834960938,       -0.0151367188,       -0.2255859375,       -0.2136230469,       -0.9002685547,       -1.2207031250
1488506810.0448389053,1488506810.0471220016,        0.5834960938,       -0.0151367188,       -0.2255859375,        0.0305175781,       -1.1138916016,       -1.2207031250
1488506810.0473930836,1488506810.0496790409,        0.5834960938,       -0.0151367188,       -0.2255859375,        0.0305175781,       -1.1138916016,       -1.2512207031
1488506810.0499510765,1488506810.0523419380,        0.5834960938,       -0.0151367188,       -0.2299804688,        0.1525878906,       -1.0223388672,       -1.2512207031
1488506810.0526220798,1488506810.0552020073,        0.5874023438,       -0.0151367188,       -0.2299804688,        0.1525878906,       -1.0223388672,       -1.2664794922
1488506810.0554940701,1488506810.0579180717,        0.5874023438,       -0.0151367188,       -0.2299804688,       -0.2136230469,       -0.9765625000,       -1.2664794922
1488506810.0581989288,1488506810.0606119633,        0.5874023438,       -0.0151367188,       -0.2299804688,       -0.2136230469,       -0.9765625000,       -0.6561279297
1488506810.0608949661,1488506810.0632350445,        0.5947265625,       -0.0126953125,       -0.2421875000,       -0.5798339844,       -0.6256103516,       -0.6561279297
1488506810.0635070801,1488506810.0657930374,        0.5947265625,       -0.0126953125,       -0.2421875000,       -0.5798339844,       -0.6256103516,       -0.6561279297
1488506810.0660650730,1488506810.0683529377,        0.5947265625,       -0.0126953125,       -0.2421875000,       -0.9307861328,       -0.6408691406,       -1.1749267578
1488506810.0686240196,1488506810.0709149837,        0.5947265625,       -0.0126953125,       -0.2421875000,       -0.9307861328,       -0.6408691406,       -1.1749267578
1488506810.0711851120,1488506810.0734860897,        0.5883789062,       -0.0185546875,       -0.2260742188,       -0.7019042969,       -0.8239746094,       -1.2969970703
1488506810.0737578869,1488506810.0760529041,        0.5883789062,       -0.0185546875,       -0.2260742188,       -0.7019042969,       -0.8239746094,       -1.2969970703
1488506810.0763258934,1488506810.0786249638,        0.5883789062,       -0.0185546875,       -0.2260742188,       -0.3509521484,       -1.4190673828,       -1.5869140625
1488506810.0789000988,1488506810.0811939240,        0.5883789062,       -0.0185546875,       -0.2260742188,       -0.3509521484,       -1.4190673828,       -1.5869140625
1488506810.0814690590,1488506810.0839259624,        0.5961914062,       -0.0161132812,       -0.2368164062,       -0.1525878906,       -1.2359619141,       -1.6021728516
1488506810.0842080116,1488506810.0866219997,        0.5961914062,       -0.0161132812,       -0.2368164062,       -0.1525878906,       -1.2359619141,       -1.6021728516
1488506810.0869040489,1488506810.0893139839,        0.5961914062,       -0.0161132812,       -0.2368164062,       -0.5035400391,       -1.0833740234,       -1.3427734375
1488506810.0895938873,1488506810.0920090675,        0.5961914062,       -0.0161132812,       -0.2368164062,       -0.5035400391,       -1.0833740234,       -1.3427734375
1488506810.0922830105,1488506810.0945758820,        0.5869140625,       -0.0117187500,       -0.2304687500,       -0.4882812500,       -1.0833740234,       -1.4953613281
1488506810.0948510170,1488506810.0971469879,        0.5869140625,       -0.0117187500,       -0.2304687500,       -0.4882812500,       -1.0833740234,       -1.4953613281
1488506810.0975830555,1488506810.0998830795,        0.5869140625,       -0.0117187500,       -0.2304687500,       -0.4272460938,       -0.8850097656,       -1.1444091797
1488506810.1001570225,1488506810.1026198864,        0.5869140625,       -0.0117187500,       -0.2265625000,       -0.4272460938,       -0.8850097656,       -1.1444091797
1488506810.1028959751,1488506810.1051950455,        0.5878906250,       -0.0073242188,       -0.2265625000,       -0.2136230469,       -0.9002685547,       -1.5106201172
1488506810.1054708958,1488506810.1077721119,        0.5878906250,       -0.0073242188,       -0.2265625000,       -0.2136230469,       -0.9002685547,       -1.5106201172
1488506810.1080510616,1488506810.1103479862,        0.5878906250,       -0.0073242188,       -0.2265625000,        0.1220703125,       -1.2664794922,       -1.3732910156
1488506810.1106250286,1488506810.1130950451,        0.5878906250,       -0.0073242188,       -0.2397460938,        0.1220703125,       -1.2664794922,       -1.3732910156
1488506810.1133809090,1488506810.1157948971,        0.5864257812,       -0.0078125000,       -0.2397460938,       -0.1373291016,       -1.2054443359,       -1.2359619141
1488506810.1160778999,1488506810.1184909344,        0.5864257812,       -0.0078125000,       -0.2397460938,       -0.1373291016,       -1.2054443359,       -1.2359619141
1488506810.1187729836,1488506810.1211879253,        0.5864257812,       -0.0078125000,       -0.2397460938,       -0.1373291016,       -1.2817382812,       -1.4190673828
1488506810.1214690208,1488506810.1238160133,        0.5893554688,       -0.0097656250,       -0.2265625000,       -0.1678466797,       -1.2817382812,       -1.4190673828
1488506810.1240921021,1488506810.1263849735,        0.5893554688,       -0.0097656250,       -0.2265625000,       -0.1678466797,       -1.0986328125,       -1.2512207031
1488506810.1266620159,1488506810.1289520264,        0.5893554688,       -0.0097656250,       -0.2265625000,       -0.3814697266,       -1.0986328125,       -1.2512207031
1488506810.1292269230,1488506810.1315219402,        0.5893554688,       -0.0097656250,       -0.2265625000,       -0.3814697266,       -1.0986328125,       -0.9307861328
1488506810.1318039894,1488506810.1342151165,        0.5869140625,       -0.0083007812,       -0.2241210938,       -0.1678466797,       -0.8392333984,       -0.9307861328
1488506810.1344978809,1488506810.1369130611,        0.5869140625,       -0.0083007812,       -0.2241210938,       -0.1678466797,       -0.8392333984,       -1.0986328125
1488506810.1371951103,1488506810.1396119595,        0.5869140625,       -0.0083007812,       -0.2241210938,       -0.2288818359,       -0.9613037109,       -1.0986328125
1488506810.1398940086,1488506810.1423299313,        0.5869140625,       -0.0083007812,       -0.2241210938,       -0.2288818359,       -0.9613037109,       -0.7324218750
1488506810.1426129341,1488506810.1450269222,        0.5913085938,       -0.0009765625,       -0.2353515625,       -1.0223388672,       -0.6866455078,       -0.7324218750
1488506810.1453111172,1488506810.1477301121,        0.5913085938,       -0.0009765625,       -0.2353515625,       -1.0223388672,       -0.6866455078,       -0.8087158203
1488506810.1480100155,1488506810.1504290104,        0.5913085938,       -0.0009765625,       -0.2353515625,       -0.2899169922,       -1.1901855469,       -0.8087158203
1488506810.1507110596,1488506810.1531410217,        0.5913085938,       -0.0009765625,       -0.2368164062,       -0.2899169922,       -1.1901855469,       -0.8544921875
1488506810.1534230709,1488506810.1558439732,        0.5839843750,       -0.0063476562,       -0.2368164062,        0.0610351562,       -1.2817382812,       -0.8544921875
1488506810.1561269760,1488506810.1585500240,        0.5839843750,       -0.0063476562,       -0.2368164062,        0.0610351562,       -1.2817382812,       -0.9307861328
1488506810.1588349342,1488506810.1612520218,        0.5839843750,       -0.0063476562,       -0.2368164062,       -0.2746582031,       -0.9307861328,       -0.9307861328
1488506810.1616449356,1488506810.1640009880,        0.5825195312,       -0.0102539062,       -0.2192382812,       -0.2746582031,       -0.9307861328,       -0.5035400391
1488506810.1642770767,1488506810.1665730476,        0.5825195312,       -0.0102539062,       -0.2192382812,       -0.1678466797,       -0.7629394531,       -0.5035400391
1488506810.1668469906,1488506810.1692230701,        0.5825195312,       -0.0102539062,       -0.2192382812,       -0.1678466797,       -0.7629394531,       -0.5035400391
1488506810.1694989204,1488506810.1718139648,        0.5825195312,       -0.0102539062,       -0.2192382812,        0.0152587891,       -0.9918212891,       -0.6256103516
1488506810.1720950603,1488506810.1744940281,        0.5922851562,        0.0009765625,       -0.2382812500,        0.0152587891,       -0.9918212891,       -0.6256103516
1488506810.1747748852,1488506810.1771779060,        0.5922851562,        0.0009765625,       -0.2382812500,        0.0152587891,       -1.1138916016,       -1.0375976562
1488506810.1774609089,1488506810.1798579693,        0.5922851562,        0.0009765625,       -0.2382812500,        0.0152587891,       -1.1138916016,       -1.0375976562
1488506810.1801369190,1488506810.1825520992,        0.5922851562,        0.0009765625,       -0.2382812500,        0.3051757812,       -1.0223388672,       -0.7171630859
1488506810.1828339100,1488506810.1852369308,        0.5869140625,       -0.0083007812,       -0.2348632812,        0.3051757812,       -1.0223388672,       -0.7171630859
1488506810.1855180264,1488506810.1879179478,        0.5869140625,       -0.0083007812,       -0.2348632812,        0.2441406250,       -1.3427734375,       -0.9460449219
1488506810.1882009506,1488506810.1906030178,        0.5869140625,       -0.0083007812,       -0.2348632812,        0.2441406250,       -1.3427734375,       -0.9460449219
1488506810.1908850670,1488506810.1933031082,        0.5869140625,       -0.0083007812,       -0.2348632812,       -0.2288818359,       -0.9918212891,       -0.3204345703
1488506810.1935861111,1488506810.1959829330,        0.5869140625,       -0.0083007812,       -0.2343750000,       -0.2288818359,       -0.9918212891,       -0.3204345703
1488506810.1962649822,1488506810.1986689568,        0.5869140625,       -0.0083007812,       -0.2343750000,       -0.2288818359,       -0.7934570312,       -0.1068115234
1488506810.1989510059,1488506810.2013459206,        0.5869140625,       -0.0083007812,       -0.2343750000,       -0.2288818359,       -0.7934570312,       -0.1068115234
1488506810.2016279697,1488506810.2039248943,        0.5869140625,       -0.0083007812,       -0.2363281250,        0.0610351562,       -0.6713867188,       -0.4730224609
1488506810.2042000294,1488506810.2065351009,        0.5864257812,       -0.0078125000,       -0.2363281250,        0.0610351562,       -0.6713867188,       -0.4730224609
1488506810.2068119049,1488506810.2091100216,        0.5864257812,       -0.0078125000,       -0.2363281250,       -0.1831054688,       -0.8544921875,       -0.4119873047
1488506810.2093870640,1488506810.2118120193,        0.5864257812,       -0.0078125000,       -0.2363281250,       -0.1831054688,       -0.8544921875,       -0.4119873047
1488506810.2120890617,1488506810.2143878937,        0.5864257812,       -0.0161132812,       -0.2304687500,       -0.0305175781,       -0.7934570312,       -0.6713867188
1488506810.2146639824,1488506810.2169570923,        0.5883789062,       -0.0161132812,       -0.2304687500,       -0.0305175781,       -0.7934570312,       -0.6713867188
1488506810.2172329426,1488506810.2195320129,        0.5883789062,       -0.0161132812,       -0.2304687500,       -0.1831054688,       -0.7171630859,       -0.6103515625
1488506810.2198059559,1488506810.2222731113,        0.5883789062,       -0.0161132812,       -0.2304687500,       -0.1831054688,       -0.7171630859,       -0.6103515625
1488506810.2225549221,1488506810.2249770164,        0.5830078125,       -0.0117187500,       -0.2182617188,       -0.0610351562,       -1.0375976562,       -0.9307861328
1488506810.2253689766,1488506810.2277879715,        0.5830078125,       -0.0117187500,       -0.2182617188,       -0.0610351562,       -1.0375976562,       -0.9307861328
1488506810.2280690670,1488506810.2304849625,        0.5830078125,       -0.0117187500,       -0.2182617188,       -0.6713867188,       -0.5950927734,       -0.5798339844
1488506810.2307689190,1488506810.2331988811,        0.5830078125,       -0.0117187500,       -0.2182617188,       -0.6713867188,       -0.5950927734,       -0.5798339844
1488506810.2334809303,1488506810.2358999252,        0.5913085938,       -0.0009765625,       -0.2397460938,       -0.3204345703,       -0.2441406250,       -0.3967285156
1488506810.2361819744,1488506810.2386009693,        0.5913085938,       -0.0009765625,       -0.2397460938,       -0.3204345703,       -0.2441406250,       -0.3967285156
1488506810.2388861179,1488506810.2413079739,        0.5913085938,       -0.0009765625,       -0.2397460938,       -0.6713867188,       -0.4882812500,       -0.4425048828
1488506810.2415909767,1488506810.2440168858,        0.5913085938,       -0.0009765625,       -0.2216796875,       -0.6713867188,       -0.4882812500,       -0.4425048828
1488506810.2442979813,1488506810.2467150688,        0.5898437500,        0.0014648438,       -0.2216796875,       -0.6256103516,       -0.5950927734,       -0.6561279297
1488506810.2469971180,1488506810.2494170666,        0.5898437500,        0.0014648438,       -0.2216796875,       -0.6256103516,       -0.5950927734,       -0.6561279297
1488506810.2497010231,1488506810.2521328926,        0.5898437500,        0.0014648438,       -0.2216796875,       -0.4577636719,       -0.3204345703,       -0.7171630859
1488506810.2524149418,1488506810.2548289299,        0.5898437500,       -0.0087890625,       -0.2343750000,       -0.4577636719,       -0.3204345703,       -0.7171630859
1488506810.2551109791,1488506810.2575280666,        0.5854492188,       -0.0087890625,       -0.2343750000,       -1.1444091797,       -0.4425048828,       -0.3967285156
1488506810.2578101158,1488506810.2602279186,        0.5854492188,       -0.0087890625,       -0.2343750000,       -1.1444091797,       -0.4425048828,       -0.3967285156
1488506810.2605109215,1488506810.2630200386,        0.5854492188,       -0.0087890625,       -0.2343750000,       -0.9765625000,       -0.3051757812,       -0.4272460938
1488506810.2632989883,1488506810.2655909061,        0.5913085938,       -0.0053710938,       -0.2392578125,       -0.9765625000,       -0.3051757812,       -0.4272460938
1488506810.2658689022,1488506810.2681579590,        0.5913085938,       -0.0053710938,       -0.2392578125,       -1.0986328125,       -0.2593994141,       -0.7171630859
1488506810.2684330940,1488506810.2707300186,        0.5913085938,       -0.0053710938,       -0.2392578125,       -1.0986328125,       -0.2593994141,       -0.7171630859
1488506810.2710049152,1488506810.2734560966,        0.5913085938,       -0.0053710938,       -0.2392578125,       -1.0986328125,       -0.1220703125,       -0.5493164062
1488506810.2737390995,1488506810.2761220932,        0.5942382812,       -0.0034179688,       -0.2397460938,       -0.9613037109,       -0.1220703125,       -0.5493164062
1488506810.2764029503,1488506810.2789020538,        0.5942382812,       -0.0034179688,       -0.2397460938,       -0.9613037109,       -0.2593994141,       -0.4119873047
1488506810.2791829109,1488506810.2817280293,        0.5942382812,       -0.0034179688,       -0.2397460938,       -0.7934570312,       -0.2593994141,       -0.4119873047
1488506810.2820210457,1488506810.2844378948,        0.5942382812,       -0.0034179688,       -0.2397460938,       -0.7934570312,       -0.1831054688,       -0.1831054688
1488506810.2847220898,1488506810.2871289253,        0.5864257812,       -0.0117187500,       -0.2309570312,       -0.8392333984,       -0.1831054688,       -0.1831054688
1488506810.2874109745,1488506810.2898159027,        0.5864257812,       -0.0117187500,       -0.2309570312,       -0.8392333984,       -0.0762939453,       -0.1678466797
1488506810.2902069092,1488506810.2926089764,        0.5864257812,       -0.0117187500,       -0.2309570312,       -0.7324218750,       -0.0762939453,       -0.1678466797
1488506810.2928910255,1488506810.2952740192,        0.5864257812,       -0.0078125000,       -0.2250976562,       -0.7324218750,        0.1220703125,       -0.2441406250
1488506810.2955789566,1488506810.2982630730,        0.5898437500,       -0.0078125000,       -0.2250976562,       -0.5950927734,        0.1220703125,       -0.2441406250
1488506810.2985479832,1488506810.3009650707,        0.5898437500,       -0.0078125000,       -0.2250976562,       -0.8087158203,       -0.1678466797,       -0.3356933594
1488506810.3012468815,1488506810.3037219048,        0.5898437500,       -0.0078125000,       -0.2250976562,       -0.8087158203,       -0.1678466797,       -0.3356933594
1488506810.3040060997,1488506810.3064260483,        0.5849609375,       -0.0117187500,       -0.2299804688,       -0.6866455078,       -0.2136230469,       -0.5035400391
1488506810.3067090511,1488506810.3091208935,        0.5849609375,       -0.0117187500,       -0.2299804688,       -0.6866455078,       -0.2136230469,       -0.5035400391
1488506810.3094038963,1488506810.3118169308,        0.5849609375,       -0.0117187500,       -0.2299804688,       -0.7324218750,       -0.0152587891,       -0.4119873047
1488506810.3120939732,1488506810.3143870831,        0.5849609375,       -0.0117187500,       -0.2299804688,       -0.7324218750,       -0.0152587891,       -0.4119873047
1488506810.3146629333,1488506810.3169550896,        0.5883789062,       -0.0058593750,       -0.2319335938,       -0.7324218750,       -0.3204345703,       -0.3662109375
1488506810.3172299862,1488506810.3195219040,        0.5883789062,       -0.0058593750,       -0.2319335938,       -0.5340576172,       -0.3204345703,       -0.3662109375
1488506810.3197970390,1488506810.3221340179,        0.5883789062,       -0.0058593750,       -0.2319335938,       -0.5340576172,       -0.3204345703,       -0.3662109375
1488506810.3224110603,1488506810.3247060776,        0.5883789062,       -0.0058593750,       -0.2319335938,       -0.3662109375,       -0.3509521484,       -0.3662109375
1488506810.3249809742,1488506810.3272719383,        0.5820312500,       -0.0102539062,       -0.2304687500,       -0.3662109375,       -0.3509521484,       -0.6256103516
1488506810.3275480270,1488506810.3298370838,        0.5820312500,       -0.0102539062,       -0.2304687500,       -0.5187988281,       -0.3204345703,       -0.6256103516
1488506810.3301129341,1488506810.3325810432,        0.5820312500,       -0.0102539062,       -0.2304687500,       -0.5187988281,       -0.3204345703,       -0.6256103516
1488506810.3328568935,1488506810.3351480961,        0.5820312500,       -0.0102539062,       -0.2368164062,       -0.0305175781,       -0.3051757812,       -1.1596679688
1488506810.3354239464,1488506810.3377161026,        0.5874023438,       -0.0112304688,       -0.2368164062,       -0.0305175781,       -0.3051757812,       -1.1596679688
1488506810.3379909992,1488506810.3402819633,        0.5874023438,       -0.0112304688,       -0.2368164062,        0.1525878906,       -0.5035400391,       -0.9002685547
1488506810.3405580521,1488506810.3430500031,        0.5874023438,       -0.0112304688,       -0.2368164062,        0.1525878906,       -0.5035400391,       -0.9002685547
1488506810.3433339596,1488506810.3457479477,        0.5874023438,       -0.0039062500,       -0.2412109375,       -0.0610351562,       -0.5645751953,       -0.8392333984
1488506810.3460319042,1488506810.3484480381,        0.5903320312,       -0.0039062500,       -0.2412109375,       -0.0610351562,       -0.5645751953,       -0.8392333984
1488506810.3487310410,1488506810.3511459827,        0.5903320312,       -0.0039062500,       -0.2412109375,        0.0000000000,       -0.6256103516,       -0.7324218750
1488506810.3514308929,1488506810.3538539410,        0.5903320312,       -0.0039062500,       -0.2412109375,        0.0000000000,       -0.6256103516,       -0.7324218750
1488506810.3542449474,1488506810.3566648960,        0.5849609375,       -0.0126953125,       -0.2241210938,       -0.1068115234,       -0.1373291016,       -1.3122558594
1488506810.3569469452,1488506810.3593900204,        0.5849609375,       -0.0126953125,       -0.2241210938,       -0.1068115234,       -0.1373291016,       -1.3122558594
1488506810.3596670628,1488506810.3620579243,        0.5849609375,       -0.0126953125,       -0.2241210938,        0.0915527344,       -0.2136230469,       -1.4953613281
1488506810.3623340130,1488506810.3646290302,        0.5849609375,       -0.0126953125,       -0.2241210938,        0.0915527344,       -0.2136230469,       -1.4953613281
1488506810.3649060726,1488506810.3671960831,        0.5952148438,       -0.0068359375,       -0.2382812500,       -0.2288818359,        0.0305175781,       -1.0223388672
1488506810.3675389290,1488506810.3701190948,        0.5952148438,       -0.0068359375,       -0.2382812500,       -0.2288818359,        0.0305175781,       -1.0223388672
1488506810.3703958988,1488506810.3727478981,        0.5952148438,       -0.0068359375,       -0.2382812500,       -0.0457763672,       -0.1983642578,       -1.2969970703
1488506810.3730309010,1488506810.3754520416,        0.5952148438,       -0.0068359375,       -0.2329101562,       -0.0457763672,       -0.1983642578,       -1.2969970703
1488506810.3757350445,1488506810.3781540394,        0.5957031250,       -0.0175781250,       -0.2329101562,       -0.2288818359,        0.2136230469,       -1.5563964844
1488506810.3784360886,1488506810.3808500767,        0.5957031250,       -0.0175781250,       -0.2329101562,       -0.2288818359,        0.2136230469,       -1.5563964844
1488506810.3811309338,1488506810.3835630417,        0.5957031250,       -0.0175781250,       -0.2329101562,       -0.4119873047,        0.4882812500,       -1.8310546875
1488506810.3838469982,1488506810.3862669468,        0.5957031250,       -0.0195312500,       -0.2290039062,       -0.4119873047,        0.4882812500,       -1.8310546875
1488506810.3865489960,1488506810.3889648914,        0.5883789062,       -0.0195312500,       -0.2290039062,       -0.2593994141,        0.5950927734,       -2.2735595703
1488506810.3892469406,1488506810.3917090893,        0.5883789062,       -0.0195312500,       -0.2290039062,       -0.2593994141,        0.5950927734,       -2.2735595703
1488506810.3919920921,1488506810.3944079876,        0.5883789062,       -0.0195312500,       -0.2290039062,       -0.5187988281,        0.9155273438,       -2.8839111328
1488506810.3946900368,1488506810.3971130848,        0.5854492188,       -0.0117187500,       -0.2407226562,       -0.5187988281,        0.9155273438,       -2.8839111328
1488506810.3973939419,1488506810.3998110294,        0.5854492188,       -0.0117187500,       -0.2407226562,       -0.3814697266,        0.7476806641,       -3.0212402344
1488506810.4000918865,1488506810.4024829865,        0.5854492188,       -0.0117187500,       -0.2407226562,       -0.3814697266,        0.7476806641,       -3.0212402344
1488506810.4027600288,1488506810.4050619602,        0.5854492188,       -0.0117187500,       -0.2407226562,       -1.0681152344,        1.1444091797,       -3.1585693359
1488506810.4053349495,1488506810.4076309204,        0.5971679688,       -0.0083007812,       -0.2363281250,       -1.0681152344,        1.1444091797,       -3.1585693359
1488506810.4079039097,1488506810.4102029800,        0.5971679688,       -0.0083007812,       -0.2363281250,       -1.3732910156,        1.4190673828,       -3.8299560547
1488506810.4104769230,1488506810.4128119946,        0.5971679688,       -0.0083007812,       -0.2363281250,       -1.3732910156,        1.4190673828,       -3.8299560547
1488506810.4130868912,1488506810.4153819084,        0.5971679688,       -0.0083007812,       -0.2363281250,       -1.4495849609,        1.5411376953,       -3.3569335938
1488506810.4156570435,1488506810.4179580212,        0.5937500000,       -0.0151367188,       -0.2353515625,       -1.4495849609,        1.5411376953,       -3.3569335938
1488506810.4183309078,1488506810.4206271172,        0.5937500000,       -0.0151367188,       -0.2353515625,       -1.9073486328,        1.3732910156,       -3.4637451172
1488506810.4209010601,1488506810.4234349728,        0.5937500000,       -0.0151367188,       -0.2353515625,       -1.9073486328,        1.3732910156,       -3.4637451172
1488506810.4237151146,1488506810.4261379242,        0.5937500000,       -0.0151367188,       -0.2280273438,       -2.3803710938,        1.4495849609,       -4.0588378906
1488506810.4264171124,1488506810.4288339615,        0.5888671875,       -0.0146484375,       -0.2280273438,       -2.3803710938,        1.4495849609,       -4.0588378906
1488506810.4291141033,1488506810.4315268993,        0.5888671875,       -0.0146484375,       -0.2280273438,       -1.8920898438,        1.5716552734,       -3.9520263672
1488506810.4318170547,1488506810.4342410564,        0.5888671875,       -0.0146484375,       -0.2280273438,       -1.8920898438,        1.5716552734,       -3.9520263672
1488506810.4345231056,1488506810.4369370937,        0.5888671875,       -0.0024414062,       -0.2309570312,       -1.8920898438,        1.5563964844,       -4.6234130859
1488506810.4372189045,1488506810.4396450520,        0.5981445312,       -0.0024414062,       -0.2309570312,       -1.6021728516,        1.5563964844,       -4.6234130859
1488506810.4399249554,1488506810.4423580170,        0.5981445312,       -0.0024414062,       -0.2309570312,       -1.6021728516,        1.4648437500,       -4.9591064453
1488506810.4426379204,1488506810.4450581074,        0.5981445312,       -0.0024414062,       -0.2309570312,       -1.6632080078,        1.4648437500,       -4.9591064453
1488506810.4453380108,1488506810.4477651119,        0.5913085938,       -0.0014648438,       -0.2285156250,       -1.6632080078,        1.5716552734,       -4.7760009766
1488506810.4480459690,1488506810.4504699707,        0.5913085938,       -0.0014648438,       -0.2285156250,       -1.4038085938,        1.5716552734,       -4.7760009766
1488506810.4507529736,1488506810.4531838894,        0.5913085938,       -0.0014648438,       -0.2285156250,       -1.4038085938,        1.6326904297,       -4.4860839844
1488506810.4534649849,1488506810.4558908939,        0.5913085938,       -0.0014648438,       -0.2285156250,       -1.2817382812,        1.6326904297,       -4.4860839844
1488506810.4561729431,1488506810.4585919380,        0.5893554688,       -0.0063476562,       -0.2275390625,       -1.2817382812,        1.5716552734,       -4.8675537109
1488506810.4588720798,1488506810.4612970352,        0.5893554688,       -0.0063476562,       -0.2275390625,       -1.4801025391,        1.5716552734,       -4.8675537109
1488506810.4615790844,1488506810.4638910294,        0.5893554688,       -0.0063476562,       -0.2275390625,       -1.4801025391,        1.2207031250,       -4.9438476562
1488506810.4641690254,1488506810.4664590359,        0.5893554688,       -0.0063476562,       -0.2270507812,       -1.9073486328,        1.2207031250,       -4.9438476562
1488506810.4667348862,1488506810.4690320492,        0.5878906250,        0.0009765625,       -0.2270507812,       -1.9073486328,        1.2207031250,       -4.6386718750
1488506810.4693050385,1488506810.4716019630,        0.5878906250,        0.0009765625,       -0.2270507812,       -1.8463134766,        1.8310546875,       -4.6386718750
1488506810.4719240665,1488506810.4742119312,        0.5878906250,        0.0009765625,       -0.2270507812,       -1.8463134766,        1.8310546875,       -4.7454833984
1488506810.4744849205,1488506810.4767830372,        0.5878906250,        0.0009765625,       -0.2368164062,       -2.1514892578,        1.6632080078,       -4.7454833984
1488506810.4770560265,1488506810.4794569016,        0.5947265625,        0.0034179688,       -0.2368164062,       -2.1514892578,        1.6632080078,       -4.7454833984
1488506810.4797320366,1488506810.4824960232,        0.5947265625,        0.0034179688,       -0.2368164062,       -2.0751953125,        1.4343261719,       -5.2947998047
1488506810.4827790260,1488506810.4851961136,        0.5947265625,        0.0034179688,       -0.2368164062,       -2.0751953125,        1.4343261719,       -5.1727294922
1488506810.4855859280,1488506810.4880039692,        0.5888671875,       -0.0058593750,       -0.2304687500,       -1.8463134766,        1.7547607422,       -5.1727294922
1488506810.4882860184,1488506810.4907090664,        0.5888671875,       -0.0058593750,       -0.2304687500,       -1.8463134766,        1.7547607422,       -5.3253173828
1488506810.4909911156,1488506810.4934198856,        0.5888671875,       -0.0058593750,       -0.2304687500,       -1.4495849609,        1.6021728516,       -5.3253173828
1488506810.4937009811,1488506810.4961199760,        0.5888671875,       -0.0058593750,       -0.2304687500,       -1.4495849609,        1.6021728516,       -5.7220458984
1488506810.4964039326,1488506810.4988200665,        0.5878906250,       -0.0083007812,       -0.2373046875,       -1.4953613281,        1.7395019531,       -5.7220458984
1488506810.4991030693,1488506810.5015161037,        0.5878906250,       -0.0083007812,       -0.2373046875,       -1.4953613281,        1.7395019531,       -6.3476562500
1488506810.5018069744,1488506810.5042269230,        0.5878906250,       -0.0083007812,       -0.2373046875,       -1.4038085938,        2.0141601562,       -6.3476562500
1488506810.5045089722,1488506810.5069270134,        0.5878906250,       -0.0083007812,       -0.2329101562,       -1.4038085938,        2.0141601562,       -6.5612792969
1488506810.5072069168,1488506810.5096271038,        0.5898437500,       -0.0004882812,       -0.2329101562,       -1.4953613281,        2.1667480469,       -6.5612792969
1488506810.5099089146,1488506810.5123169422,        0.5898437500,       -0.0004882812,       -0.2329101562,       -1.4953613281,        2.1667480469,       -6.8054199219
1488506810.5125899315,1488506810.5148830414,        0.5898437500,       -0.0004882812,       -0.2329101562,       -1.8005371094,        2.4261474609,       -6.8054199219
1488506810.5151560307,1488506810.5174520016,        0.5898437500,       -0.0078125000,       -0.2226562500,       -1.8005371094,        2.4261474609,       -6.8054199219
1488506810.5177268982,1488506810.5200159550,        0.5878906250,       -0.0078125000,       -0.2226562500,       -1.6937255859,        2.6702880859,       -6.8664550781
1488506810.5202898979,1488506810.5225911140,        0.5878906250,       -0.0078125000,       -0.2226562500,       -1.6937255859,        2.6702880859,       -6.8664550781
1488506810.5228641033,1488506810.5251679420,        0.5878906250,       -0.0078125000,       -0.2226562500,       -1.6021728516,        2.5024414062,       -7.1105957031
1488506810.5254418850,1488506810.5277299881,        0.5878906250,       -0.0073242188,       -0.2329101562,       -1.6021728516,        2.5024414062,       -7.1105957031
1488506810.5280039310,1488506810.5302989483,        0.5888671875,       -0.0073242188,       -0.2329101562,       -1.4648437500,        2.6397705078,       -7.5225830078
1488506810.5305728912,1488506810.5329999924,        0.5888671875,       -0.0073242188,       -0.2329101562,       -1.4648437500,        2.6397705078,       -7.5225830078
1488506810.5332760811,1488506810.5355679989,        0.5888671875,       -0.0073242188,       -0.2329101562,       -1.6784667969,        2.4871826172,       -7.5683593750
1488506810.5358419418,1488506810.5381350517,        0.5961914062,       -0.0029296875,       -0.2255859375,       -1.6784667969,        2.4871826172,       -7.5683593750
1488506810.5384080410,1488506810.5407040119,        0.5961914062,       -0.0029296875,       -0.2255859375,       -1.6937255859,        2.3956298828,       -7.6904296875
1488506810.5409770012,1488506810.5434679985,        0.5961914062,       -0.0029296875,       -0.2255859375,       -1.6937255859,        2.3956298828,       -7.6904296875
1488506810.5437510014,1488506810.5461719036,        0.5961914062,       -0.0029296875,       -0.2255859375,       -1.7852783203,        2.4108886719,       -8.1176757812
1488506810.5464529991,1488506810.5488700867,        0.5922851562,       -0.0009765625,       -0.2260742188,       -1.7852783203,        2.4108886719,       -8.1176757812
1488506810.5492589474,1488506810.5517110825,        0.5922851562,       -0.0009765625,       -0.2260742188,       -1.9073486328,        2.3803710938,       -8.3465576172
1488506810.5519940853,1488506810.5544149876,        0.5922851562,       -0.0009765625,       -0.2260742188,       -1.9073486328,        2.3803710938,       -8.3465576172
1488506810.5546948910,1488506810.5571129322,        0.5922851562,       -0.0009765625,       -0.2260742188,       -1.3427734375,        2.4566650391,       -8.2397460938
1488506810.5573959351,1488506810.5598170757,        0.5893554688,       -0.0014648438,       -0.2226562500,       -1.3427734375,        2.4566650391,       -8.2397460938
1488506810.5601000786,1488506810.5625269413,        0.5893554688,       -0.0014648438,       -0.2226562500,       -1.4648437500,        2.3651123047,       -8.4228515625
1488506810.5629570484,1488506810.5652549267,        0.5893554688,       -0.0014648438,       -0.2226562500,       -1.4648437500,        2.3651123047,       -8.4228515625
1488506810.5655310154,1488506810.5678288937,        0.5893554688,        0.0048828125,       -0.2338867188,       -1.8615722656,        2.3803710938,       -8.5144042969
1488506810.5681040287,1488506810.5703999996,        0.5947265625,        0.0048828125,       -0.2338867188,       -1.8615722656,        2.3803710938,       -8.5144042969
1488506810.5706739426,1488506810.5730319023,        0.5947265625,        0.0048828125,       -0.2338867188,       -1.5869140625,        2.3345947266,       -8.8348388672
1488506810.5733070374,1488506810.5755989552,        0.5947265625,        0.0048828125,       -0.2338867188,       -1.5869140625,        2.3345947266,       -8.8348388672
1488506810.5758719444,1488506810.5785789490,        0.5947265625,        0.0053710938,       -0.2270507812,       -1.5869140625,        2.5024414062,       -9.0026855469
1488506810.5788578987,1488506810.5811519623,        0.5942382812,        0.0053710938,       -0.2270507812,       -1.6784667969,        2.5024414062,       -9.0026855469
1488506810.5814290047,1488506810.5837290287,        0.5942382812,        0.0053710938,       -0.2270507812,       -1.6784667969,        2.3956298828,       -8.8958740234
1488506810.5840060711,1488506810.5862939358,        0.5942382812,        0.0053710938,       -0.2270507812,       -1.2207031250,        2.3956298828,       -8.8958740234
1488506810.5865700245,1488506810.5888600349,        0.5888671875,        0.0058593750,       -0.2333984375,       -1.2207031250,        2.3956298828,       -8.5449218750
1488506810.5891330242,1488506810.5914208889,        0.5888671875,        0.0058593750,       -0.2333984375,       -1.1138916016,        2.3651123047,       -8.5449218750
1488506810.5917239189,1488506810.5940148830,        0.5888671875,        0.0058593750,       -0.2333984375,       -1.1138916016,        2.3651123047,       -8.8806152344
1488506810.5942890644,1488506810.5965809822,        0.5888671875,        0.0058593750,       -0.2333984375,       -0.9307861328,        2.6550292969,       -8.8806152344
1488506810.5968570709,1488506810.5991408825,        0.5966796875,        0.0092773438,       -0.2299804688,       -0.9307861328,        2.6550292969,       -8.8806152344
1488506810.5994160175,1488506810.6017510891,        0.5966796875,        0.0092773438,       -0.2299804688,       -0.9155273438,        2.4261474609,       -9.2315673828
1488506810.6020269394,1488506810.6043159962,        0.5966796875,        0.0092773438,       -0.2299804688,       -0.9155273438,        2.4261474609,       -9.2315673828
1488506810.6045899391,1488506810.6068799496,        0.5966796875,        0.0092773438,       -0.2299804688,       -1.3122558594,        2.7160644531,       -9.1094970703
1488506810.6071538925,1488506810.6094419956,        0.5957031250,        0.0205078125,       -0.2275390625,       -1.3122558594,        2.7160644531,       -9.1094970703
1488506810.6097149849,1488506810.6120090485,        0.5957031250,        0.0205078125,       -0.2275390625,       -1.1596679688,        2.5177001953,       -8.7890625000
1488506810.6123919487,1488506810.6146841049,        0.5957031250,        0.0205078125,       -0.2275390625,       -1.1596679688,        2.5177001953,       -8.7890625000
1488506810.6149590015,1488506810.6172459126,        0.5957031250,        0.0205078125,       -0.2275390625,       -1.2207031250,        2.4871826172,       -8.8653564453
1488506810.6175200939,1488506810.6198129654,        0.5898437500,        0.0053710938,       -0.2182617188,       -1.2207031250,        2.4871826172,       -8.8653564453
1488506810.6200881004,1488506810.6224639416,        0.5898437500,        0.0053710938,       -0.2182617188,       -1.8157958984,        2.5329589844,       -9.0179443359
1488506810.6227400303,1488506810.6250319481,        0.5898437500,        0.0053710938,       -0.2182617188,       -1.8157958984,        2.5329589844,       -9.0179443359
1488506810.6253070831,1488506810.6275949478,        0.5898437500,        0.0053710938,       -0.2182617188,       -1.5258789062,        2.6397705078,       -9.2315673828
1488506810.6278688908,1488506810.6301589012,        0.5937500000,        0.0107421875,       -0.2280273438,       -1.5258789062,        2.6397705078,       -9.2315673828
1488506810.6304330826,1488506810.6328148842,        0.5937500000,        0.0107421875,       -0.2280273438,       -1.5258789062,        2.3498535156,       -8.8348388672
1488506810.6330890656,1488506810.6353809834,        0.5937500000,        0.0107421875,       -0.2280273438,       -1.3885498047,        2.3498535156,       -8.8348388672
1488506810.6356561184,1488506810.6379470825,        0.5937500000,        0.0107421875,       -0.2280273438,       -1.3885498047,        2.3498535156,       -8.5754394531
1488506810.6382210255,1488506810.6405110359,        0.5888671875,        0.0249023438,       -0.2192382812,       -2.0141601562,        2.5634765625,       -8.5754394531
1488506810.6407859325,1488506810.6430859566,        0.5888671875,        0.0249023438,       -0.2192382812,       -2.0141601562,        2.5634765625,       -8.4533691406
1488506810.6433598995,1488506810.6456539631,        0.5888671875,        0.0249023438,       -0.2192382812,       -1.9378662109,        3.0212402344,       -8.4533691406
1488506810.6459290981,1488506810.6482191086,        0.5888671875,        0.0249023438,       -0.2338867188,       -1.9378662109,        3.0212402344,       -8.4533691406
1488506810.6484930515,1488506810.6507859230,        0.5961914062,        0.0263671875,       -0.2338867188,       -1.8768310547,        3.2043457031,       -8.3770751953
1488506810.6510589123,1488506810.6533570290,        0.5961914062,        0.0263671875,       -0.2338867188,       -1.8768310547,        3.2043457031,       -8.3770751953
1488506810.6536331177,1488506810.6559219360,        0.5961914062,        0.0263671875,       -0.2338867188,       -2.1820068359,        2.9754638672,       -8.2092285156
1488506810.6561961174,1488506810.6584830284,        0.5961914062,        0.0263671875,       -0.2250976562,       -2.1820068359,        2.9754638672,       -8.2092285156
1488506810.6587560177,1488506810.6610410213,        0.5961914062,        0.0161132812,       -0.2250976562,       -2.2277832031,        3.1127929688,       -8.1787109375
1488506810.6613140106,1488506810.6637589931,        0.5961914062,        0.0161132812,       -0.2250976562,       -2.2277832031,        3.1127929688,       -8.1787109375
1488506810.6640410423,1488506810.6665210724,        0.5961914062,        0.0161132812,       -0.2250976562,       -2.0446777344,        3.1280517578,       -8.3007812500
1488506810.6667990685,1488506810.6690909863,        0.5961914062,        0.0161132812,       -0.2236328125,       -2.0446777344,        3.1280517578,       -8.3007812500
1488506810.6693658829,1488506810.6718389988,        0.5869140625,        0.0161132812,       -0.2236328125,       -1.8768310547,        3.2196044922,       -8.2092285156
1488506810.6721160412,1488506810.6744101048,        0.5869140625,        0.0161132812,       -0.2236328125,       -1.8768310547,        3.2196044922,       -8.2092285156
1488506810.6747899055,1488506810.6770920753,        0.5869140625,        0.0161132812,       -0.2236328125,       -2.1667480469,        3.3569335938,       -8.3007812500
1488506810.6774339676,1488506810.6799190044,        0.5942382812,        0.0141601562,       -0.2333984375,       -2.1667480469,        3.3569335938,       -8.3007812500
1488506810.6801970005,1488506810.6825370789,        0.5942382812,        0.0141601562,       -0.2333984375,       -2.0294189453,        3.6468505859,       -7.9650878906
1488506810.6828119755,1488506810.6851110458,        0.5942382812,        0.0141601562,       -0.2333984375,       -2.0294189453,        3.6468505859,       -7.9650878906
1488506810.6853840351,1488506810.6876740456,        0.5942382812,        0.0141601562,       -0.2333984375,       -2.2430419922,        3.3721923828,       -7.7209472656
1488506810.6879479885,1488506810.6902370453,        0.5942382812,        0.0185546875,       -0.2192382812,       -2.2430419922,        3.3721923828,       -7.7209472656
1488506810.6905100346,1488506810.6928539276,        0.5942382812,        0.0185546875,       -0.2192382812,       -2.4719238281,        3.2806396484,       -7.6904296875
1488506810.6931269169,1488506810.6954131126,        0.5942382812,        0.0185546875,       -0.2192382812,       -2.4719238281,        3.2806396484,       -7.6904296875
1488506810.6956849098,1488506810.6979839802,        0.5942382812,        0.0185546875,       -0.2192382812,       -2.4719238281,        3.4179687500,       -7.8582763672
1488506810.6982579231,1488506810.7005460262,        0.5937500000,        0.0175781250,       -0.2250976562,       -2.2888183594,        3.4179687500,       -7.8582763672
1488506810.7008199692,1488506810.7031130791,        0.5937500000,        0.0175781250,       -0.2250976562,       -2.2888183594,        3.4179687500,       -8.2397460938
1488506810.7033889294,1488506810.7056789398,        0.5937500000,        0.0175781250,       -0.2250976562,       -2.5482177734,        3.5552978516,       -8.2397460938
1488506810.7059540749,1488506810.7082440853,        0.5937500000,        0.0175781250,       -0.2250976562,       -2.5482177734,        3.5552978516,       -8.3007812500
1488506810.7085180283,1488506810.7108099461,        0.5888671875,        0.0219726562,       -0.2236328125,       -2.9602050781,        3.3111572266,       -8.3007812500
1488506810.7110838890,1488506810.7134261131,        0.5888671875,        0.0219726562,       -0.2236328125,       -2.9602050781,        3.3111572266,       -8.3007812500
1488506810.7137000561,1488506810.7159891129,        0.5888671875,        0.0219726562,       -0.2236328125,       -2.9296875000,        3.6315917969,       -7.9498291016
1488506810.7162640095,1488506810.7185559273,        0.5888671875,        0.0219726562,       -0.2236328125,       -2.9296875000,        3.6315917969,       -7.9498291016
1488506810.7188289165,1488506810.7211139202,        0.5927734375,        0.0170898438,       -0.2265625000,       -3.1433105469,        3.2958984375,       -7.8887939453
1488506810.7213869095,1488506810.7238030434,        0.5927734375,        0.0170898438,       -0.2265625000,       -3.1433105469,        3.2958984375,       -7.8887939453
1488506810.7240779400,1488506810.7263770103,        0.5927734375,        0.0170898438,       -0.2265625000,       -2.8839111328,        3.4332275391,       -7.9345703125
1488506810.7266499996,1488506810.7289381027,        0.5927734375,        0.0170898438,       -0.2265625000,       -2.8839111328,        3.4332275391,       -7.9345703125
1488506810.7292129993,1488506810.7315061092,        0.5976562500,        0.0219726562,       -0.2236328125,       -3.1280517578,        3.0212402344,       -7.9498291016
1488506810.7318749428,1488506810.7341759205,        0.5976562500,        0.0219726562,       -0.2236328125,       -3.1280517578,        3.0212402344,       -7.9498291016
1488506810.7344510555,1488506810.7367389202,        0.5976562500,        0.0219726562,       -0.2236328125,       -3.7231445312,        3.2348632812,       -7.8125000000
1488506810.7371230125,1488506810.7394170761,        0.5976562500,        0.0219726562,       -0.2250976562,       -3.7231445312,        3.2348632812,       -7.8125000000
1488506810.7396900654,1488506810.7419810295,        0.6015625000,        0.0244140625,       -0.2250976562,       -4.4097900391,        3.1738281250,       -7.4615478516
1488506810.7422540188,1488506810.7445440292,        0.6015625000,        0.0244140625,       -0.2250976562,       -4.4097900391,        3.1738281250,       -7.4615478516
1488506810.7448189259,1488506810.7471079826,        0.6015625000,        0.0244140625,       -0.2250976562,       -4.4097900391,        2.8533935547,       -7.3242187500
1488506810.7473819256,1488506810.7496700287,        0.6015625000,        0.0244140625,       -0.2207031250,       -5.2337646484,        2.8533935547,       -7.3242187500
1488506810.7499420643,1488506810.7522881031,        0.6030273438,        0.0087890625,       -0.2207031250,       -5.2337646484,        2.8533935547,       -7.5378417969
1488506810.7525610924,1488506810.7548499107,        0.6030273438,        0.0087890625,       -0.2207031250,       -5.1116943359,        2.4261474609,       -7.5378417969
1488506810.7551240921,1488506810.7574191093,        0.6030273438,        0.0087890625,       -0.2207031250,       -5.1116943359,        2.4261474609,       -7.6446533203
1488506810.7576920986,1488506810.7599790096,        0.6030273438,        0.0244140625,       -0.2143554688,       -4.6081542969,        2.7313232422,       -7.6446533203
1488506810.7602529526,1488506810.7625529766,        0.6005859375,        0.0244140625,       -0.2143554688,       -4.6081542969,        2.7313232422,       -7.6446533203
1488506810.7628269196,1488506810.7651228905,        0.6005859375,        0.0244140625,       -0.2143554688,       -4.2419433594,        2.7313232422,       -7.7056884766
1488506810.7653961182,1488506810.7676920891,        0.6005859375,        0.0244140625,       -0.2143554688,       -4.2419433594,        2.7313232422,       -7.7056884766
1488506810.7679650784,1488506810.7702589035,        0.6005859375,        0.0288085938,       -0.2138671875,       -3.8757324219,        2.7160644531,       -7.7972412109
1488506810.7705309391,1488506810.7729370594,        0.5917968750,        0.0288085938,       -0.2138671875,       -3.8757324219,        2.7160644531,       -7.7972412109
1488506810.7732191086,1488506810.7756381035,        0.5917968750,        0.0288085938,       -0.2138671875,       -3.8146972656,        2.5634765625,       -7.1868896484
1488506810.7759160995,1488506810.7783350945,        0.5917968750,        0.0288085938,       -0.2138671875,       -3.8146972656,        2.5634765625,       -7.1868896484
1488506810.7786159515,1488506810.7810380459,        0.5883789062,        0.0375976562,       -0.1923828125,       -3.2958984375,        2.7770996094,       -7.7209472656
1488506810.7813179493,1488506810.7837440968,        0.5883789062,        0.0375976562,       -0.1923828125,       -3.2958984375,        2.7770996094,       -7.7209472656
1488506810.7840240002,1488506810.7864429951,        0.5883789062,        0.0375976562,       -0.1923828125,       -3.5095214844,        2.6855468750,       -7.7819824219
1488506810.7867269516,1488506810.7892310619,        0.5883789062,        0.0375976562,       -0.1923828125,       -3.5095214844,        2.6855468750,       -7.7819824219
1488506810.7895131111,1488506810.7919299603,        0.5961914062,        0.0332031250,       -0.2153320312,       -3.6163330078,        2.5177001953,       -7.5531005859
1488506810.7925989628,1488506810.7950279713,        0.5961914062,        0.0332031250,       -0.2153320312,       -3.6163330078,        2.5177001953,       -7.5531005859
1488506810.7953090668,1488506810.7977290154,        0.5961914062,        0.0332031250,       -0.2153320312,       -3.6468505859,        2.6702880859,       -7.7514648438
1488506810.7980129719,1488506810.8004291058,        0.5961914062,        0.0273437500,       -0.2089843750,       -3.6468505859,        2.6702880859,       -7.7514648438
1488506810.8008170128,1488506810.8032500744,        0.5981445312,        0.0273437500,       -0.2089843750,       -3.6621093750,        2.6245117188,       -7.8430175781
1488506810.8035309315,1488506810.8059530258,        0.5981445312,        0.0273437500,       -0.2089843750,       -3.6621093750,        2.6245117188,       -7.8430175781
1488506810.8062329292,1488506810.8086578846,        0.5981445312,        0.0273437500,       -0.2089843750,       -3.2958984375,        2.4261474609,       -7.6751708984
1488506810.8089389801,1488506810.8113560677,        0.6020507812,        0.0336914062,       -0.2124023438,       -3.2958984375,        2.4261474609,       -7.6751708984
1488506810.8116359711,1488506810.8139679432,        0.6020507812,        0.0336914062,       -0.2124023438,       -3.0822753906,        2.8686523438,       -8.2855224609
1488506810.8142440319,1488506810.8165400028,        0.6020507812,        0.0336914062,       -0.2124023438,       -3.0822753906,        2.8686523438,       -8.2855224609
1488506810.8168139458,1488506810.8191099167,        0.6020507812,        0.0336914062,       -0.2124023438,       -3.0670166016,        2.5939941406,       -8.4838867188
1488506810.8193850517,1488506810.8217198849,        0.5922851562,        0.0327148438,       -0.2187500000,       -3.0670166016,        2.5939941406,       -8.4838867188
1488506810.8219940662,1488506810.8242919445,        0.5922851562,        0.0327148438,       -0.2187500000,       -2.8381347656,        2.9449462891,       -8.7432861328
1488506810.8245639801,1488506810.8268620968,        0.5922851562,        0.0327148438,       -0.2187500000,       -2.8381347656,        2.9449462891,       -8.7432861328
1488506810.8271350861,1488506810.8294339180,        0.5922851562,        0.0327148438,       -0.2187500000,       -2.7923583984,        2.8991699219,       -9.2010498047
1488506810.8297080994,1488506810.8320040703,        0.5986328125,        0.0351562500,       -0.2314453125,       -2.7923583984,        2.8991699219,       -9.2010498047
1488506810.8322789669,1488506810.8345749378,        0.5986328125,        0.0351562500,       -0.2314453125,       -2.8839111328,        2.8533935547,       -9.4451904297
1488506810.8348488808,1488506810.8371500969,        0.5986328125,        0.0351562500,       -0.2314453125,       -2.8839111328,        2.8533935547,       -9.4451904297
1488506810.8374240398,1488506810.8397159576,        0.5986328125,        0.0351562500,       -0.2314453125,       -3.2348632812,        2.7465820312,      -10.2386474609
1488506810.8399930000,1488506810.8424279690,        0.6020507812,        0.0302734375,       -0.2250976562,       -3.2348632812,        2.7465820312,      -10.2386474609
1488506810.8427069187,1488506810.8450100422,        0.6020507812,        0.0302734375,       -0.2250976562,       -3.2348632812,        3.2958984375,      -11.1083984375
1488506810.8452899456,1488506810.8475840092,        0.6020507812,        0.0302734375,       -0.2250976562,       -3.1585693359,        3.2958984375,      -11.1083984375
1488506810.8478620052,1488506810.8501570225,        0.6020507812,        0.0302734375,       -0.2250976562,       -3.1585693359,        3.2958984375,      -11.8103027344
1488506810.8504340649,1488506810.8529500961,        0.5908203125,        0.0219726562,       -0.2285156250,       -3.0364990234,        3.3264160156,      -11.8103027344
1488506810.8532340527,1488506810.8556180000,        0.5908203125,        0.0219726562,       -0.2285156250,       -3.0364990234,        3.3264160156,      -12.2375488281
1488506810.8559010029,1488506810.8582839966,        0.5908203125,        0.0219726562,       -0.2285156250,       -3.3874511719,        3.3264160156,      -12.2375488281
1488506810.8585669994,1488506810.8609449863,        0.5908203125,        0.0219726562,       -0.2202148438,       -3.3874511719,        3.3264160156,      -12.9547119141
1488506810.8612270355,1488506810.8635549545,        0.5952148438,        0.0131835938,       -0.2202148438,       -3.0364990234,        3.6315917969,      -12.9547119141
1488506810.8639578819,1488506810.8662619591,        0.5952148438,        0.0131835938,       -0.2202148438,       -3.0364990234,        3.6315917969,      -13.9007568359
1488506810.8665390015,1488506810.8688330650,        0.5952148438,        0.0131835938,       -0.2202148438,       -2.1972656250,        3.5858154297,      -13.9007568359
1488506810.8691110611,1488506810.8714079857,        0.5952148438,        0.0312500000,       -0.2192382812,       -2.1972656250,        3.5858154297,      -13.9007568359
1488506810.8717188835,1488506810.8741309643,        0.5942382812,        0.0312500000,       -0.2192382812,       -2.1057128906,        3.9215087891,      -14.5111083984
1488506810.8744180202,1488506810.8768320084,        0.5942382812,        0.0312500000,       -0.2192382812,       -2.1057128906,        3.9215087891,      -14.5111083984
1488506810.8771169186,1488506810.8795371056,        0.5942382812,        0.0312500000,       -0.2192382812,       -2.1057128906,        3.9215087891,      -14.6179199219
1488506810.8798220158,1488506810.8822429180,        0.5932617188,        0.0625000000,       -0.2084960938,       -2.1057128906,        3.9215087891,      -14.6179199219
1488506810.8825299740,1488506810.8849430084,        0.5932617188,        0.0625000000,       -0.2084960938,       -2.4566650391,        3.9367675781,      -14.3585205078
1488506810.8852279186,1488506810.8876481056,        0.5932617188,        0.0625000000,       -0.2084960938,       -2.4566650391,        3.9367675781,      -14.3585205078
1488506810.8879339695,1488506810.8903510571,        0.5932617188,        0.0625000000,       -0.2084960938,       -2.9602050781,        4.2877197266,      -14.1296386719
1488506810.8906369209,1488506810.8931050301,        0.5922851562,        0.0488281250,       -0.2075195312,       -2.9602050781,        4.2877197266,      -14.1296386719
1488506810.8933908939,1488506810.8958110809,        0.5922851562,        0.0488281250,       -0.2075195312,       -3.6773681641,        3.8757324219,      -14.4042968750
1488506810.8960978985,1488506810.8985109329,        0.5922851562,        0.0488281250,       -0.2075195312,       -3.6773681641,        3.8757324219,      -14.4042968750
1488506810.8987948895,1488506810.9012129307,        0.5922851562,        0.0488281250,       -0.2153320312,       -3.7841796875,        3.5095214844,      -14.5721435547
1488506810.9014980793,1488506810.9038119316,        0.5922851562,        0.0493164062,       -0.2153320312,       -3.7841796875,        3.5095214844,      -14.5721435547
1488506810.9040899277,1488506810.9063830376,        0.5922851562,        0.0493164062,       -0.2153320312,       -3.6468505859,        4.1961669922,      -14.8925781250
1488506810.9066588879,1488506810.9092850685,        0.5922851562,        0.0493164062,       -0.2153320312,       -3.6468505859,        4.1961669922,      -14.8925781250
1488506810.9095649719,1488506810.9123120308,        0.5922851562,        0.0512695312,       -0.2182617188,       -3.5095214844,        4.1351318359,      -14.9383544922
1488506810.9126009941,1488506810.9150240421,        0.5937500000,        0.0512695312,       -0.2182617188,       -3.5095214844,        4.1351318359,      -14.9383544922
1488506810.9153099060,1488506810.9177260399,        0.5937500000,        0.0512695312,       -0.2182617188,       -3.0517578125,        3.9367675781,      -15.4724121094
1488506810.9180130959,1488506810.9204380512,        0.5937500000,        0.0512695312,       -0.2182617188,       -3.0517578125,        3.9367675781,      -19.3786621094
1488506810.9207239151,1488506810.9231510162,        0.5893554688,        0.0439453125,       -0.1918945312,       -2.3345947266,        3.9062500000,      -16.0980224609
1488506810.9234371185,1488506810.9258520603,        0.5893554688,        0.0439453125,       -0.1918945312,       -2.3345947266,        3.9062500000,      -16.0980224609
1488506810.9261391163,1488506810.9285609722,        0.5893554688,        0.0439453125,       -0.1918945312,       -1.6937255859,        4.1503906250,      -16.9525146484
1488506810.9289529324,1488506810.9313719273,        0.5893554688,        0.0439453125,       -0.2026367188,       -1.6937255859,        4.1503906250,      -16.9525146484
1488506810.9316980839,1488506810.9341180325,        0.5976562500,        0.0463867188,       -0.2026367188,       -1.5716552734,        4.0130615234,      -17.4407958984
1488506810.9344038963,1488506810.9368269444,        0.5976562500,        0.0463867188,       -0.2026367188,       -1.5716552734,        4.0130615234,      -17.4407958984
1488506810.9371140003,1488506810.9395279884,        0.5976562500,        0.0463867188,       -0.2026367188,       -1.6021728516,        4.4555664062,      -18.1884765625
1488506810.9398140907,1488506810.9422171116,        0.5976562500,        0.0507812500,       -0.2006835938,       -1.6021728516,        4.4555664062,      -18.1884765625
1488506810.9424960613,1488506810.9447889328,        0.5913085938,        0.0507812500,       -0.2006835938,       -1.3275146484,        4.2877197266,      -18.9208984375
1488506810.9450669289,1488506810.9473628998,        0.5913085938,        0.0507812500,       -0.2006835938,       -1.3275146484,        4.2877197266,      -18.9208984375
1488506810.9476399422,1488506810.9499371052,        0.5913085938,        0.0507812500,       -0.2006835938,       -1.2512207031,        4.2572021484,      -19.2565917969
1488506810.9502151012,1488506810.9525129795,        0.5971679688,        0.0561523438,       -0.2060546875,       -1.2512207031,        4.2572021484,      -19.2565917969
1488506810.9527919292,1488506810.9550869465,        0.5971679688,        0.0561523438,       -0.2060546875,       -1.5258789062,        4.8675537109,      -19.7143554688
1488506810.9553658962,1488506810.9576640129,        0.5971679688,        0.0561523438,       -0.2060546875,       -1.5258789062,        4.8675537109,      -19.7143554688
1488506810.9579410553,1488506810.9602360725,        0.5971679688,        0.0561523438,       -0.2060546875,       -0.5798339844,        5.0659179688,      -20.4772949219
1488506810.9605150223,1488506810.9630029202,        0.5786132812,        0.0439453125,       -0.2231445312,       -0.5798339844,        5.0659179688,      -20.4772949219
1488506810.9632830620,1488506810.9655790329,        0.5786132812,        0.0439453125,       -0.2231445312,       -0.7324218750,        5.6915283203,      -21.3623046875
1488506810.9658589363,1488506810.9681560993,        0.5786132812,        0.0439453125,       -0.2231445312,       -0.7324218750,        5.6915283203,      -21.3623046875
1488506810.9684350491,1488506810.9707350731,        0.5786132812,        0.0439453125,       -0.2231445312,       -1.0528564453,        5.9356689453,      -22.3541259766
1488506810.9710121155,1488506810.9734721184,        0.5971679688,        0.0122070312,       -0.2275390625,       -1.0528564453,        5.9356689453,      -22.3541259766
1488506810.9737570286,1488506810.9761590958,        0.5971679688,        0.0122070312,       -0.2275390625,        0.3356933594,        5.6457519531,      -23.5290527344
1488506810.9764440060,1488506810.9788479805,        0.5971679688,        0.0122070312,       -0.2275390625,        0.3356933594,        5.6457519531,      -23.5290527344
1488506810.9791328907,1488506810.9815330505,        0.5971679688,        0.0122070312,       -0.2275390625,        1.0375976562,        5.7373046875,      -24.6276855469
1488506810.9818251133,1488506810.9842309952,        0.6206054688,        0.0366210938,       -0.2221679688,        1.0375976562,        5.7373046875,      -24.6276855469
1488506810.9845170975,1488506810.9869120121,        0.6206054688,        0.0366210938,       -0.2221679688,        0.8392333984,        5.9967041016,      -25.3906250000
1488506810.9871990681,1488506810.9895939827,        0.6206054688,        0.0366210938,       -0.2221679688,        0.8392333984,        5.9967041016,      -25.3906250000
1488506810.9898760319,1488506810.9923219681,        0.6206054688,        0.0366210938,       -0.1987304688,       -0.6866455078,        5.7678222656,      -25.8331298828
1488506810.9927210808,1488506810.9951219559,        0.6025390625,        0.0864257812,       -0.1987304688,       -0.6866455078,        5.7678222656,      -25.8331298828
1488506810.9954071045,1488506810.9978051186,        0.6025390625,        0.0864257812,       -0.1987304688,       -2.4261474609,        6.0882568359,      -25.5432128906
1488506810.9980878830,1488506811.0004940033,        0.6025390625,        0.0864257812,       -0.1987304688,       -2.4261474609,        6.0882568359,      -25.5432128906
1488506811.0007779598,1488506811.0031299591,        0.5937500000,        0.0693359375,       -0.2006835938,       -3.0364990234,        6.2103271484,      -25.0701904297
1488506811.0034101009,1488506811.0057060719,        0.5937500000,        0.0693359375,       -0.2006835938,       -3.0364990234,        6.2103271484,      -25.0701904297
1488506811.0059869289,1488506811.0083661079,        0.5937500000,        0.0693359375,       -0.2006835938,       -3.0364990234,        5.9356689453,      -25.0549316406
1488506811.0086450577,1488506811.0109341145,        0.5937500000,        0.0693359375,       -0.2006835938,       -2.7770996094,        5.9356689453,      -25.0549316406
1488506811.0112130642,1488506811.0137109756,        0.5996093750,        0.0590820312,       -0.1962890625,       -2.7770996094,        6.4544677734,      -25.9399414062
1488506811.0139989853,1488506811.0164160728,        0.5996093750,        0.0590820312,       -0.1962890625,       -2.3498535156,        6.4544677734,      -25.9399414062
1488506811.0167019367,1488506811.0191149712,        0.5996093750,        0.0590820312,       -0.1962890625,       -2.3498535156,        6.4849853516,      -26.5350341797
1488506811.0194010735,1488506811.0218338966,        0.5996093750,        0.0590820312,       -0.1962890625,       -2.1057128906,        6.4849853516,      -26.5350341797
1488506811.0221219063,1488506811.0245380402,        0.5996093750,        0.0766601562,       -0.2031250000,       -2.1057128906,        6.6223144531,      -26.9927978516
1488506811.0248250961,1488506811.0272469521,        0.5996093750,        0.0766601562,       -0.2031250000,       -2.0141601562,        6.6223144531,      -26.9927978516
1488506811.0275340080,1488506811.0300340652,        0.5996093750,        0.0766601562,       -0.2031250000,       -2.0141601562,        7.0800781250,      -27.9083251953
1488506811.0303220749,1488506811.0330410004,        0.5996093750,        0.0766601562,       -0.1962890625,       -2.5024414062,        7.0800781250,      -27.9083251953
1488506811.0333309174,1488506811.0357530117,        0.5888671875,        0.0747070312,       -0.1962890625,       -2.8381347656,        7.1868896484,      -28.2592773438
1488506811.0360391140,1488506811.0384559631,        0.5888671875,        0.0747070312,       -0.1962890625,       -2.8381347656,        7.1868896484,      -28.2592773438
1488506811.0387399197,1488506811.0411570072,        0.5888671875,        0.0747070312,       -0.1962890625,       -2.8381347656,        7.2631835938,      -29.1290283203
1488506811.0414409637,1488506811.0438990593,        0.6044921875,        0.0737304688,       -0.2084960938,       -3.2348632812,        7.2631835938,      -29.1290283203
1488506811.0441839695,1488506811.0465989113,        0.6044921875,        0.0737304688,       -0.2084960938,       -3.2348632812,        7.1868896484,      -29.2510986328
1488506811.0468850136,1488506811.0493030548,        0.6044921875,        0.0737304688,       -0.2084960938,       -3.5400390625,        7.1868896484,      -29.2510986328
1488506811.0495889187,1488506811.0520091057,        0.6044921875,        0.0737304688,       -0.2084960938,       -7.4462890625,        7.1563720703,      -29.6936035156
1488506811.0522871017,1488506811.0545771122,        0.5937500000,        0.0703125000,       -0.2133789062,       -4.4097900391,        7.1563720703,      -29.6936035156
1488506811.0548570156,1488506811.0571548939,        0.5937500000,        0.0703125000,       -0.2133789062,       -4.4097900391,        7.4462890625,      -30.4107666016
1488506811.0575430393,1488506811.0598409176,        0.5937500000,        0.0703125000,       -0.2133789062,       -4.9743652344,        7.4462890625,      -30.4107666016
1488506811.0601220131,1488506811.0624690056,        0.5937500000,        0.0703125000,       -0.2133789062,       -4.9743652344,       11.3525390625,      -31.6925048828
1488506811.0627529621,1488506811.0650451183,        0.6147460938,        0.0522460938,       -0.2221679688,       -5.3710937500,        7.9803466797,      -31.6925048828
1488506811.0653240681,1488506811.0676150322,        0.6147460938,        0.0522460938,       -0.2221679688,       -5.3710937500,        7.9803466797,      -32.6080322266
1488506811.0678930283,1488506811.0701889992,        0.6147460938,        0.0522460938,       -0.2221679688,       -5.3100585938,        8.3770751953,      -32.6080322266
1488506811.0704679489,1488506811.0727701187,        0.6147460938,        0.0522460938,       -0.2236328125,       -5.3100585938,        8.3770751953,      -32.6080322266
1488506811.0730490685,1488506811.0753419399,        0.6254882812,        0.0239257812,       -0.2236328125,       -4.3640136719,        8.3160400391,      -33.6456298828
1488506811.0756199360,1488506811.0779240131,        0.6254882812,        0.0239257812,       -0.2236328125,       -4.3640136719,        8.3160400391,      -33.6456298828
1488506811.0782020092,1488506811.0804951191,        0.6254882812,        0.0239257812,       -0.2236328125,       -3.6621093750,        8.6212158203,      -34.3933105469
1488506811.0807719231,1488506811.0831949711,        0.6254882812,        0.0239257812,       -0.2099609375,       -3.6621093750,        8.6212158203,      -34.3933105469
1488506811.0834751129,1488506811.0857670307,        0.6152343750,        0.0668945312,       -0.2099609375,       -3.1433105469,        8.9721679688,      -35.5682373047
1488506811.0860450268,1488506811.0883378983,        0.6152343750,        0.0668945312,       -0.2099609375,       -3.1433105469,        8.9721679688,      -35.5682373047
1488506811.0886180401,1488506811.0909149647,        0.6152343750,        0.0668945312,       -0.2099609375,       -3.1433105469,        9.0179443359,      -36.3159179688
1488506811.0911960602,1488506811.0935800076,        0.6152343750,        0.1064453125,       -0.1889648438,       -3.1433105469,        9.0179443359,      -36.3159179688
1488506811.0938599110,1488506811.0961530209,        0.6166992188,        0.1064453125,       -0.1889648438,       -3.5247802734,        8.5906982422,      -37.0025634766
1488506811.0964319706,1488506811.0987288952,        0.6166992188,        0.1064453125,       -0.1889648438,       -3.5247802734,        8.5906982422,      -37.0025634766
1488506811.0990080833,1488506811.1012990475,        0.6166992188,        0.1064453125,       -0.1889648438,       -4.1656494141,        8.1176757812,      -37.1856689453
1488506811.1015770435,1488506811.1039628983,        0.6186523438,        0.1035156250,       -0.1840820312,       -4.1656494141,        8.1176757812,      -37.1856689453
1488506811.1042470932,1488506811.1066279411,        0.6186523438,        0.1035156250,       -0.1840820312,       -4.6997070312,        7.5378417969,      -36.7736816406
1488506811.1069099903,1488506811.1093940735,        0.6186523438,        0.1035156250,       -0.1840820312,       -4.6997070312,        7.5378417969,      -36.7736816406
1488506811.1096830368,1488506811.1121160984,        0.6186523438,        0.1035156250,       -0.1840820312,       -3.6926269531,        7.5683593750,      -37.0483398438
1488506811.1124029160,1488506811.1148219109,        0.6015625000,        0.0971679688,       -0.1708984375,       -3.6926269531,        7.5683593750,      -37.0483398438
1488506811.1151080132,1488506811.1175251007,        0.6015625000,        0.0971679688,       -0.1708984375,       -3.1127929688,        7.6293945312,      -38.1927490234
1488506811.1178109646,1488506811.1202330589,        0.6015625000,        0.0971679688,       -0.1708984375,       -3.1127929688,        7.6293945312,      -38.1927490234
1488506811.1206200123,1488506811.1230430603,        0.6015625000,        0.0971679688,       -0.1708984375,       -3.5095214844,        7.3547363281,      -38.4063720703
1488506811.1233279705,1488506811.1257479191,        0.6079101562,        0.1240234375,       -0.1708984375,       -3.5095214844,        7.3547363281,      -38.4063720703
1488506811.1260340214,1488506811.1284480095,        0.6079101562,        0.1240234375,       -0.1708984375,       -3.9825439453,        6.9580078125,      -37.9028320312
1488506811.1287341118,1488506811.1311469078,        0.6079101562,        0.1240234375,       -0.1708984375,       -3.9825439453,        6.9580078125,      -37.9028320312
1488506811.1314320564,1488506811.1338949203,        0.6079101562,        0.1333007812,       -0.1708984375,       -4.0130615234,        7.0343017578,      -38.4826660156
1488506811.1341810226,1488506811.1366031170,        0.5961914062,        0.1333007812,       -0.1708984375,       -4.0130615234,        7.0343017578,      -38.4826660156
1488506811.1368880272,1488506811.1393039227,        0.5961914062,        0.1333007812,       -0.1708984375,       -3.7231445312,        7.0190429688,      -39.2608642578
1488506811.1395909786,1488506811.1420109272,        0.5961914062,        0.1333007812,       -0.1708984375,       -3.7231445312,        7.0190429688,      -39.2608642578
1488506811.1422889233,1488506811.1445798874,        0.5830078125,        0.1494140625,       -0.1767578125,       -4.0435791016,        6.5765380859,      -39.5965576172
1488506811.1448569298,1488506811.1471569538,        0.5830078125,        0.1494140625,       -0.1767578125,       -4.0435791016,        6.5765380859,      -39.5965576172
1488506811.1474320889,1488506811.1498420238,        0.5830078125,        0.1494140625,       -0.1767578125,       -4.0435791016,        5.9204101562,      -39.9780273438
1488506811.1501209736,1488506811.1529219151,        0.5830078125,        0.1494140625,       -0.1767578125,       -4.5776367188,        5.9204101562,      -39.9780273438
1488506811.1532080173,1488506811.1556320190,        0.5810546875,        0.1562500000,       -0.1870117188,       -5.6610107422,        6.1645507812,      -40.3594970703
1488506811.1559200287,1488506811.1583409309,        0.5810546875,        0.1562500000,       -0.1870117188,       -5.6610107422,        6.1645507812,      -40.3594970703
1488506811.1586248875,1488506811.1610519886,        0.5810546875,        0.1562500000,       -0.1870117188,       -6.5002441406,        5.9509277344,      -39.7491455078
1488506811.1613368988,1488506811.1637659073,        0.5810546875,        0.1562500000,       -0.1997070312,       -6.5002441406,        5.9509277344,      -39.7491455078
1488506811.1640510559,1488506811.1664659977,        0.5844726562,        0.1396484375,       -0.1997070312,       -7.5378417969,        5.8593750000,      -40.3289794922
1488506811.1667509079,1488506811.1691730022,        0.5844726562,        0.1396484375,       -0.1997070312,       -7.5378417969,        5.8593750000,      -40.3289794922
1488506811.1694591045,1488506811.1719119549,        0.5844726562,        0.1396484375,       -0.1997070312,       -8.0261230469,        5.3558349609,      -40.6188964844
1488506811.1721971035,1488506811.1746139526,        0.5844726562,        0.1103515625,       -0.1884765625,       -8.0261230469,        5.3558349609,      -40.6188964844
1488506811.1749010086,1488506811.1773231030,        0.5805664062,        0.1103515625,       -0.1884765625,       -7.2784423828,        4.7149658203,      -40.2984619141
1488506811.1776089668,1488506811.1800239086,        0.5805664062,        0.1103515625,       -0.1884765625,       -7.2784423828,        4.7149658203,      -40.2984619141
1488506811.1803090572,1488506811.1826889515,        0.5805664062,        0.1103515625,       -0.1884765625,       -7.2784423828,        4.0893554688,      -40.5273437500
1488506811.1829679012,1488506811.1852529049,        0.6049804688,        0.1064453125,       -0.1909179688,       -6.7749023438,        4.0893554688,      -40.5273437500
1488506811.1855320930,1488506811.1878249645,        0.6049804688,        0.1064453125,       -0.1909179688,       -6.7749023438,        3.7078857422,      -40.4510498047
1488506811.1882081032,1488506811.1905069351,        0.6049804688,        0.1064453125,       -0.1909179688,       -6.3323974609,        3.7078857422,      -40.4510498047
1488506811.1907858849,1488506811.1930930614,        0.6049804688,        0.1064453125,       -0.1909179688,       -6.3323974609,        3.7078857422,      -40.4052734375
1488506811.1933729649,1488506811.1956620216,        0.5957031250,        0.1430664062,       -0.1879882812,       -5.1422119141,        3.4637451172,      -40.4052734375
1488506811.1959390640,1488506811.1982359886,        0.5957031250,        0.1430664062,       -0.1879882812,       -5.1422119141,        3.4637451172,      -39.2608642578
1488506811.1985139847,1488506811.2008090019,        0.5957031250,        0.1430664062,       -0.1879882812,       -4.3029785156,        2.9144287109,      -39.2608642578
1488506811.2010860443,1488506811.2035570145,        0.5957031250,        0.1430664062,       -0.1879882812,       -4.3029785156,        2.9144287109,      -35.3546142578
1488506811.2038350105,1488506811.2061278820,        0.5825195312,        0.2055664062,       -0.1616210938,       -4.1503906250,        2.2583007812,      -37.6129150391
1488506811.2064061165,1488506811.2087819576,        0.5825195312,        0.2055664062,       -0.1616210938,       -4.1503906250,        2.2583007812,      -37.6129150391
1488506811.2090609074,1488506811.2113559246,        0.5825195312,        0.2055664062,       -0.1616210938,       -4.2877197266,        1.8920898438,      -35.9802246094
1488506811.2116339207,1488506811.2140629292,        0.5825195312,        0.2055664062,       -0.1616210938,       -4.2877197266,        1.8920898438,      -35.9802246094
1488506811.2143499851,1488506811.2167661190,        0.5708007812,        0.2475585938,       -0.1416015625,       -4.4860839844,        1.6174316406,      -34.4848632812
1488506811.2170510292,1488506811.2194709778,        0.5708007812,        0.2475585938,       -0.1416015625,       -4.4860839844,        1.6174316406,      -34.4848632812
1488506811.2197558880,1488506811.2221889496,        0.5708007812,        0.2475585938,       -0.1416015625,       -5.2032470703,        0.8850097656,      -32.2723388672
1488506811.2224750519,1488506811.2248990536,        0.5708007812,        0.2573242188,       -0.1318359375,       -5.2032470703,        0.8850097656,      -32.2723388672
1488506811.2251839638,1488506811.2276060581,        0.5634765625,        0.2573242188,       -0.1318359375,       -6.0272216797,        0.9155273438,      -30.1361083984
1488506811.2278919220,1488506811.2303109169,        0.5634765625,        0.2573242188,       -0.1318359375,       -6.0272216797,        0.9155273438,      -30.1361083984
1488506811.2305960655,1488506811.2329640388,        0.5634765625,        0.2573242188,       -0.1318359375,       -6.3781738281,        0.6561279297,      -28.0761718750
1488506811.2332420349,1488506811.2355380058,        0.5454101562,        0.2524414062,       -0.1425781250,       -6.3781738281,        0.6561279297,      -28.0761718750
1488506811.2358150482,1488506811.2381079197,        0.5454101562,        0.2524414062,       -0.1425781250,       -7.0037841797,        0.1831054688,      -26.2145996094
1488506811.2383859158,1488506811.2406830788,        0.5454101562,        0.2524414062,       -0.1425781250,       -7.0037841797,        0.1831054688,      -26.2145996094
1488506811.2409610748,1488506811.2433559895,        0.5454101562,        0.2524414062,       -0.1425781250,       -6.9885253906,        0.0152587891,      -24.2767333984
1488506811.2436408997,1488506811.2460680008,        0.5561523438,        0.2338867188,       -0.1538085938,       -6.9885253906,        0.0152587891,      -24.2767333984
1488506811.2463560104,1488506811.2487769127,        0.5561523438,        0.2338867188,       -0.1538085938,       -6.4697265625,        0.0000000000,      -23.3612060547
1488506811.2490620613,1488506811.2514779568,        0.5561523438,        0.2338867188,       -0.1538085938,       -6.4697265625,        0.0000000000,      -23.3612060547
1488506811.2519319057,1488506811.2543580532,        0.5561523438,        0.2338867188,       -0.1538085938,       -6.6223144531,       -0.0305175781,      -22.0184326172
1488506811.2546451092,1488506811.2570629120,        0.5659179688,        0.2363281250,       -0.1708984375,       -6.6223144531,       -0.0305175781,      -22.0184326172
1488506811.2573499680,1488506811.2597639561,        0.5659179688,        0.2363281250,       -0.1708984375,       -6.6528320312,       -0.0762939453,      -20.8282470703
1488506811.2600479126,1488506811.2625160217,        0.5659179688,        0.2363281250,       -0.1708984375,       -6.6528320312,       -0.0762939453,      -20.8282470703
1488506811.2628018856,1488506811.2652189732,        0.5659179688,        0.2094726562,       -0.1552734375,       -7.1868896484,       -0.4882812500,      -20.4620361328
1488506811.2655050755,1488506811.2680079937,        0.5703125000,        0.2094726562,       -0.1552734375,       -7.1868896484,       -0.4882812500,      -20.4620361328
1488506811.2684550285,1488506811.2708570957,        0.5703125000,        0.2094726562,       -0.1552734375,       -6.7443847656,       -0.4272460938,      -19.8669433594
1488506811.2711429596,1488506811.2738308907,        0.5703125000,        0.2094726562,       -0.1552734375,       -6.7443847656,       -0.4272460938,      -19.8669433594
1488506811.2741189003,1488506811.2765419483,        0.5830078125,        0.1972656250,       -0.1635742188,       -6.0882568359,       -0.0305175781,      -20.0042724609
1488506811.2768290043,1488506811.2798299789,        0.5830078125,        0.1972656250,       -0.1635742188,       -6.0882568359,       -0.0305175781,      -20.0042724609
1488506811.2801210880,1488506811.2825150490,        0.5830078125,        0.1972656250,       -0.1635742188,       -5.6457519531,        0.2746582031,      -20.4467773438
1488506811.2827930450,1488506811.2850840092,        0.5830078125,        0.1972656250,       -0.1616210938,       -5.6457519531,        0.2746582031,      -20.4467773438
1488506811.2853610516,1488506811.2876598835,        0.5668945312,        0.1923828125,       -0.1616210938,       -5.6457519531,        0.7934570312,      -20.6298828125
1488506811.2879381180,1488506811.2902350426,        0.5668945312,        0.1923828125,       -0.1616210938,       -5.6457519531,        0.7934570312,      -20.6298828125
1488506811.2905130386,1488506811.2929100990,        0.5668945312,        0.1923828125,       -0.1616210938,       -5.6915283203,        0.9918212891,      -21.0876464844
1488506811.2931959629,1488506811.2956058979,        0.5668945312,        0.2070312500,       -0.1845703125,       -5.6915283203,        0.9918212891,      -21.0876464844
1488506811.2958910465,1488506811.2982931137,        0.5517578125,        0.2070312500,       -0.1845703125,       -5.5084228516,        1.4038085938,      -21.7590332031
1488506811.2985780239,1488506811.3009769917,        0.5517578125,        0.2070312500,       -0.1845703125,       -5.5084228516,        1.4038085938,      -21.7590332031
1488506811.3012619019,1488506811.3036150932,        0.5517578125,        0.2070312500,       -0.1845703125,       -4.6234130859,        2.0904541016,      -21.6522216797
1488506811.3038918972,1488506811.3061869144,        0.5263671875,        0.2021484375,       -0.1684570312,       -4.6234130859,        2.0904541016,      -21.6522216797
1488506811.3064630032,1488506811.3087620735,        0.5263671875,        0.2021484375,       -0.1684570312,       -3.4637451172,        2.7313232422,      -22.0489501953
1488506811.3090400696,1488506811.3113379478,        0.5263671875,        0.2021484375,       -0.1684570312,       -3.4637451172,        2.7313232422,      -22.0489501953
1488506811.3116159439,1488506811.3139159679,        0.5263671875,        0.2021484375,       -0.1684570312,       -2.9602050781,        3.8299560547,      -22.9339599609
1488506811.3141939640,1488506811.3164858818,        0.4970703125,        0.2387695312,       -0.1875000000,       -2.9602050781,        3.8299560547,      -22.9339599609
1488506811.3168718815,1488506811.3191668987,        0.4970703125,        0.2387695312,       -0.1875000000,       -2.5177001953,        4.1351318359,      -23.2238769531
1488506811.3194439411,1488506811.3218519688,        0.4970703125,        0.2387695312,       -0.1875000000,       -2.5177001953,        4.1351318359,      -23.2238769531
1488506811.3221321106,1488506811.3244290352,        0.4970703125,        0.2387695312,       -0.1875000000,       -2.6092529297,        4.7607421875,      -22.2167968750
1488506811.3247070312,1488506811.3269970417,        0.4970703125,        0.2744140625,       -0.1826171875,       -2.6092529297,        4.7607421875,      -22.2167968750
1488506811.3272750378,1488506811.3295669556,        0.4970703125,        0.2744140625,       -0.1826171875,       -2.6092529297,        4.1809082031,      -21.4843750000
1488506811.3298449516,1488506811.3322279453,        0.4970703125,        0.2744140625,       -0.1826171875,       -3.1738281250,        4.1809082031,      -21.4843750000
1488506811.3325049877,1488506811.3347959518,        0.4970703125,        0.2744140625,       -0.1826171875,       -3.1738281250,        4.0435791016,      -20.1263427734
1488506811.3350739479,1488506811.3373670578,        0.5014648438,        0.2514648438,       -0.1743164062,       -3.7536621094,        4.0435791016,      -20.1263427734
1488506811.3376441002,1488506811.3399391174,        0.5014648438,        0.2514648438,       -0.1743164062,       -3.7536621094,        4.0435791016,      -19.0582275391
1488506811.3402159214,1488506811.3425679207,        0.5014648438,        0.2514648438,       -0.1743164062,       -4.3945312500,        3.7994384766,      -19.0582275391
1488506811.3428530693,1488506811.3452749252,        0.5014648438,        0.2514648438,       -0.1743164062,       -4.3945312500,        3.7994384766,      -19.2871093750
1488506811.3455610275,1488506811.3479828835,        0.5302734375,        0.2392578125,       -0.1528320312,       -4.1961669922,        3.6315917969,      -19.2871093750
1488506811.3482680321,1488506811.3506848812,        0.5302734375,        0.2392578125,       -0.1528320312,       -4.1961669922,        3.6315917969,      -19.0429687500
1488506811.3509719372,1488506811.3534059525,        0.5302734375,        0.2392578125,       -0.1528320312,       -3.9978027344,        3.7078857422,      -19.0429687500
1488506811.3536911011,1488506811.3561100960,        0.5302734375,        0.2392578125,       -0.1552734375,       -3.9978027344,        3.7078857422,      -19.4549560547
1488506811.3563940525,1488506811.3588070869,        0.5761718750,        0.2177734375,       -0.1552734375,       -3.7841796875,        3.7384033203,      -19.4549560547
1488506811.3590910435,1488506811.3615059853,        0.5761718750,        0.2177734375,       -0.1552734375,       -3.7841796875,        3.7384033203,      -20.7061767578
1488506811.3617959023,1488506811.3642120361,        0.5761718750,        0.2177734375,       -0.1552734375,       -3.6163330078,        3.7231445312,      -20.7061767578
1488506811.3644969463,1488506811.3669140339,        0.6191406250,        0.1777343750,       -0.1689453125,       -3.6163330078,        3.7231445312,      -20.7061767578
1488506811.3671989441,1488506811.3696160316,        0.6191406250,        0.1777343750,       -0.1689453125,       -3.5858154297,        3.0975341797,      -22.2015380859
1488506811.3698999882,1488506811.3723359108,        0.6191406250,        0.1777343750,       -0.1689453125,       -3.5858154297,        3.0975341797,      -26.1077880859
1488506811.3726210594,1488506811.3750391006,        0.6191406250,        0.1777343750,       -0.1689453125,       -2.6245117188,        3.0517578125,      -23.5443115234
1488506811.3753240108,1488506811.3777410984,        0.6606445312,        0.1088867188,       -0.1723632812,       -2.6245117188,        3.0517578125,      -23.5443115234
1488506811.3780291080,1488506811.3804440498,        0.6606445312,        0.1088867188,       -0.1723632812,       -2.2735595703,        2.6702880859,      -25.8636474609
1488506811.3808379173,1488506811.3832480907,        0.6606445312,        0.1088867188,       -0.1723632812,       -2.2735595703,        2.6702880859,      -29.7698974609
1488506811.3835260868,1488506811.3858160973,        0.6606445312,        0.1088867188,       -0.1723632812,       -2.6702880859,        2.3651123047,      -28.8391113281
1488506811.3860940933,1488506811.3885800838,        0.7060546875,        0.1088867188,       -0.1845703125,       -2.6702880859,        2.3651123047,      -32.7453613281
1488506811.3888599873,1488506811.3911509514,        0.7060546875,        0.1088867188,       -0.1845703125,       -3.1738281250,        2.0904541016,      -31.4788818359
1488506811.3914289474,1488506811.3941380978,        0.7060546875,        0.1088867188,       -0.1845703125,       -3.1738281250,        2.0904541016,      -35.3851318359
1488506811.3944270611,1488506811.3968310356,        0.7060546875,        0.0917968750,       -0.1665039062,       -2.9449462891,        2.3956298828,      -35.5529785156
1488506811.3971168995,1488506811.3995180130,        0.6948242188,        0.0917968750,       -0.1665039062,       -2.9449462891,        2.3956298828,      -39.4592285156
1488506811.3998041153,1488506811.4022119045,        0.6948242188,        0.0917968750,       -0.1665039062,       -3.1127929688,        2.0599365234,      -39.1387939453
1488506811.4024960995,1488506811.4048819542,        0.6948242188,        0.0917968750,       -0.1665039062,       -3.1127929688,        2.0599365234,      -39.1387939453
1488506811.4051640034,1488506811.4075529575,        0.6562500000,        0.1357421875,       -0.1884765625,       -2.7465820312,        2.0599365234,      -42.6940917969
1488506811.4078369141,1488506811.4103689194,        0.6562500000,        0.1357421875,       -0.1884765625,       -2.7465820312,        2.0599365234,      -46.6003417969
1488506811.4106550217,1488506811.4131178856,        0.6562500000,        0.1357421875,       -0.1884765625,       -2.5634765625,        2.5177001953,      -46.2341308594
1488506811.4134039879,1488506811.4158170223,        0.6562500000,        0.1357421875,       -0.1884765625,       -2.5634765625,        2.5177001953,      -50.1403808594
1488506811.4161019325,1488506811.4185199738,        0.6230468750,        0.1899414062,       -0.1811523438,       -3.1127929688,        2.3040771484,      -48.9959716797
1488506811.4188060760,1488506811.4212179184,        0.6230468750,        0.1899414062,       -0.1811523438,       -3.1127929688,        2.3040771484,      -52.9022216797
1488506811.4215040207,1488506811.4238209724,        0.6230468750,        0.1899414062,       -0.1811523438,       -3.7231445312,        1.9683837891,      -50.9033203125
1488506811.4241011143,1488506811.4263939857,        0.6230468750,        0.1899414062,       -0.1904296875,       -3.7231445312,        1.9683837891,      -50.9033203125
1488506811.4266729355,1488506811.4289610386,        0.6240234375,        0.1894531250,       -0.1904296875,       -3.7536621094,        1.8310546875,      -52.9022216797
1488506811.4292380810,1488506811.4315259457,        0.6240234375,        0.1894531250,       -0.1904296875,       -3.7536621094,        1.8310546875,      -52.9022216797
1488506811.4318010807,1488506811.4340939522,        0.6240234375,        0.1894531250,       -0.1904296875,       -3.3874511719,        1.9836425781,      -54.4281005859
1488506811.4343719482,1488506811.4366610050,        0.6240234375,        0.1894531250,       -0.1894531250,       -3.3874511719,        1.9836425781,      -54.4281005859
1488506811.4369390011,1488506811.4392330647,        0.6142578125,        0.1894531250,       -0.1894531250,       -3.5858154297,        1.7852783203,      -56.2133789062
1488506811.4395101070,1488506811.4419000149,        0.6142578125,        0.1894531250,       -0.1894531250,       -3.5858154297,        1.7852783203,      -56.2133789062
1488506811.4421980381,1488506811.4445009232,        0.6142578125,        0.1894531250,       -0.1894531250,       -4.0588378906,        1.9073486328,      -58.4411621094
1488506811.4448900223,1488506811.4471790791,        0.6142578125,        0.1728515625,       -0.1684570312,       -4.0588378906,        1.9073486328,      -58.4411621094
1488506811.4474558830,1488506811.4497489929,        0.6196289062,        0.1728515625,       -0.1684570312,       -4.5013427734,        2.3345947266,      -60.0128173828
1488506811.4500260353,1488506811.4524469376,        0.6196289062,        0.1728515625,       -0.1684570312,       -4.5013427734,        2.3345947266,      -60.0128173828
1488506811.4527339935,1488506811.4551520348,        0.6196289062,        0.1728515625,       -0.1684570312,       -3.4942626953,        3.0517578125,      -61.6455078125
1488506811.4554359913,1488506811.4578568935,        0.5605468750,        0.2099609375,       -0.1533203125,       -3.4942626953,        3.0517578125,      -61.6455078125
1488506811.4581410885,1488506811.4605569839,        0.5605468750,        0.2099609375,       -0.1533203125,       -1.6479492188,        3.7384033203,      -63.1561279297
1488506811.4608418941,1488506811.4633018970,        0.5605468750,        0.2099609375,       -0.1533203125,       -1.6479492188,        3.7384033203,      -63.1561279297
1488506811.4635860920,1488506811.4660050869,        0.5605468750,        0.2099609375,       -0.1533203125,       -1.2359619141,        3.7384033203,      -64.1937255859
1488506811.4662919044,1488506811.4687058926,        0.5004882812,        0.3481445312,       -0.1870117188,       -1.2359619141,        3.7384033203,      -64.1937255859
1488506811.4689919949,1488506811.4714078903,        0.5004882812,        0.3481445312,       -0.1870117188,       -2.6550292969,        3.2501220703,      -63.6901855469
1488506811.4717020988,1488506811.4741179943,        0.5004882812,        0.3481445312,       -0.1870117188,       -2.6550292969,        3.2501220703,      -63.6901855469
1488506811.4744029045,1488506811.4768209457,        0.5004882812,        0.3481445312,       -0.1870117188,       -5.3405761719,        2.1209716797,      -60.8673095703
1488506811.4771049023,1488506811.4795210361,        0.4721679688,        0.3823242188,       -0.1840820312,       -5.3405761719,        2.1209716797,      -60.8673095703
1488506811.4798059464,1488506811.4821949005,        0.4721679688,        0.3823242188,       -0.1840820312,       -7.1105957031,        0.6103515625,      -58.9752197266
1488506811.4824750423,1488506811.4847669601,        0.4721679688,        0.3823242188,       -0.1840820312,       -7.1105957031,        0.6103515625,      -58.9752197266
1488506811.4850440025,1488506811.4873330593,        0.4721679688,        0.2573242188,       -0.1933593750,      -11.0168457031,        0.0152587891,      -57.5714111328
1488506811.4876160622,1488506811.4899070263,        0.5131835938,        0.3408203125,       -0.1933593750,       -9.8266601562,        0.0152587891,      -57.5714111328
1488506811.4901869297,1488506811.4925479889,        0.5131835938,        0.3408203125,       -0.1933593750,       -9.8266601562,       -3.8909912109,      -57.3272705078
1488506811.4928278923,1488506811.4951128960,        0.5131835938,        0.3408203125,       -0.1933593750,      -12.0391845703,       -0.8850097656,      -57.3272705078
1488506811.4953939915,1488506811.4976840019,        0.5131835938,        0.2734375000,       -0.1694335938,      -12.0391845703,       -0.8850097656,      -56.4880371094
1488506811.4979650974,1488506811.5002489090,        0.5488281250,        0.2734375000,       -0.1694335938,      -14.3585205078,       -2.9296875000,      -56.4880371094
1488506811.5005300045,1488506811.5029680729,        0.5488281250,        0.2734375000,       -0.1694335938,      -14.3585205078,       -2.9296875000,      -56.4880371094
1488506811.5032498837,1488506811.5055429935,        0.5488281250,        0.2734375000,       -0.1694335938,      -14.7705078125,       -3.7078857422,      -55.9539794922
1488506811.5058240891,1488506811.5082089901,        0.5810546875,        0.2719726562,       -0.1831054688,      -14.7705078125,       -3.7078857422,      -55.9539794922
1488506811.5086030960,1488506811.5109291077,        0.5810546875,        0.2719726562,       -0.1831054688,      -14.1754150391,       -5.1116943359,      -56.2896728516
1488506811.5112130642,1488506811.5138459206,        0.5810546875,        0.2719726562,       -0.1831054688,      -14.1754150391,       -5.1116943359,      -56.2896728516
1488506811.5141289234,1488506811.5164210796,        0.5810546875,        0.2719726562,       -0.1831054688,      -13.6108398438,       -5.9967041016,      -56.9000244141
1488506811.5167019367,1488506811.5189878941,        0.6328125000,        0.3027343750,       -0.1689453125,      -13.6108398438,       -5.9967041016,      -56.9000244141
1488506811.5192689896,1488506811.5215580463,        0.6328125000,        0.3027343750,       -0.1689453125,      -12.8784179688,       -6.2255859375,      -57.9071044922
1488506811.5218379498,1488506811.5241270065,        0.6328125000,        0.3027343750,       -0.1689453125,      -12.8784179688,       -6.2255859375,      -57.9071044922
1488506811.5244081020,1488506811.5266969204,        0.6328125000,        0.3027343750,       -0.1689453125,      -12.6953125000,       -6.3323974609,      -59.2041015625
1488506811.5269780159,1488506811.5292708874,        0.6606445312,        0.2993164062,       -0.1362304688,      -12.6953125000,       -6.3323974609,      -59.2041015625
1488506811.5295529366,1488506811.5318911076,        0.6606445312,        0.2993164062,       -0.1362304688,      -12.3291015625,       -5.5999755859,      -59.9670410156
1488506811.5321719646,1488506811.5344638824,        0.6606445312,        0.2993164062,       -0.1362304688,      -12.3291015625,       -5.5999755859,      -59.9670410156
1488506811.5347440243,1488506811.5370349884,        0.6606445312,        0.2993164062,       -0.1362304688,      -12.6800537109,       -4.4708251953,      -61.0198974609
1488506811.5373179913,1488506811.5396060944,        0.6850585938,        0.2685546875,       -0.1147460938,      -12.6800537109,       -4.4708251953,      -61.0198974609
1488506811.5398900509,1488506811.5421879292,        0.6850585938,        0.2685546875,       -0.1147460938,      -11.9323730469,       -3.6773681641,      -62.3321533203
1488506811.5424718857,1488506811.5447680950,        0.6850585938,        0.2685546875,       -0.1147460938,      -11.9323730469,       -3.6773681641,      -62.3321533203
1488506811.5450489521,1488506811.5473461151,        0.6850585938,        0.2685546875,       -0.1147460938,       -8.0261230469,       -2.1972656250,      -63.3850097656
1488506811.5476260185,1488506811.5499188900,        0.6147460938,        0.2622070312,       -0.1040039062,      -10.4064941406,       -2.1972656250,      -63.3850097656
1488506811.5502009392,1488506811.5525128841,        0.6147460938,        0.2622070312,       -0.1040039062,      -10.4064941406,       -2.1972656250,      -64.6209716797
1488506811.5527958870,1488506811.5550940037,        0.6147460938,        0.2622070312,       -0.1040039062,       -8.0413818359,       -2.0751953125,      -64.6209716797
1488506811.5553729534,1488506811.5576729774,        0.6147460938,        0.2622070312,       -0.2290039062,       -8.0413818359,       -2.0751953125,      -65.0024414062
1488506811.5579500198,1488506811.5602469444,        0.5332031250,        0.3330078125,       -0.1503906250,       -4.9133300781,       -2.1514892578,      -65.0024414062
1488506811.5605239868,1488506811.5629689693,        0.5332031250,        0.3330078125,       -0.1503906250,       -4.9133300781,       -2.1514892578,      -66.4520263672
1488506811.5632469654,1488506811.5655400753,        0.5332031250,        0.3330078125,       -0.1503906250,       -3.8909912109,        0.9918212891,      -66.4520263672
1488506811.5658199787,1488506811.5681149960,        0.5332031250,        0.4580078125,       -0.1796875000,       -3.8909912109,        0.9918212891,      -66.4520263672
1488506811.5683929920,1488506811.5706810951,        0.5024414062,        0.3974609375,       -0.1796875000,       -2.6092529297,        1.3122558594,      -66.1315917969
1488506811.5710649490,1488506811.5736279488,        0.5024414062,        0.3974609375,       -0.1796875000,       -2.6092529297,        1.3122558594,      -66.1315917969
1488506811.5739140511,1488506811.5763330460,        0.5024414062,        0.3974609375,       -0.1796875000,       -2.3956298828,        2.9449462891,      -65.8416748047
1488506811.5766189098,1488506811.5790340900,        0.4697265625,        0.3745117188,       -0.2021484375,       -2.3956298828,        2.9449462891,      -65.8416748047
1488506811.5793190002,1488506811.5817489624,        0.4697265625,        0.3745117188,       -0.2021484375,       -2.9754638672,        2.7618408203,      -65.1397705078
1488506811.5820269585,1488506811.5843219757,        0.4697265625,        0.3745117188,       -0.2021484375,       -2.9754638672,        2.7618408203,      -65.1397705078
1488506811.5846009254,1488506811.5870049000,        0.4697265625,        0.3745117188,       -0.2021484375,       -3.7384033203,        3.0059814453,      -64.0869140625
1488506811.5872840881,1488506811.5895829201,        0.4487304688,        0.3647460938,       -0.2045898438,       -3.7384033203,        3.0059814453,      -64.0869140625
1488506811.5898621082,1488506811.5922579765,        0.4487304688,        0.3647460938,       -0.2045898438,       -4.1503906250,        3.3111572266,      -63.8275146484
1488506811.5925409794,1488506811.5949270725,        0.4487304688,        0.3647460938,       -0.2045898438,       -4.1503906250,        3.3111572266,      -63.8275146484
1488506811.5952088833,1488506811.5986099243,        0.4487304688,        0.3647460938,       -0.2045898438,       -4.1809082031,        3.0822753906,      -63.3697509766
1488506811.5988919735,1488506811.6011850834,        0.4277343750,        0.3842773438,       -0.2226562500,       -4.1809082031,        3.0822753906,      -62.4847412109
1488506811.6014618874,1488506811.6038250923,        0.4277343750,        0.3842773438,       -0.2226562500,       -4.5166015625,        3.1280517578,      -62.4847412109
1488506811.6041030884,1488506811.6063899994,        0.4277343750,        0.3842773438,       -0.2226562500,       -4.5166015625,        3.1280517578,      -62.4847412109
1488506811.6066670418,1488506811.6089560986,        0.4277343750,        0.4165039062,       -0.2250976562,       -4.8522949219,        3.6621093750,      -61.4471435547
1488506811.6092340946,1488506811.6115291119,        0.4506835938,        0.4165039062,       -0.2250976562,       -4.8522949219,        3.6621093750,      -61.4471435547
1488506811.6118059158,1488506811.6140949726,        0.4506835938,        0.4165039062,       -0.2250976562,       -6.4392089844,        4.3792724609,      -59.3261718750
1488506811.6143739223,1488506811.6166639328,        0.4506835938,        0.4165039062,       -0.2250976562,       -6.4392089844,        4.3792724609,      -59.3261718750
1488506811.6169409752,1488506811.6192328930,        0.4506835938,        0.4101562500,       -0.1831054688,       -6.8206787109,        3.5400390625,      -57.7087402344
1488506811.6195108891,1488506811.6218020916,        0.4497070312,        0.4101562500,       -0.1831054688,       -6.8206787109,        3.5400390625,      -57.7087402344
1488506811.6220800877,1488506811.6243729591,        0.4497070312,        0.4101562500,       -0.1831054688,       -7.7667236328,        3.4027099609,      -57.0983886719
1488506811.6246519089,1488506811.6269381046,        0.4497070312,        0.4101562500,       -0.1831054688,       -7.7667236328,        3.4027099609,      -57.0983886719
1488506811.6272170544,1488506811.6295049191,        0.4897460938,        0.3940429688,       -0.1621093750,       -8.0566406250,        4.0283203125,      -56.7169189453
1488506811.6297841072,1488506811.6321129799,        0.4897460938,        0.3940429688,       -0.1621093750,       -8.0566406250,        4.0283203125,      -56.7169189453
1488506811.6323909760,1488506811.6346778870,        0.4897460938,        0.3940429688,       -0.1621093750,       -7.0953369141,        4.6844482422,      -56.5643310547
1488506811.6350669861,1488506811.6373629570,        0.4897460938,        0.3940429688,       -0.1621093750,       -7.0953369141,        4.6844482422,      -56.5643310547
1488506811.6376419067,1488506811.6399300098,        0.5332031250,        0.3920898438,       -0.1450195312,       -5.9356689453,        5.6762695312,      -55.9082031250
1488506811.6402089596,1488506811.6426339149,        0.5332031250,        0.3920898438,       -0.1450195312,       -5.9356689453,        5.6762695312,      -55.9082031250
1488506811.6429131031,1488506811.6452069283,        0.5332031250,        0.3920898438,       -0.1450195312,       -2.0294189453,        6.8206787109,      -56.1981201172
1488506811.6454849243,1488506811.6477799416,        0.5332031250,        0.3920898438,       -0.1450195312,       -3.7384033203,        6.8206787109,      -56.1981201172
1488506811.6480579376,1488506811.6503589153,        0.5356445312,        0.3862304688,       -0.1147460938,       -3.7384033203,       10.7269287109,      -56.5948486328
1488506811.6506409645,1488506811.6531150341,        0.5356445312,        0.3862304688,       -0.1147460938,       -1.3580322266,        8.0413818359,      -56.5948486328
1488506811.6534039974,1488506811.6558229923,        0.5356445312,        0.3862304688,       -0.1147460938,       -1.3580322266,        8.0413818359,      -56.5948486328
1488506811.6561079025,1488506811.6585249901,        0.5356445312,        0.3862304688,       -0.1147460938,        0.2441406250,        8.9569091797,      -56.5948486328
1488506811.6588110924,1488506811.6612250805,        0.5053710938,        0.4008789062,       -0.1147460938,        0.2441406250,        8.9569091797,      -56.4422607422
1488506811.6615109444,1488506811.6639380455,        0.5053710938,        0.4008789062,       -0.1147460938,        2.4871826172,        9.8419189453,      -56.4422607422
1488506811.6642229557,1488506811.6666400433,        0.5053710938,        0.4008789062,       -0.1147460938,        2.4871826172,        9.8419189453,      -55.9539794922
1488506811.6669270992,1488506811.6693429947,        0.5053710938,        0.4008789062,       -0.1162109375,        4.8675537109,       10.0097656250,      -55.9539794922
1488506811.6696329117,1488506811.6720929146,        0.4672851562,        0.4296875000,       -0.1162109375,        4.8675537109,       10.0097656250,      -55.9387207031
1488506811.6723821163,1488506811.6748020649,        0.4672851562,        0.4296875000,       -0.1162109375,        6.3934326172,       10.7879638672,      -55.9387207031
1488506811.6750900745,1488506811.6775090694,        0.4672851562,        0.4296875000,       -0.1162109375,        6.3934326172,       10.7879638672,      -56.1981201172
1488506811.6777980328,1488506811.6802120209,        0.4082031250,        0.4223632812,       -0.1342773438,        7.4920654297,       12.9852294922,      -56.1981201172
1488506811.6805019379,1488506811.6828720570,        0.4082031250,        0.4223632812,       -0.1342773438,        7.4920654297,       12.9852294922,      -55.3741455078
1488506811.6831541061,1488506811.6854429245,        0.4082031250,        0.4223632812,       -0.1342773438,        8.3312988281,       12.5122070312,      -55.3741455078
1488506811.6857240200,1488506811.6880130768,        0.4082031250,        0.4223632812,       -0.1342773438,        8.3312988281,       12.5122070312,      -51.4678955078
1488506811.6882939339,1488506811.6905839443,        0.3530273438,        0.4521484375,       -0.1235351562,        9.6740722656,       10.5743408203,      -53.7567138672
1488506811.6908659935,1488506811.6932110786,        0.3530273438,        0.4521484375,       -0.1235351562,        9.6740722656,       10.5743408203,      -53.7567138672
1488506811.6934919357,1488506811.6957859993,        0.3530273438,        0.4521484375,       -0.1235351562,       10.3759765625,        8.2855224609,      -51.6815185547
1488506811.6960690022,1488506811.6983609200,        0.3530273438,        0.4521484375,       -0.1235351562,       10.3759765625,        8.2855224609,      -51.6815185547
1488506811.6987519264,1488506811.7010459900,        0.3745117188,        0.4941406250,       -0.1416015625,        9.2010498047,        6.8206787109,      -49.6215820312
1488506811.7013239861,1488506811.7038590908,        0.3745117188,        0.4941406250,       -0.1416015625,        9.2010498047,        6.8206787109,      -49.6215820312
1488506811.7041471004,1488506811.7065529823,        0.3745117188,        0.4941406250,       -0.1416015625,        8.1634521484,        6.8664550781,      -49.4232177734
1488506811.7068378925,1488506811.7093079090,        0.3745117188,        0.4941406250,       -0.0166015625,        8.1634521484,        6.8664550781,      -49.4232177734
1488506811.7095940113,1488506811.7120060921,        0.3999023438,        0.4829101562,       -0.1186523438,        6.6223144531,        6.3934326172,      -48.9196777344
1488506811.7127330303,1488506811.7151520252,        0.3999023438,        0.4829101562,       -0.1186523438,        6.6223144531,        6.3934326172,      -45.0134277344
1488506811.7154400349,1488506811.7178609371,        0.3999023438,        0.4829101562,       -0.1186523438,        4.9133300781,        6.7749023438,      -45.9594726562
1488506811.7181470394,1488506811.7205610275,        0.4257812500,        0.4565429688,       -0.1137695312,        4.9133300781,        6.7749023438,      -45.9594726562
1488506811.7208459377,1488506811.7233150005,        0.4257812500,        0.4565429688,       -0.1137695312,        6.5307617188,        6.4086914062,      -44.0979003906
1488506811.7236020565,1488506811.7260220051,        0.4257812500,        0.4565429688,       -0.1137695312,        6.5307617188,        6.4086914062,      -44.0979003906
1488506811.7263059616,1488506811.7287290096,        0.4257812500,        0.4565429688,       -0.1137695312,        8.6669921875,        5.7525634766,      -42.6483154297
1488506811.7290160656,1488506811.7314360142,        0.3774414062,        0.4619140625,       -0.1132812500,        8.6669921875,        5.7525634766,      -42.6483154297
1488506811.7317318916,1488506811.7340259552,        0.3774414062,        0.4619140625,       -0.1132812500,        9.6435546875,        5.8898925781,      -40.7409667969
1488506811.7343049049,1488506811.7365970612,        0.3774414062,        0.4619140625,       -0.1132812500,        9.6435546875,        5.8898925781,      -40.7409667969
1488506811.7368750572,1488506811.7391688824,        0.3774414062,        0.4619140625,       -0.1132812500,       10.1623535156,        5.9967041016,      -39.1998291016
1488506811.7394509315,1488506811.7417531013,        0.3632812500,        0.5112304688,       -0.1274414062,       10.1623535156,        5.9967041016,      -39.1998291016
1488506811.7420339584,1488506811.7443299294,        0.3632812500,        0.5112304688,       -0.1274414062,       10.8795166016,        5.9356689453,      -37.1093750000
1488506811.7446110249,1488506811.7469060421,        0.3632812500,        0.5112304688,       -0.1274414062,       10.8795166016,        5.9356689453,      -37.1093750000
1488506811.7471849918,1488506811.7494769096,        0.3632812500,        0.5112304688,       -0.1274414062,       10.7574462891,        6.4697265625,      -34.7747802734
1488506811.7497580051,1488506811.7521009445,        0.3320312500,        0.5190429688,       -0.1162109375,       10.7574462891,        6.4697265625,      -34.7747802734
1488506811.7523839474,1488506811.7546839714,        0.3320312500,        0.5190429688,       -0.1162109375,       10.1470947266,        6.5460205078,      -32.0739746094
1488506811.7549660206,1488506811.7572619915,        0.3320312500,        0.5190429688,       -0.1162109375,       10.1470947266,        6.5460205078,      -32.0739746094
1488506811.7575430870,1488506811.7598369122,        0.3320312500,        0.5190429688,       -0.1162109375,        9.5520019531,        6.7138671875,      -29.0374755859
1488506811.7601161003,1488506811.7625789642,        0.2954101562,        0.5209960938,       -0.0957031250,        9.5520019531,        6.7138671875,      -29.0374755859
1488506811.7629621029,1488506811.7652580738,        0.2954101562,        0.5209960938,       -0.0957031250,        9.6130371094,        7.6599121094,      -26.6723632812
1488506811.7655370235,1488506811.7678270340,        0.2954101562,        0.5209960938,       -0.0957031250,        9.6130371094,        7.6599121094,      -26.6723632812
1488506811.7681050301,1488506811.7703969479,        0.2954101562,        0.5209960938,       -0.1108398438,        9.6130371094,        8.3923339844,      -23.7426757812
1488506811.7706758976,1488506811.7730751038,        0.3183593750,        0.5449218750,       -0.1108398438,       10.5743408203,        8.3923339844,      -23.7426757812
1488506811.7733669281,1488506811.7757880688,        0.3183593750,        0.5449218750,       -0.1108398438,       10.5743408203,        8.9416503906,      -21.2097167969
1488506811.7760779858,1488506811.7784969807,        0.3183593750,        0.5449218750,       -0.1108398438,       11.4746093750,        8.9416503906,      -21.2097167969
1488506811.7787880898,1488506811.7812099457,        0.3271484375,        0.5385742188,       -0.0986328125,       11.4746093750,        9.3841552734,      -18.6004638672
1488506811.7815001011,1488506811.7838170528,        0.3271484375,        0.5385742188,       -0.0986328125,       12.6495361328,        9.3841552734,      -18.6004638672
1488506811.7840991020,1488506811.7863960266,        0.3271484375,        0.5385742188,       -0.0986328125,       12.6495361328,        9.3841552734,      -15.8843994141
1488506811.7866768837,1488506811.7889680862,        0.3271484375,        0.5385742188,       -0.0986328125,       13.2446289062,        9.9945068359,      -15.8843994141
1488506811.7892489433,1488506811.7915399075,        0.3725585938,        0.5146484375,       -0.0795898438,       13.2446289062,        9.9945068359,      -13.5803222656
1488506811.7918279171,1488506811.7942519188,        0.3725585938,        0.5146484375,       -0.0795898438,       14.3432617188,       10.9863281250,      -13.5803222656
1488506811.7945430279,1488506811.7969639301,        0.3725585938,        0.5146484375,       -0.0795898438,       14.3432617188,       10.9863281250,       -9.6740722656
1488506811.7972528934,1488506811.7996690273,        0.3725585938,        0.5146484375,       -0.0795898438,       16.4642333984,       11.4593505859,      -10.8032226562
1488506811.7999598980,1488506811.8023920059,        0.3696289062,        0.5307617188,       -0.0615234375,       16.4642333984,       11.4593505859,      -10.8032226562
1488506811.8026840687,1488506811.8051021099,        0.3696289062,        0.5307617188,       -0.0615234375,       17.9595947266,       12.8173828125,       -8.4228515625
1488506811.8053898811,1488506811.8078069687,        0.3696289062,        0.5307617188,       -0.0615234375,       17.9595947266,       12.8173828125,       -4.5166015625
1488506811.8080940247,1488506811.8105120659,        0.3696289062,        0.5307617188,       -0.0615234375,       19.4396972656,       14.0686035156,       -4.8980712891
1488506811.8108019829,1488506811.8132240772,        0.3662109375,        0.5341796875,       -0.0786132812,       19.4396972656,       14.0686035156,       -0.9918212891
1488506811.8135139942,1488506811.8159320354,        0.3662109375,        0.5341796875,       -0.0786132812,       20.5230712891,       14.5111083984,       -2.0141601562
1488506811.8162219524,1488506811.8186419010,        0.3662109375,        0.5341796875,       -0.0786132812,       20.5230712891,       14.5111083984,        1.8920898438
1488506811.8189289570,1488506811.8213450909,        0.3662109375,        0.5297851562,       -0.1196289062,       22.5372314453,       14.6026611328,        1.2054443359
1488506811.8216340542,1488506811.8239550591,        0.3090820312,        0.5297851562,       -0.1196289062,       22.5372314453,       14.6026611328,        1.2054443359
1488506811.8242371082,1488506811.8265318871,        0.3090820312,        0.5297851562,       -0.1196289062,       23.5443115234,       14.8468017578,        4.7302246094
1488506811.8268139362,1488506811.8293700218,        0.3090820312,        0.5297851562,       -0.1196289062,       23.5443115234,       14.8468017578,        4.7302246094
1488506811.8297600746,1488506811.8325200081,        0.2250976562,        0.5244140625,       -0.1269531250,       23.0712890625,       14.4805908203,        9.2620849609
1488506811.8328089714,1488506811.8352110386,        0.2250976562,        0.5244140625,       -0.1269531250,       23.0712890625,       14.4805908203,       13.7634277344
1488506811.8355019093,1488506811.8379058838,        0.2250976562,        0.5244140625,       -0.1269531250,       22.6745605469,       13.3056640625,       13.7634277344
1488506811.8381960392,1488506811.8405990601,        0.2250976562,        0.5244140625,       -0.1269531250,       22.6745605469,       13.3056640625,       19.4549560547
1488506811.8408889771,1488506811.8433039188,        0.1645507812,        0.5913085938,       -0.2163085938,       23.2391357422,       12.6800537109,       19.4549560547
1488506811.8435940742,1488506811.8459949493,        0.1645507812,        0.5913085938,       -0.2163085938,       23.2391357422,       12.6800537109,       25.2075195312
1488506811.8462851048,1488506811.8486900330,        0.1645507812,        0.5913085938,       -0.2163085938,       22.5677490234,       11.2915039062,       25.2075195312
1488506811.8489789963,1488506811.8513810635,        0.1645507812,        0.5913085938,       -0.2734375000,       22.5677490234,       11.2915039062,       33.0200195312
1488506811.8517100811,1488506811.8540940285,        0.1279296875,        0.6225585938,       -0.2734375000,       20.7519531250,        8.4381103516,       32.6690673828
1488506811.8543810844,1488506811.8567600250,        0.1279296875,        0.6225585938,       -0.2734375000,       20.7519531250,        8.4381103516,       40.4815673828
1488506811.8570470810,1488506811.8594288826,        0.1279296875,        0.6225585938,       -0.2734375000,       18.2189941406,        6.0119628906,       41.1682128906
1488506811.8597140312,1488506811.8621170521,        0.2485351562,        0.6328125000,       -0.3745117188,       18.2189941406,        6.0119628906,       48.9807128906
1488506811.8623979092,1488506811.8646900654,        0.2485351562,        0.6328125000,       -0.3745117188,       15.4418945312,        3.6315917969,       49.3469238281
1488506811.8649709225,1488506811.8672680855,        0.2485351562,        0.6328125000,       -0.3745117188,       15.4418945312,        3.6315917969,       49.3469238281
1488506811.8675479889,1488506811.8698430061,        0.2485351562,        0.6328125000,       -0.3745117188,       13.8092041016,        1.2359619141,       58.2122802734
1488506811.8701229095,1488506811.8725230694,        0.5063476562,        0.5913085938,       -0.3588867188,       13.8092041016,        1.2359619141,       58.2122802734
1488506811.8728039265,1488506811.8750960827,        0.5063476562,        0.5913085938,       -0.3588867188,       12.5579833984,       -1.7395019531,       66.1315917969
1488506811.8753778934,1488506811.8776719570,        0.5063476562,        0.5913085938,       -0.3588867188,       12.5579833984,       -1.7395019531,       66.1315917969
1488506811.8779520988,1488506811.8802459240,        0.5063476562,        0.5913085938,       -0.3588867188,       12.9241943359,       -4.6997070312,       72.0672607422
1488506811.8805279732,1488506811.8829760551,        0.8134765625,        0.5073242188,       -0.3071289062,       12.9241943359,       -4.6997070312,       72.0672607422
1488506811.8832581043,1488506811.8855540752,        0.8134765625,        0.5073242188,       -0.3071289062,       16.0827636719,       -6.8054199219,       78.0181884766
1488506811.8858349323,1488506811.8881330490,        0.8134765625,        0.5073242188,       -0.3071289062,       16.0827636719,       -6.8054199219,       78.0181884766
1488506811.8884129524,1488506811.8907051086,        0.8134765625,        0.5073242188,       -0.3071289062,       20.5993652344,       -8.3007812500,       83.0688476562
1488506811.8909859657,1488506811.8935019970,        1.0205078125,        0.5019531250,       -0.2255859375,       20.5993652344,       -8.3007812500,       83.0688476562
1488506811.8939070702,1488506811.8963201046,        1.0205078125,        0.5019531250,       -0.2255859375,       25.2838134766,       -9.7808837891,       88.0889892578
1488506811.8966109753,1488506811.8990209103,        1.0205078125,        0.5019531250,       -0.2255859375,       25.2838134766,       -9.7808837891,       88.0889892578
1488506811.8993101120,1488506811.9017350674,        1.0205078125,        0.5019531250,       -0.1010742188,       29.0985107422,      -11.1846923828,       93.0175781250
1488506811.9020280838,1488506811.9044449329,        1.1088867188,        0.5361328125,       -0.1010742188,       29.0985107422,      -11.1846923828,       93.0175781250
1488506811.9047369957,1488506811.9071540833,        1.1088867188,        0.5361328125,       -0.1010742188,       40.3442382812,       -7.5836181641,       97.2747802734
1488506811.9074440002,1488506811.9098560810,        1.1088867188,        0.5361328125,       -0.1010742188,       40.3442382812,       -7.5836181641,       97.2747802734
