time_stamp before, time_stamp after, Acceleration x, Acceleration y, Acceleration z, Gyro x, Gyro y, Gyro z
1488506608.0308508873,1488506608.0355200768,        0.6040039062,        0.0795898438,       -0.1552734375,        1.5106201172,       -0.3662109375,       -2.0904541016
1488506608.0358240604,1488506608.0383739471,        0.6040039062,        0.0727539062,       -0.1591796875,        0.5035400391,       -0.3509521484,       -2.0904541016
1488506608.0386540890,1488506608.0410540104,        0.6137695312,        0.0727539062,       -0.1591796875,        0.5035400391,       -0.3509521484,       -1.8005371094
1488506608.0417959690,1488506608.0442130566,        0.6137695312,        0.0727539062,       -0.1591796875,       -0.5035400391,        0.0305175781,       -1.8005371094
1488506608.0444939137,1488506608.0469079018,        0.6137695312,        0.0727539062,       -0.1591796875,       -0.5035400391,        0.4577636719,       -0.9918212891
1488506608.0471880436,1488506608.0496089458,        0.5996093750,        0.0673828125,       -0.1538085938,       -1.2359619141,        0.4577636719,       -0.9918212891
1488506608.0498900414,1488506608.0523118973,        0.5996093750,        0.0673828125,       -0.1538085938,       -1.2359619141,        0.6103515625,       -0.8850097656
1488506608.0525920391,1488506608.0549991131,        0.5996093750,        0.0673828125,       -0.1538085938,       -1.1901855469,        0.6103515625,       -0.8850097656
1488506608.0552799702,1488506608.0576989651,        0.5996093750,        0.0673828125,       -0.1538085938,       -1.1901855469,        0.5950927734,       -0.7171630859
1488506608.0579779148,1488506608.0603919029,        0.6103515625,        0.0673828125,       -0.1538085938,       -1.8310546875,        0.5950927734,       -0.7171630859
1488506608.0606720448,1488506608.0631039143,        0.6103515625,        0.0673828125,       -0.1538085938,       -1.8310546875,        0.5798339844,       -0.5950927734
1488506608.0633831024,1488506608.0657970905,        0.6103515625,        0.0673828125,       -0.1538085938,       -1.3885498047,        0.5798339844,       -0.5950927734
1488506608.0660760403,1488506608.0684940815,        0.6103515625,        0.0712890625,       -0.1298828125,       -1.3885498047,        0.5798339844,       -0.6408691406
1488506608.0687758923,1488506608.0711948872,        0.6044921875,        0.0712890625,       -0.1298828125,       -1.7395019531,        0.5645751953,       -0.6408691406
1488506608.0714750290,1488506608.0737860203,        0.6044921875,        0.0712890625,       -0.1298828125,       -1.7395019531,        0.5645751953,       -0.5798339844
1488506608.0740580559,1488506608.0763459206,        0.6044921875,        0.0712890625,       -0.1298828125,       -2.2277832031,        0.1678466797,       -0.5798339844
1488506608.0766201019,1488506608.0789198875,        0.6015625000,        0.0629882812,       -0.1298828125,       -2.2277832031,        0.1678466797,       -0.4577636719
1488506608.0791940689,1488506608.0814809799,        0.6015625000,        0.0629882812,       -0.1298828125,       -2.0446777344,        0.7019042969,       -0.4577636719
1488506608.0817329884,1488506608.0840330124,        0.6015625000,        0.0629882812,       -0.1298828125,       -2.0446777344,        0.7019042969,       -0.4577636719
1488506608.0843069553,1488506608.0865979195,        0.6015625000,        0.0629882812,       -0.1298828125,       -1.3580322266,        0.7171630859,       -0.6103515625
1488506608.0868730545,1488506608.0891640186,        0.6049804688,        0.0659179688,       -0.1440429688,       -1.3580322266,        0.7171630859,       -0.6103515625
1488506608.0894370079,1488506608.0918679237,        0.6049804688,        0.0659179688,       -0.1440429688,       -0.8697509766,        0.9307861328,       -0.9155273438
1488506608.0921449661,1488506608.0944399834,        0.6049804688,        0.0659179688,       -0.1440429688,       -0.8697509766,        0.9307861328,       -0.9155273438
1488506608.0947151184,1488506608.0970020294,        0.6049804688,        0.0659179688,       -0.1440429688,       -0.3967285156,        0.5798339844,       -1.2054443359
1488506608.0974431038,1488506608.0997419357,        0.6103515625,        0.0668945312,       -0.1289062500,       -0.3967285156,        0.5798339844,       -1.2054443359
1488506608.1000170708,1488506608.1024749279,        0.6103515625,        0.0668945312,       -0.1289062500,        0.0915527344,        0.2441406250,       -1.0833740234
1488506608.1027579308,1488506608.1051790714,        0.6103515625,        0.0668945312,       -0.1289062500,        0.0915527344,        0.2441406250,       -1.0833740234
1488506608.1054608822,1488506608.1078789234,        0.6103515625,        0.0668945312,       -0.1289062500,        0.4730224609,       -0.2899169922,       -1.1901855469
1488506608.1081619263,1488506608.1105771065,        0.5957031250,        0.0688476562,       -0.1269531250,        0.4730224609,       -0.2899169922,       -1.1901855469
1488506608.1108601093,1488506608.1132419109,        0.5957031250,        0.0688476562,       -0.1269531250,        0.1525878906,       -0.3204345703,       -1.1291503906
1488506608.1135179996,1488506608.1158111095,        0.5957031250,        0.0688476562,       -0.1269531250,        0.1525878906,       -0.3204345703,       -1.1291503906
1488506608.1160840988,1488506608.1183750629,        0.5957031250,        0.0688476562,       -0.1250000000,       -0.3509521484,        0.0457763672,       -0.6408691406
1488506608.1186490059,1488506608.1211049557,        0.6025390625,        0.0776367188,       -0.1250000000,       -0.3509521484,        0.0457763672,       -0.6408691406
1488506608.1213800907,1488506608.1238529682,        0.6025390625,        0.0776367188,       -0.1250000000,       -0.8087158203,        0.2899169922,       -0.6408691406
1488506608.1241340637,1488506608.1265180111,        0.6025390625,        0.0776367188,       -0.1250000000,       -0.8087158203,        0.2899169922,       -0.6408691406
1488506608.1267979145,1488506608.1298089027,        0.6025390625,        0.0678710938,       -0.1293945312,       -1.1291503906,        0.3814697266,       -0.1678466797
1488506608.1300940514,1488506608.1325209141,        0.6064453125,        0.0678710938,       -0.1293945312,       -1.1291503906,        0.3814697266,       -0.1678466797
1488506608.1328029633,1488506608.1352250576,        0.6064453125,        0.0678710938,       -0.1293945312,       -1.0681152344,        0.0610351562,        0.0915527344
1488506608.1355080605,1488506608.1379239559,        0.6064453125,        0.0678710938,       -0.1293945312,       -1.0681152344,        0.0610351562,        0.0915527344
1488506608.1382060051,1488506608.1406219006,        0.6152343750,        0.0751953125,       -0.1337890625,       -1.6021728516,       -0.3662109375,        0.1373291016
1488506608.1409049034,1488506608.1433389187,        0.6152343750,        0.0751953125,       -0.1337890625,       -1.6021728516,       -0.3662109375,        0.1373291016
1488506608.1436209679,1488506608.1460409164,        0.6152343750,        0.0751953125,       -0.1337890625,       -1.1138916016,       -0.5950927734,        0.6256103516
1488506608.1463220119,1488506608.1487410069,        0.6152343750,        0.0751953125,       -0.1186523438,       -1.1138916016,       -0.5950927734,        0.6256103516
1488506608.1490249634,1488506608.1514389515,        0.6054687500,        0.0756835938,       -0.1186523438,       -1.0070800781,       -0.5340576172,        0.6561279297
1488506608.1517319679,1488506608.1541440487,        0.6054687500,        0.0756835938,       -0.1186523438,       -1.0070800781,       -0.5340576172,        0.6561279297
1488506608.1544280052,1488506608.1568479538,        0.6054687500,        0.0756835938,       -0.1186523438,       -1.4038085938,       -0.5340576172,        0.8850097656
1488506608.1571300030,1488506608.1595509052,        0.6054687500,        0.0756835938,       -0.1293945312,       -1.4038085938,       -0.5340576172,        0.8850097656
1488506608.1598329544,1488506608.1622729301,        0.6020507812,        0.0756835938,       -0.1293945312,       -0.7781982422,       -0.7324218750,        1.4801025391
1488506608.1626570225,1488506608.1649549007,        0.6020507812,        0.0756835938,       -0.1293945312,       -0.7781982422,       -0.7324218750,        1.4801025391
1488506608.1652290821,1488506608.1675209999,        0.6020507812,        0.0756835938,       -0.1293945312,       -0.6103515625,       -0.9765625000,        1.6021728516
1488506608.1677949429,1488506608.1700899601,        0.6020507812,        0.0703125000,       -0.1318359375,       -0.6103515625,       -0.9765625000,        1.6021728516
1488506608.1703639030,1488506608.1728050709,        0.6020507812,        0.0703125000,       -0.1318359375,       -0.4272460938,       -0.7934570312,        1.8615722656
1488506608.1730821133,1488506608.1753709316,        0.6020507812,        0.0703125000,       -0.1318359375,       -0.4272460938,       -0.7934570312,        1.8615722656
1488506608.1756460667,1488506608.1779420376,        0.6020507812,        0.0703125000,       -0.1318359375,       -0.4882812500,       -0.9918212891,        2.3193359375
1488506608.1782159805,1488506608.1805090904,        0.6152343750,        0.0629882812,       -0.1279296875,       -0.4882812500,       -0.9918212891,        2.3193359375
1488506608.1807820797,1488506608.1832680702,        0.6152343750,        0.0629882812,       -0.1279296875,       -0.3356933594,       -0.9918212891,        2.1514892578
1488506608.1835510731,1488506608.1859669685,        0.6152343750,        0.0629882812,       -0.1279296875,       -0.3356933594,       -0.9918212891,        2.1514892578
1488506608.1862480640,1488506608.1886639595,        0.6152343750,        0.0629882812,       -0.1279296875,        0.2746582031,       -0.9765625000,        2.0599365234
1488506608.1889441013,1488506608.1913630962,        0.6181640625,        0.0585937500,       -0.1333007812,        0.2746582031,       -0.9765625000,        2.0599365234
1488506608.1916460991,1488506608.1940999031,        0.6181640625,        0.0585937500,       -0.1333007812,        0.8544921875,       -1.4648437500,        1.6937255859
1488506608.1943809986,1488506608.1967980862,        0.6181640625,        0.0585937500,       -0.1333007812,        0.8544921875,       -1.4648437500,        1.6937255859
1488506608.1970779896,1488506608.1994969845,        0.6181640625,        0.0585937500,       -0.1352539062,        0.8544921875,       -2.1514892578,        1.5563964844
1488506608.1997768879,1488506608.2022030354,        0.6171875000,        0.0463867188,       -0.1352539062,        0.9765625000,       -2.1514892578,        1.5563964844
1488506608.2024838924,1488506608.2049009800,        0.6171875000,        0.0463867188,       -0.1352539062,        0.9765625000,       -2.3498535156,        1.8310546875
1488506608.2051830292,1488506608.2075970173,        0.6171875000,        0.0463867188,       -0.1352539062,        1.1138916016,       -2.3498535156,        1.8310546875
1488506608.2078781128,1488506608.2102921009,        0.6152343750,        0.0551757812,       -0.1411132812,        1.1138916016,       -2.0141601562,        1.9073486328
1488506608.2105710506,1488506608.2129390240,        0.6152343750,        0.0551757812,       -0.1411132812,        1.2207031250,       -2.0141601562,        1.9073486328
1488506608.2132120132,1488506608.2155048847,        0.6152343750,        0.0551757812,       -0.1411132812,        1.2207031250,       -2.2735595703,        1.6021728516
1488506608.2157769203,1488506608.2180700302,        0.6152343750,        0.0551757812,       -0.1411132812,        1.1138916016,       -2.2735595703,        1.6021728516
1488506608.2183420658,1488506608.2206349373,        0.6127929688,        0.0561523438,       -0.1293945312,        1.1138916016,       -2.2735595703,        1.5716552734
1488506608.2209060192,1488506608.2233281136,        0.6127929688,        0.0561523438,       -0.1293945312,        0.7476806641,       -2.2583007812,        1.5716552734
1488506608.2236089706,1488506608.2260251045,        0.6127929688,        0.0561523438,       -0.1293945312,        0.7476806641,       -2.2583007812,        1.4648437500
1488506608.2264161110,1488506608.2288300991,        0.6127929688,        0.0561523438,       -0.1293945312,        0.7934570312,       -2.4261474609,        1.4648437500
1488506608.2291119099,1488506608.2315280437,        0.6215820312,        0.0620117188,       -0.1347656250,        0.7934570312,       -2.4261474609,        1.3122558594
1488506608.2318150997,1488506608.2342350483,        0.6215820312,        0.0620117188,       -0.1347656250,        1.0070800781,       -2.4261474609,        1.3122558594
1488506608.2345149517,1488506608.2369298935,        0.6215820312,        0.0620117188,       -0.1347656250,        1.0070800781,       -2.4261474609,        1.2207031250
1488506608.2372090816,1488506608.2396569252,        0.6215820312,        0.0620117188,       -0.1445312500,        0.3509521484,       -2.4414062500,        1.2207031250
1488506608.2399420738,1488506608.2423739433,        0.6152343750,        0.0610351562,       -0.1445312500,        0.3509521484,       -2.4414062500,        1.4190673828
1488506608.2426550388,1488506608.2450709343,        0.6152343750,        0.0610351562,       -0.1445312500,        0.3814697266,       -2.4261474609,        1.4190673828
1488506608.2453510761,1488506608.2477738857,        0.6152343750,        0.0610351562,       -0.1445312500,        0.3814697266,       -2.4261474609,        1.2664794922
1488506608.2480549812,1488506608.2504670620,        0.6152343750,        0.0581054688,       -0.1430664062,        0.0915527344,       -2.3193359375,        1.2664794922
1488506608.2507479191,1488506608.2531740665,        0.6113281250,        0.0581054688,       -0.1430664062,        0.0915527344,       -2.3193359375,        0.9002685547
1488506608.2534570694,1488506608.2558829784,        0.6113281250,        0.0581054688,       -0.1430664062,       -0.4577636719,       -1.9836425781,        0.9002685547
1488506608.2561669350,1488506608.2585880756,        0.6113281250,        0.0581054688,       -0.1430664062,       -0.4577636719,       -1.9836425781,        1.1901855469
1488506608.2588698864,1488506608.2612860203,        0.6015625000,        0.0625000000,       -0.1440429688,       -0.2441406250,       -2.0904541016,        1.1901855469
1488506608.2615671158,1488506608.2638869286,        0.6015625000,        0.0625000000,       -0.1440429688,       -0.2441406250,       -2.0904541016,        1.1901855469
1488506608.2641599178,1488506608.2664461136,        0.6015625000,        0.0625000000,       -0.1440429688,       -0.3204345703,       -2.3651123047,        1.1291503906
1488506608.2667200565,1488506608.2690169811,        0.6015625000,        0.0625000000,       -0.1440429688,       -0.3204345703,       -2.3651123047,        1.1291503906
1488506608.2692921162,1488506608.2715799809,        0.6142578125,        0.0576171875,       -0.1391601562,       -0.2441406250,       -2.3040771484,        0.9155273438
1488506608.2719240189,1488506608.2742159367,        0.6142578125,        0.0576171875,       -0.1391601562,       -0.2441406250,       -2.3040771484,        0.9155273438
1488506608.2744889259,1488506608.2767870426,        0.6142578125,        0.0576171875,       -0.1391601562,       -0.7934570312,       -2.1667480469,        0.7324218750
1488506608.2770600319,1488506608.2793478966,        0.6142578125,        0.0576171875,       -0.1391601562,       -0.7934570312,       -2.1667480469,        0.7324218750
1488506608.2796239853,1488506608.2820329666,        0.6157226562,        0.0507812500,       -0.1430664062,       -0.8544921875,       -1.8005371094,        0.7476806641
1488506608.2823081017,1488506608.2846100330,        0.6157226562,        0.0507812500,       -0.1430664062,       -0.8544921875,       -1.8005371094,        0.7476806641
1488506608.2848839760,1488506608.2871849537,        0.6157226562,        0.0507812500,       -0.1430664062,       -0.2441406250,       -2.1514892578,        0.7781982422
1488506608.2874588966,1488506608.2897500992,        0.6157226562,        0.0507812500,       -0.1430664062,       -0.2441406250,       -2.1514892578,        0.7781982422
1488506608.2901299000,1488506608.2926819324,        0.6079101562,        0.0473632812,       -0.1279296875,       -0.6103515625,       -2.1514892578,        0.3509521484
1488506608.2929580212,1488506608.2952558994,        0.6079101562,        0.0473632812,       -0.1279296875,       -0.6103515625,       -2.1514892578,        0.3509521484
1488506608.2955300808,1488506608.2978239059,        0.6079101562,        0.0473632812,       -0.1279296875,       -0.9307861328,       -1.8615722656,        0.0762939453
1488506608.2980980873,1488506608.3003880978,        0.6079101562,        0.0473632812,       -0.1464843750,       -0.9307861328,       -1.8615722656,        0.0762939453
1488506608.3006620407,1488506608.3030459881,        0.6147460938,        0.0502929688,       -0.1464843750,       -0.8087158203,       -1.9378662109,        0.1068115234
1488506608.3033230305,1488506608.3056199551,        0.6147460938,        0.0502929688,       -0.1464843750,       -0.8087158203,       -1.9378662109,        0.1068115234
1488506608.3058950901,1488506608.3082680702,        0.6147460938,        0.0502929688,       -0.1464843750,       -0.8087158203,       -2.3040771484,        0.0305175781
1488506608.3085429668,1488506608.3108398914,        0.6147460938,        0.0458984375,       -0.1284179688,       -0.9307861328,       -2.3040771484,        0.0305175781
1488506608.3127551079,1488506608.3150498867,        0.6186523438,        0.0458984375,       -0.1284179688,       -0.8697509766,       -2.1209716797,       -0.1525878906
1488506608.3153290749,1488506608.3176229000,        0.6186523438,        0.0458984375,       -0.1284179688,       -0.8697509766,       -2.1209716797,       -0.1525878906
1488506608.3178989887,1488506608.3201849461,        0.6186523438,        0.0458984375,       -0.1284179688,       -0.0610351562,       -2.2125244141,       -0.4882812500
1488506608.3204610348,1488506608.3228778839,        0.6181640625,        0.0439453125,       -0.1284179688,       -0.0610351562,       -2.2125244141,       -0.4882812500
1488506608.3231539726,1488506608.3254489899,        0.6181640625,        0.0439453125,       -0.1284179688,        0.5340576172,       -3.1280517578,       -0.8544921875
1488506608.3257238865,1488506608.3280138969,        0.6181640625,        0.0439453125,       -0.1284179688,        0.5340576172,       -3.1280517578,       -0.8544921875
1488506608.3282880783,1488506608.3305709362,        0.6181640625,        0.0439453125,       -0.1347656250,        0.5645751953,       -3.0364990234,       -1.0223388672
1488506608.3308439255,1488506608.3331439495,        0.6137695312,        0.0551757812,       -0.1347656250,        0.5645751953,       -3.0364990234,       -1.0223388672
1488506608.3334190845,1488506608.3357090950,        0.6137695312,        0.0551757812,       -0.1347656250,        0.7324218750,       -3.0212402344,       -1.0223388672
1488506608.3359839916,1488506608.3382689953,        0.6137695312,        0.0551757812,       -0.1347656250,        0.7324218750,       -3.0212402344,       -1.0223388672
1488506608.3385410309,1488506608.3408288956,        0.6137695312,        0.0551757812,       -0.1406250000,        0.7324218750,       -3.2196044922,       -1.1749267578
1488506608.3411018848,1488506608.3434309959,        0.6186523438,        0.0620117188,       -0.1406250000,        0.4425048828,       -3.2196044922,       -1.1749267578
1488506608.3437049389,1488506608.3459949493,        0.6186523438,        0.0620117188,       -0.1406250000,        0.4425048828,       -3.2196044922,       -1.2969970703
1488506608.3462700844,1488506608.3485550880,        0.6186523438,        0.0620117188,       -0.1406250000,        0.6866455078,       -3.3874511719,       -1.2969970703
1488506608.3488280773,1488506608.3511149883,        0.6186523438,        0.0620117188,       -0.1347656250,        0.6866455078,       -3.3874511719,       -1.3275146484
1488506608.3513889313,1488506608.3537609577,        0.6127929688,        0.0605468750,       -0.1347656250,        0.6256103516,       -3.0364990234,       -1.3275146484
1488506608.3541429043,1488506608.3564350605,        0.6127929688,        0.0605468750,       -0.1347656250,        0.6256103516,       -3.0364990234,       -1.3275146484
1488506608.3567090034,1488506608.3590030670,        0.6127929688,        0.0605468750,       -0.1347656250,        0.5645751953,       -3.4790039062,       -1.5563964844
1488506608.3592770100,1488506608.3615651131,        0.6127929688,        0.0620117188,       -0.1376953125,        0.5645751953,       -3.4790039062,       -1.5563964844
1488506608.3619959354,1488506608.3642969131,        0.6093750000,        0.0620117188,       -0.1376953125,        0.3509521484,       -3.2653808594,       -1.7700195312
1488506608.3645739555,1488506608.3668661118,        0.6093750000,        0.0620117188,       -0.1376953125,        0.3509521484,       -3.2653808594,       -1.7700195312
1488506608.3671400547,1488506608.3694250584,        0.6093750000,        0.0620117188,       -0.1376953125,        0.4119873047,       -3.2348632812,       -1.4953613281
1488506608.3696999550,1488506608.3720989227,        0.6118164062,        0.0659179688,       -0.1459960938,        0.4119873047,       -3.2348632812,       -1.4953613281
1488506608.3723809719,1488506608.3747980595,        0.6118164062,        0.0659179688,       -0.1459960938,        0.5645751953,       -2.9602050781,       -1.3580322266
1488506608.3750789165,1488506608.3774960041,        0.6118164062,        0.0659179688,       -0.1459960938,        0.5645751953,       -2.9602050781,       -1.3580322266
1488506608.3777780533,1488506608.3801970482,        0.6118164062,        0.0659179688,       -0.1459960938,        0.5645751953,       -2.7770996094,       -1.3732910156
1488506608.3804769516,1488506608.3829069138,        0.6069335938,        0.0615234375,       -0.1386718750,        0.5645751953,       -2.7770996094,       -1.3732910156
1488506608.3831899166,1488506608.3856089115,        0.6069335938,        0.0615234375,       -0.1386718750,        0.7019042969,       -2.6397705078,       -1.8920898438
1488506608.3858909607,1488506608.3883149624,        0.6069335938,        0.0615234375,       -0.1386718750,        0.7019042969,       -2.6397705078,       -1.8920898438
1488506608.3885970116,1488506608.3910100460,        0.6069335938,        0.0615234375,       -0.1386718750,        0.6866455078,       -2.9754638672,       -1.5716552734
1488506608.3912899494,1488506608.3937120438,        0.5966796875,        0.0610351562,       -0.1401367188,        0.6866455078,       -2.9754638672,       -1.5716552734
1488506608.3939929008,1488506608.3964090347,        0.5966796875,        0.0610351562,       -0.1401367188,        0.1983642578,       -2.5329589844,       -1.2664794922
1488506608.3966939449,1488506608.3991079330,        0.5966796875,        0.0610351562,       -0.1401367188,        0.1983642578,       -2.5329589844,       -1.2664794922
1488506608.3993899822,1488506608.4018149376,        0.5966796875,        0.0634765625,       -0.1430664062,        0.3509521484,       -2.1667480469,       -1.6784667969
1488506608.4020891190,1488506608.4043788910,        0.6079101562,        0.0634765625,       -0.1430664062,        0.3509521484,       -2.1667480469,       -1.6784667969
1488506608.4046530724,1488506608.4069449902,        0.6079101562,        0.0634765625,       -0.1430664062,        0.3967285156,       -2.7923583984,       -1.9073486328
1488506608.4072179794,1488506608.4095149040,        0.6079101562,        0.0634765625,       -0.1430664062,        0.3967285156,       -2.7923583984,       -1.9073486328
1488506608.4097878933,1488506608.4121639729,        0.6079101562,        0.0664062500,       -0.1459960938,        0.2288818359,       -2.7618408203,       -1.7547607422
1488506608.4124450684,1488506608.4148609638,        0.6054687500,        0.0664062500,       -0.1459960938,        0.2288818359,       -2.7618408203,       -1.7547607422
1488506608.4151430130,1488506608.4175610542,        0.6054687500,        0.0664062500,       -0.1459960938,        0.3662109375,       -2.4871826172,       -1.9836425781
1488506608.4179410934,1488506608.4203600883,        0.6054687500,        0.0664062500,       -0.1459960938,        0.3662109375,       -2.4871826172,       -1.9836425781
1488506608.4206418991,1488506608.4231050014,        0.6040039062,        0.0683593750,       -0.1420898438,        0.2136230469,       -2.0294189453,       -1.8463134766
1488506608.4233860970,1488506608.4257979393,        0.6040039062,        0.0683593750,       -0.1420898438,        0.2136230469,       -2.0294189453,       -1.8463134766
1488506608.4260818958,1488506608.4285590649,        0.6040039062,        0.0683593750,       -0.1420898438,       -0.2136230469,       -1.7700195312,       -1.9073486328
1488506608.4288411140,1488506608.4312689304,        0.6040039062,        0.0683593750,       -0.1420898438,       -0.2136230469,       -1.7700195312,       -1.9073486328
1488506608.4315509796,1488506608.4339818954,        0.6044921875,        0.0556640625,       -0.1396484375,        0.3051757812,       -2.0141601562,       -2.0294189453
1488506608.4342620373,1488506608.4366810322,        0.6044921875,        0.0556640625,       -0.1396484375,        0.3051757812,       -2.0141601562,       -2.0294189453
1488506608.4369618893,1488506608.4393761158,        0.6044921875,        0.0556640625,       -0.1396484375,        1.0070800781,       -2.1820068359,       -1.8005371094
1488506608.4396569729,1488506608.4421129227,        0.6044921875,        0.0556640625,       -0.1582031250,        1.0070800781,       -2.1820068359,       -1.8005371094
1488506608.4423940182,1488506608.4448139668,        0.6186523438,        0.0571289062,       -0.1582031250,        0.6256103516,       -2.1820068359,       -1.7395019531
1488506608.4450969696,1488506608.4475080967,        0.6186523438,        0.0571289062,       -0.1582031250,        0.6256103516,       -2.1820068359,       -1.7395019531
1488506608.4477880001,1488506608.4502060413,        0.6186523438,        0.0571289062,       -0.1582031250,        1.2359619141,       -1.8005371094,       -2.0599365234
1488506608.4504868984,1488506608.4529221058,        0.6162109375,        0.0615234375,       -0.1523437500,        1.2359619141,       -1.8005371094,       -2.0599365234
1488506608.4532051086,1488506608.4556219578,        0.6162109375,        0.0615234375,       -0.1523437500,        1.6784667969,       -2.1362304688,       -2.1057128906
1488506608.4559009075,1488506608.4583239555,        0.6162109375,        0.0615234375,       -0.1523437500,        1.6784667969,       -2.1362304688,       -2.1057128906
1488506608.4586060047,1488506608.4610180855,        0.6162109375,        0.0615234375,       -0.1523437500,        1.9226074219,       -2.2583007812,       -1.8615722656
1488506608.4612979889,1488506608.4636180401,        0.6206054688,        0.0576171875,       -0.1484375000,        1.9226074219,       -2.2583007812,       -1.8615722656
1488506608.4638910294,1488506608.4661860466,        0.6206054688,        0.0576171875,       -0.1484375000,        1.9226074219,       -2.2735595703,       -1.8768310547
1488506608.4664590359,1488506608.4687480927,        0.6206054688,        0.0576171875,       -0.1484375000,        1.7547607422,       -2.2735595703,       -1.8768310547
1488506608.4690220356,1488506608.4713139534,        0.6206054688,        0.0576171875,       -0.1484375000,        1.7547607422,       -2.2735595703,       -1.7395019531
1488506608.4715878963,1488506608.4740009308,        0.6166992188,        0.0673828125,       -0.1416015625,        1.1749267578,       -2.0904541016,       -1.7395019531
1488506608.4742751122,1488506608.4765720367,        0.6166992188,        0.0673828125,       -0.1416015625,        1.1749267578,       -2.0904541016,       -1.3885498047
1488506608.4768459797,1488506608.4791440964,        0.6166992188,        0.0673828125,       -0.1416015625,        1.2969970703,       -1.9226074219,       -1.3885498047
1488506608.4794170856,1488506608.4818530083,        0.6166992188,        0.0673828125,       -0.1416015625,        1.2969970703,       -1.9226074219,       -1.3885498047
1488506608.4821341038,1488506608.4845499992,        0.6206054688,        0.0693359375,       -0.1440429688,        0.9613037109,       -1.7700195312,       -1.3275146484
1488506608.4849379063,1488506608.4873530865,        0.6206054688,        0.0693359375,       -0.1440429688,        0.9613037109,       -1.7700195312,       -1.4648437500
1488506608.4876360893,1488506608.4900479317,        0.6206054688,        0.0693359375,       -0.1440429688,        0.7171630859,       -1.6937255859,       -1.4648437500
1488506608.4903290272,1488506608.4927070141,        0.6206054688,        0.0644531250,       -0.1450195312,        0.7171630859,       -1.6937255859,       -1.0375976562
1488506608.4929809570,1488506608.4952800274,        0.6181640625,        0.0644531250,       -0.1450195312,        0.7019042969,       -1.7242431641,       -1.0375976562
1488506608.4955520630,1488506608.4978408813,        0.6181640625,        0.0644531250,       -0.1450195312,        0.7019042969,       -1.7242431641,       -1.0375976562
1488506608.4981141090,1488506608.5004069805,        0.6181640625,        0.0644531250,       -0.1450195312,       -0.3967285156,       -1.1291503906,       -0.5493164062
1488506608.5006799698,1488506608.5030488968,        0.6181640625,        0.0654296875,       -0.1484375000,       -0.3967285156,       -1.1291503906,       -0.5493164062
1488506608.5033330917,1488506608.5057499409,        0.6103515625,        0.0654296875,       -0.1484375000,       -0.1678466797,       -1.0375976562,       -0.5340576172
1488506608.5060319901,1488506608.5084528923,        0.6103515625,        0.0654296875,       -0.1484375000,       -0.1678466797,       -1.0375976562,       -0.5340576172
1488506608.5087349415,1488506608.5111470222,        0.6103515625,        0.0654296875,       -0.1484375000,        0.4730224609,       -1.2664794922,       -1.1444091797
1488506608.5114269257,1488506608.5138499737,        0.6069335938,        0.0634765625,       -0.1445312500,        0.4730224609,       -1.2664794922,       -1.1444091797
1488506608.5141289234,1488506608.5165569782,        0.6069335938,        0.0634765625,       -0.1445312500,        0.4577636719,       -1.2969970703,       -1.2359619141
1488506608.5168330669,1488506608.5191268921,        0.6069335938,        0.0634765625,       -0.1445312500,        0.4577636719,       -1.2969970703,       -1.2359619141
1488506608.5194020271,1488506608.5218620300,        0.6069335938,        0.0634765625,       -0.1445312500,        0.8544921875,       -1.4801025391,       -1.2969970703
1488506608.5221450329,1488506608.5245220661,        0.6064453125,        0.0615234375,       -0.1435546875,        0.8544921875,       -1.4801025391,       -1.2969970703
1488506608.5248029232,1488506608.5271830559,        0.6064453125,        0.0615234375,       -0.1435546875,        1.2817382812,       -1.5869140625,       -1.3275146484
1488506608.5274879932,1488506608.5298779011,        0.6064453125,        0.0615234375,       -0.1435546875,        1.2817382812,       -1.5869140625,       -1.3275146484
1488506608.5301570892,1488506608.5329420567,        0.6064453125,        0.0615234375,       -0.1435546875,        0.8697509766,       -1.5411376953,       -1.6632080078
1488506608.5332179070,1488506608.5355100632,        0.6098632812,        0.0585937500,       -0.1367187500,        0.8697509766,       -1.5411376953,       -1.6632080078
1488506608.5357859135,1488506608.5380771160,        0.6098632812,        0.0585937500,       -0.1367187500,        1.3732910156,       -1.4038085938,       -1.7700195312
1488506608.5383510590,1488506608.5406379700,        0.6098632812,        0.0585937500,       -0.1367187500,        1.3732910156,       -1.4038085938,       -1.7700195312
1488506608.5409140587,1488506608.5432798862,        0.6098632812,        0.0473632812,       -0.1484375000,        1.6479492188,       -1.0070800781,       -1.9378662109
1488506608.5435531139,1488506608.5458450317,        0.6088867188,        0.0473632812,       -0.1484375000,        1.6479492188,       -1.0070800781,       -1.9378662109
1488506608.5461170673,1488506608.5484058857,        0.6088867188,        0.0473632812,       -0.1484375000,        1.2359619141,       -1.1291503906,       -2.1209716797
1488506608.5487859249,1488506608.5510759354,        0.6088867188,        0.0473632812,       -0.1484375000,        1.2359619141,       -1.1291503906,       -2.1209716797
1488506608.5513479710,1488506608.5536580086,        0.6088867188,        0.0493164062,       -0.1435546875,        1.5106201172,       -1.1749267578,       -1.8463134766
1488506608.5539300442,1488506608.5562200546,        0.6196289062,        0.0493164062,       -0.1435546875,        1.5106201172,       -1.1749267578,       -1.8463134766
1488506608.5564930439,1488506608.5587821007,        0.6196289062,        0.0493164062,       -0.1435546875,        1.7242431641,       -1.2054443359,       -1.9989013672
1488506608.5590550900,1488506608.5613439083,        0.6196289062,        0.0493164062,       -0.1435546875,        1.7242431641,       -1.2054443359,       -1.9989013672
1488506608.5616168976,1488506608.5639100075,        0.6123046875,        0.0581054688,       -0.1420898438,        1.7242431641,       -0.8544921875,       -2.0599365234
1488506608.5641849041,1488506608.5664720535,        0.6123046875,        0.0581054688,       -0.1420898438,        1.8463134766,       -0.8544921875,       -2.0599365234
1488506608.5667450428,1488506608.5690310001,        0.6123046875,        0.0581054688,       -0.1420898438,        1.8463134766,       -0.8544921875,       -2.0294189453
1488506608.5693058968,1488506608.5715930462,        0.6123046875,        0.0581054688,       -0.1420898438,        1.3580322266,       -0.9460449219,       -2.0294189453
1488506608.5719280243,1488506608.5742149353,        0.6220703125,        0.0639648438,       -0.1533203125,        1.3580322266,       -0.9460449219,       -2.0294189453
1488506608.5744900703,1488506608.5767769814,        0.6220703125,        0.0639648438,       -0.1533203125,        1.2054443359,       -1.0681152344,       -2.0599365234
1488506608.5770509243,1488506608.5793399811,        0.6220703125,        0.0639648438,       -0.1533203125,        1.2054443359,       -1.0681152344,       -2.0599365234
1488506608.5796120167,1488506608.5820529461,        0.6220703125,        0.0639648438,       -0.1533203125,        0.7781982422,       -1.1138916016,       -2.0599365234
1488506608.5823280811,1488506608.5846240520,        0.6098632812,        0.0673828125,       -0.1313476562,        0.7781982422,       -1.1138916016,       -2.0599365234
1488506608.5848970413,1488506608.5871920586,        0.6098632812,        0.0673828125,       -0.1313476562,        0.5645751953,       -1.2207031250,       -2.0294189453
1488506608.5874650478,1488506608.5897579193,        0.6098632812,        0.0673828125,       -0.1313476562,        0.5645751953,       -1.2207031250,       -2.0294189453
1488506608.5900309086,1488506608.5924220085,        0.6098632812,        0.0673828125,       -0.1313476562,        0.4425048828,       -0.9460449219,       -1.8310546875
1488506608.5926980972,1488506608.5949900150,        0.6123046875,        0.0712890625,       -0.1499023438,        0.4425048828,       -0.9460449219,       -1.8310546875
1488506608.5952661037,1488506608.5975539684,        0.6123046875,        0.0712890625,       -0.1499023438,        0.2441406250,       -0.8087158203,       -1.9989013672
1488506608.5978269577,1488506608.6001179218,        0.6123046875,        0.0712890625,       -0.1499023438,        0.2441406250,       -0.8087158203,       -1.9989013672
1488506608.6003909111,1488506608.6027529240,        0.6123046875,        0.0712890625,       -0.1499023438,        0.3204345703,       -0.9155273438,       -2.0599365234
1488506608.6030380726,1488506608.6054480076,        0.6049804688,        0.0585937500,       -0.1464843750,        0.3204345703,       -0.9155273438,       -2.0599365234
1488506608.6057300568,1488506608.6081430912,        0.6049804688,        0.0585937500,       -0.1464843750,        0.1068115234,       -0.6103515625,       -1.8310546875
1488506608.6084249020,1488506608.6108410358,        0.6049804688,        0.0585937500,       -0.1464843750,        0.1068115234,       -0.6103515625,       -1.8310546875
1488506608.6112289429,1488506608.6135489941,        0.6049804688,        0.0585937500,       -0.1464843750,        0.5340576172,       -0.5798339844,       -1.7700195312
1488506608.6138238907,1488506608.6161179543,        0.6098632812,        0.0629882812,       -0.1464843750,        0.5340576172,       -0.5798339844,       -1.7700195312
1488506608.6163930893,1488506608.6186900139,        0.6098632812,        0.0629882812,       -0.1464843750,        0.9002685547,       -0.7781982422,       -1.7547607422
1488506608.6189661026,1488506608.6212589741,        0.6098632812,        0.0629882812,       -0.1464843750,        0.9002685547,       -0.7781982422,       -1.7547607422
1488506608.6215329170,1488506608.6238501072,        0.6098632812,        0.0629882812,       -0.1440429688,        0.9002685547,       -0.9460449219,       -1.9836425781
1488506608.6241240501,1488506608.6264090538,        0.6103515625,        0.0625000000,       -0.1440429688,        1.3275146484,       -0.9460449219,       -1.9836425781
1488506608.6266849041,1488506608.6289730072,        0.6103515625,        0.0625000000,       -0.1440429688,        1.3275146484,       -0.9460449219,       -2.0141601562
1488506608.6292469501,1488506608.6315369606,        0.6103515625,        0.0625000000,       -0.1440429688,        0.9002685547,       -0.8087158203,       -2.0141601562
1488506608.6318149567,1488506608.6341109276,        0.6103515625,        0.0639648438,       -0.1469726562,        0.9002685547,       -0.8087158203,       -2.0141601562
1488506608.6343860626,1488506608.6366720200,        0.6166992188,        0.0639648438,       -0.1469726562,        1.1291503906,       -0.3967285156,       -1.7547607422
1488506608.6369469166,1488506608.6392359734,        0.6166992188,        0.0639648438,       -0.1469726562,        1.1291503906,       -0.3967285156,       -1.7547607422
1488506608.6395099163,1488506608.6418030262,        0.6166992188,        0.0639648438,       -0.1469726562,        1.3427734375,       -0.3967285156,       -2.0904541016
1488506608.6421229839,1488506608.6444139481,        0.6166992188,        0.0566406250,       -0.1406250000,        1.3427734375,       -0.3967285156,       -2.0904541016
1488506608.6446890831,1488506608.6469779015,        0.6132812500,        0.0566406250,       -0.1406250000,        1.3732910156,       -0.3509521484,       -2.4261474609
1488506608.6472520828,1488506608.6497020721,        0.6132812500,        0.0566406250,       -0.1406250000,        1.3732910156,       -0.3509521484,       -2.4261474609
1488506608.6499769688,1488506608.6527450085,        0.6132812500,        0.0566406250,       -0.1406250000,        1.4953613281,       -0.6408691406,       -2.4871826172
1488506608.6530289650,1488506608.6554470062,        0.6044921875,        0.0737304688,       -0.1489257812,        1.4953613281,       -0.6408691406,       -2.4871826172
1488506608.6557290554,1488506608.6581459045,        0.6044921875,        0.0737304688,       -0.1489257812,        0.9765625000,       -0.6256103516,       -2.2277832031
1488506608.6584289074,1488506608.6608440876,        0.6044921875,        0.0737304688,       -0.1489257812,        0.9765625000,       -0.6256103516,       -2.2277832031
1488506608.6611258984,1488506608.6635549068,        0.6044921875,        0.0737304688,       -0.1489257812,        0.5950927734,       -0.5950927734,       -1.8920898438
1488506608.6638350487,1488506608.6662549973,        0.6098632812,        0.0698242188,       -0.1455078125,        0.5950927734,       -0.5950927734,       -1.8920898438
1488506608.6665360928,1488506608.6689560413,        0.6098632812,        0.0698242188,       -0.1455078125,        0.7629394531,       -0.5340576172,       -1.5563964844
1488506608.6692368984,1488506608.6716969013,        0.6098632812,        0.0698242188,       -0.1455078125,        0.7629394531,       -0.5340576172,       -1.5563964844
1488506608.6719789505,1488506608.6743950844,        0.6098632812,        0.0698242188,       -0.1347656250,        0.8239746094,       -0.3204345703,       -1.6937255859
1488506608.6747848988,1488506608.6772019863,        0.6142578125,        0.0639648438,       -0.1347656250,        0.8239746094,       -0.3204345703,       -1.6937255859
1488506608.6774830818,1488506608.6798930168,        0.6142578125,        0.0639648438,       -0.1347656250,        0.7934570312,       -0.4119873047,       -1.2054443359
1488506608.6801760197,1488506608.6825630665,        0.6142578125,        0.0639648438,       -0.1347656250,        0.7934570312,       -0.4119873047,       -1.2054443359
1488506608.6828389168,1488506608.6851329803,        0.6137695312,        0.0698242188,       -0.1425781250,        0.9155273438,       -0.4577636719,       -1.1596679688
1488506608.6854069233,1488506608.6876990795,        0.6137695312,        0.0698242188,       -0.1425781250,        0.9155273438,       -0.4577636719,       -1.1596679688
1488506608.6879739761,1488506608.6902658939,        0.6137695312,        0.0698242188,       -0.1425781250,        0.7476806641,       -0.4272460938,       -1.2664794922
1488506608.6905400753,1488506608.6928899288,        0.6137695312,        0.0698242188,       -0.1425781250,        0.7476806641,       -0.4272460938,       -1.2664794922
1488506608.6931650639,1488506608.6954588890,        0.6098632812,        0.0722656250,       -0.1347656250,        0.5645751953,       -0.3509521484,       -1.4495849609
1488506608.6957340240,1488506608.6980290413,        0.6098632812,        0.0722656250,       -0.1347656250,        0.5645751953,       -0.3509521484,       -1.4495849609
1488506608.6983020306,1488506608.7005970478,        0.6098632812,        0.0722656250,       -0.1347656250,        0.4272460938,       -0.3967285156,       -1.9073486328
1488506608.7008719444,1488506608.7033610344,        0.6098632812,        0.0722656250,       -0.1347656250,        0.4272460938,       -0.3967285156,       -1.9073486328
1488506608.7036359310,1488506608.7059268951,        0.6054687500,        0.0571289062,       -0.1411132812,        0.7781982422,       -0.1373291016,       -1.4190673828
1488506608.7062010765,1488506608.7084848881,        0.6054687500,        0.0571289062,       -0.1411132812,        0.7781982422,       -0.1373291016,       -1.4190673828
1488506608.7087609768,1488506608.7110440731,        0.6054687500,        0.0571289062,       -0.1411132812,        0.7781982422,        0.0152587891,       -1.5563964844
1488506608.7113189697,1488506608.7137720585,        0.6054687500,        0.0571289062,       -0.1411132812,        0.7171630859,        0.0152587891,       -1.5563964844
1488506608.7140479088,1488506608.7163400650,        0.6113281250,        0.0605468750,       -0.1479492188,        0.7171630859,        0.1373291016,       -1.7852783203
1488506608.7166140079,1488506608.7189030647,        0.6113281250,        0.0605468750,       -0.1479492188,        0.9460449219,        0.1373291016,       -1.7852783203
1488506608.7191779613,1488506608.7214651108,        0.6113281250,        0.0605468750,       -0.1479492188,        0.9460449219,        0.1373291016,       -2.0294189453
1488506608.7217290401,1488506608.7240231037,        0.6113281250,        0.0605468750,       -0.1479492188,        1.2054443359,        0.0000000000,       -2.0294189453
1488506608.7242960930,1488506608.7265870571,        0.6113281250,        0.0605468750,       -0.1474609375,        1.2054443359,        0.0000000000,       -2.0294189453
1488506608.7268600464,1488506608.7291479111,        0.6113281250,        0.0605468750,       -0.1474609375,        1.6174316406,        0.0000000000,       -2.1209716797
1488506608.7294209003,1488506608.7320449352,        0.6113281250,        0.0605468750,       -0.1474609375,        1.6174316406,        0.0000000000,       -2.1209716797
1488506608.7323219776,1488506608.7346100807,        0.6113281250,        0.0605468750,       -0.1474609375,        1.6174316406,        0.1068115234,       -2.1057128906
1488506608.7348830700,1488506608.7371799946,        0.6040039062,        0.0683593750,       -0.1503906250,        1.6174316406,        0.1068115234,       -2.1057128906
1488506608.7384560108,1488506608.7407479286,        0.6040039062,        0.0683593750,       -0.1503906250,        1.4648437500,        0.3051757812,       -2.3345947266
1488506608.7410240173,1488506608.7433269024,        0.6040039062,        0.0683593750,       -0.1503906250,        1.4648437500,        0.3051757812,       -2.2888183594
1488506608.7436020374,1488506608.7458899021,        0.6054687500,        0.0678710938,       -0.1425781250,        1.1901855469,        0.4272460938,       -2.2888183594
1488506608.7461628914,1488506608.7484519482,        0.6054687500,        0.0678710938,       -0.1425781250,        1.1901855469,        0.4272460938,       -2.1209716797
1488506608.7487258911,1488506608.7510230541,        0.6054687500,        0.0678710938,       -0.1425781250,        1.0986328125,        0.5493164062,       -2.1209716797
1488506608.7512979507,1488506608.7536630630,        0.6054687500,        0.0678710938,       -0.1425781250,        1.0986328125,        0.5493164062,       -2.1209716797
1488506608.7539389133,1488506608.7562251091,        0.6132812500,        0.0668945312,       -0.1459960938,        1.1444091797,        0.5187988281,       -2.1362304688
1488506608.7565000057,1488506608.7587890625,        0.6132812500,        0.0668945312,       -0.1459960938,        1.1444091797,        0.5187988281,       -2.1362304688
1488506608.7590630054,1488506608.7613470554,        0.6132812500,        0.0668945312,       -0.1459960938,        1.2207031250,        0.5340576172,       -2.0751953125
1488506608.7616209984,1488506608.7639200687,        0.6132812500,        0.0668945312,       -0.1459960938,        1.2207031250,        0.5340576172,       -2.0751953125
1488506608.7641930580,1488506608.7664790154,        0.6191406250,        0.0673828125,       -0.1523437500,        0.9460449219,        0.7171630859,       -2.3498535156
1488506608.7667529583,1488506608.7690429688,        0.6191406250,        0.0673828125,       -0.1523437500,        0.9460449219,        0.7171630859,       -2.3498535156
1488506608.7693169117,1488506608.7716059685,        0.6191406250,        0.0673828125,       -0.1523437500,        0.9918212891,        0.8392333984,       -2.5177001953
1488506608.7719380856,1488506608.7742290497,        0.6191406250,        0.0673828125,       -0.1523437500,        0.9918212891,        0.8392333984,       -2.5177001953
1488506608.7745039463,1488506608.7767899036,        0.6215820312,        0.0576171875,       -0.1459960938,        0.9155273438,        1.2817382812,       -2.6245117188
1488506608.7770619392,1488506608.7793591022,        0.6215820312,        0.0576171875,       -0.1459960938,        0.9155273438,        1.2817382812,       -2.6245117188
1488506608.7796320915,1488506608.7820389271,        0.6215820312,        0.0576171875,       -0.1459960938,        0.9155273438,        1.1291503906,       -2.8839111328
1488506608.7823131084,1488506608.7846090794,        0.6215820312,        0.0576171875,       -0.1459960938,        0.6103515625,        1.1291503906,       -2.8839111328
1488506608.7848839760,1488506608.7871689796,        0.6181640625,        0.0644531250,       -0.1542968750,        0.6103515625,        0.9918212891,       -2.5787353516
1488506608.7874429226,1488506608.7897310257,        0.6181640625,        0.0644531250,       -0.1542968750,        0.3051757812,        0.9918212891,       -2.5787353516
1488506608.7900071144,1488506608.7924261093,        0.6181640625,        0.0644531250,       -0.1542968750,        0.3051757812,        0.9918212891,       -2.1820068359
1488506608.7927010059,1488506608.7949979305,        0.6181640625,        0.0644531250,       -0.1542968750,        0.5645751953,        0.9460449219,       -2.1820068359
1488506608.7952721119,1488506608.7975618839,        0.6103515625,        0.0649414062,       -0.1362304688,        0.5645751953,        0.9460449219,       -2.3345947266
1488506608.7978370190,1488506608.8001370430,        0.6103515625,        0.0649414062,       -0.1362304688,        0.4425048828,        0.9155273438,       -2.3345947266
1488506608.8005199432,1488506608.8029229641,        0.6103515625,        0.0649414062,       -0.1362304688,        0.4425048828,        0.9155273438,       -2.8076171875
1488506608.8032069206,1488506608.8056249619,        0.6103515625,        0.0649414062,       -0.1479492188,        0.0762939453,        1.3885498047,       -2.8076171875
1488506608.8059039116,1488506608.8083190918,        0.6157226562,        0.0678710938,       -0.1479492188,        0.0762939453,        1.3885498047,       -2.8076171875
1488506608.8086009026,1488506608.8110189438,        0.6157226562,        0.0678710938,       -0.1479492188,       -0.0457763672,        1.4801025391,       -2.7770996094
1488506608.8113000393,1488506608.8137350082,        0.6157226562,        0.0678710938,       -0.1479492188,       -0.0457763672,        1.4801025391,       -2.7770996094
1488506608.8140161037,1488506608.8164339066,        0.6157226562,        0.0634765625,       -0.1352539062,       -0.0457763672,        1.8768310547,       -3.0364990234
1488506608.8167159557,1488506608.8191320896,        0.6108398438,        0.0634765625,       -0.1352539062,       -0.0457763672,        1.8768310547,       -3.0364990234
1488506608.8194119930,1488506608.8218379021,        0.6108398438,        0.0634765625,       -0.1352539062,        0.1831054688,        1.8920898438,       -2.9449462891
1488506608.8221199512,1488506608.8245360851,        0.6108398438,        0.0634765625,       -0.1352539062,        0.1831054688,        1.8920898438,       -2.9449462891
1488506608.8248159885,1488506608.8272399902,        0.6118164062,        0.0649414062,       -0.1372070312,        0.2136230469,        1.9378662109,       -2.8686523438
1488506608.8275198936,1488506608.8299329281,        0.6118164062,        0.0649414062,       -0.1372070312,        0.2136230469,        1.9378662109,       -2.8686523438
1488506608.8302140236,1488506608.8326399326,        0.6118164062,        0.0649414062,       -0.1372070312,        0.1525878906,        1.8310546875,       -3.4179687500
1488506608.8329210281,1488506608.8353469372,        0.6118164062,        0.0649414062,       -0.1372070312,        0.1525878906,        1.8310546875,       -3.4179687500
1488506608.8356280327,1488506608.8380479813,        0.6123046875,        0.0693359375,       -0.1513671875,        0.5645751953,        1.9073486328,       -3.9215087891
1488506608.8383290768,1488506608.8407518864,        0.6123046875,        0.0693359375,       -0.1513671875,        0.5645751953,        1.9073486328,       -3.9215087891
1488506608.8410320282,1488506608.8434190750,        0.6123046875,        0.0693359375,       -0.1513671875,        0.4577636719,        1.9531250000,       -3.6926269531
1488506608.8436930180,1488506608.8459839821,        0.6123046875,        0.0693359375,       -0.1391601562,        0.4577636719,        1.9531250000,       -3.6926269531
1488506608.8462579250,1488506608.8487188816,        0.6152343750,        0.0693359375,       -0.1391601562,        0.4119873047,        1.9836425781,       -3.9367675781
1488506608.8489949703,1488506608.8512899876,        0.6152343750,        0.0693359375,       -0.1391601562,        0.4119873047,        1.9836425781,       -3.9367675781
1488506608.8515648842,1488506608.8541810513,        0.6152343750,        0.0693359375,       -0.1391601562,        0.6103515625,        1.9836425781,       -3.8757324219
1488506608.8544619083,1488506608.8568460941,        0.6152343750,        0.0712890625,       -0.1376953125,        0.6103515625,        1.9836425781,       -3.8757324219
1488506608.8571250439,1488506608.8595070839,        0.6083984375,        0.0712890625,       -0.1376953125,        0.5035400391,        2.1972656250,       -4.2877197266
1488506608.8597850800,1488506608.8621959686,        0.6083984375,        0.0712890625,       -0.1376953125,        0.5035400391,        2.1972656250,       -4.2877197266
1488506608.8624789715,1488506608.8648970127,        0.6083984375,        0.0712890625,       -0.1376953125,       -0.0305175781,        2.3193359375,       -4.8522949219
1488506608.8652870655,1488506608.8677000999,        0.6147460938,        0.0722656250,       -0.1396484375,       -0.0305175781,        2.3193359375,       -4.8522949219
1488506608.8679809570,1488506608.8703989983,        0.6147460938,        0.0722656250,       -0.1396484375,       -0.3509521484,        2.4414062500,       -4.7912597656
1488506608.8706810474,1488506608.8731119633,        0.6147460938,        0.0722656250,       -0.1396484375,       -0.3509521484,        2.4414062500,       -4.7912597656
1488506608.8733940125,1488506608.8758080006,        0.6147460938,        0.0722656250,       -0.1396484375,       -0.1068115234,        2.5482177734,       -4.8675537109
1488506608.8760910034,1488506608.8785190582,        0.6079101562,        0.0615234375,       -0.1303710938,       -0.1068115234,        2.5482177734,       -4.8675537109
1488506608.8788020611,1488506608.8812139034,        0.6079101562,        0.0615234375,       -0.1303710938,       -0.0305175781,        2.7618408203,       -5.1116943359
1488506608.8814949989,1488506608.8838100433,        0.6079101562,        0.0615234375,       -0.1303710938,       -0.0305175781,        2.7618408203,       -5.1116943359
1488506608.8840839863,1488506608.8863770962,        0.6079101562,        0.0615234375,       -0.1347656250,       -0.1831054688,        2.4719238281,       -5.2490234375
1488506608.8866519928,1488506608.8889379501,        0.6113281250,        0.0722656250,       -0.1347656250,       -0.1831054688,        2.4719238281,       -5.2490234375
1488506608.8892109394,1488506608.8915140629,        0.6113281250,        0.0722656250,       -0.1347656250,       -0.1220703125,        2.4719238281,       -5.0964355469
1488506608.8918929100,1488506608.8941979408,        0.6113281250,        0.0722656250,       -0.1347656250,       -0.1220703125,        2.4719238281,       -5.0964355469
1488506608.8944730759,1488506608.8967669010,        0.6113281250,        0.0722656250,       -0.1381835938,       -0.1525878906,        2.5634765625,       -5.2032470703
1488506608.8970410824,1488506608.8993411064,        0.6157226562,        0.0722656250,       -0.1381835938,       -0.1525878906,        2.5634765625,       -5.2032470703
1488506608.8996150494,1488506608.9020619392,        0.6157226562,        0.0722656250,       -0.1381835938,       -0.1220703125,        2.9449462891,       -4.9285888672
1488506608.9023380280,1488506608.9046390057,        0.6157226562,        0.0722656250,       -0.1381835938,       -0.1220703125,        2.9449462891,       -4.9285888672
1488506608.9049129486,1488506608.9072060585,        0.6157226562,        0.0708007812,       -0.1328125000,       -0.0762939453,        2.9907226562,       -4.8980712891
1488506608.9074790478,1488506608.9097731113,        0.6093750000,        0.0708007812,       -0.1328125000,       -0.0762939453,        2.9907226562,       -4.8980712891
1488506608.9100470543,1488506608.9124610424,        0.6093750000,        0.0708007812,       -0.1328125000,       -0.0762939453,        2.9754638672,       -4.8217773438
1488506608.9127430916,1488506608.9151580334,        0.6093750000,        0.0708007812,       -0.1328125000,       -0.2288818359,        2.9754638672,       -4.8217773438
1488506608.9154419899,1488506608.9178519249,        0.6098632812,        0.0693359375,       -0.1376953125,       -0.2288818359,        2.8228759766,       -4.7302246094
1488506608.9181330204,1488506608.9205489159,        0.6098632812,        0.0693359375,       -0.1376953125,       -0.2899169922,        2.8228759766,       -4.7302246094
1488506608.9208309650,1488506608.9232509136,        0.6098632812,        0.0693359375,       -0.1376953125,       -0.2899169922,        2.8228759766,       -4.9133300781
1488506608.9235329628,1488506608.9259550571,        0.6098632812,        0.0693359375,       -0.1376953125,        0.1068115234,        2.8228759766,       -4.9133300781
1488506608.9262371063,1488506608.9286539555,        0.6171875000,        0.0751953125,       -0.1362304688,        0.1068115234,        2.8686523438,       -5.2490234375
1488506608.9290509224,1488506608.9314661026,        0.6171875000,        0.0751953125,       -0.1362304688,        0.0610351562,        2.8686523438,       -5.2490234375
1488506608.9317560196,1488506608.9341690540,        0.6171875000,        0.0751953125,       -0.1362304688,        0.0610351562,        3.0059814453,       -5.1116943359
1488506608.9344499111,1488506608.9368610382,        0.6171875000,        0.0751953125,       -0.1342773438,       -0.1220703125,        3.0059814453,       -5.1116943359
1488506608.9371449947,1488506608.9395620823,        0.6118164062,        0.0786132812,       -0.1342773438,       -0.1220703125,        3.1280517578,       -5.0811767578
1488506608.9398450851,1488506608.9422769547,        0.6118164062,        0.0786132812,       -0.1342773438,       -0.6103515625,        3.1280517578,       -5.0811767578
1488506608.9425520897,1488506608.9448421001,        0.6118164062,        0.0786132812,       -0.1342773438,       -0.6103515625,        3.1280517578,       -5.0354003906
1488506608.9451150894,1488506608.9474120140,        0.6118164062,        0.0776367188,       -0.1328125000,       -0.3967285156,        3.1738281250,       -5.0354003906
1488506608.9476859570,1488506608.9499781132,        0.6103515625,        0.0776367188,       -0.1328125000,       -0.3967285156,        3.1738281250,       -4.8522949219
1488506608.9502520561,1488506608.9526040554,        0.6103515625,        0.0776367188,       -0.1328125000,       -0.3509521484,        3.2806396484,       -4.8522949219
1488506608.9528861046,1488506608.9553050995,        0.6103515625,        0.0776367188,       -0.1328125000,       -0.3509521484,        3.2806396484,       -4.8522949219
1488506608.9555869102,1488506608.9580020905,        0.6074218750,        0.0810546875,       -0.1318359375,       -0.6103515625,        3.6926269531,       -5.4931640625
1488506608.9582829475,1488506608.9606969357,        0.6074218750,        0.0810546875,       -0.1318359375,       -0.6103515625,        3.6926269531,       -5.4931640625
1488506608.9609770775,1488506608.9634759426,        0.6074218750,        0.0810546875,       -0.1318359375,       -0.6256103516,        3.9520263672,       -5.5084228516
1488506608.9637579918,1488506608.9661331177,        0.6074218750,        0.0810546875,       -0.1318359375,       -0.6256103516,        3.9520263672,       -5.5084228516
1488506608.9664099216,1488506608.9690210819,        0.6069335938,        0.0825195312,       -0.1328125000,       -0.8697509766,        4.0435791016,       -5.2490234375
1488506608.9693059921,1488506608.9717209339,        0.6069335938,        0.0825195312,       -0.1328125000,       -0.8697509766,        4.0435791016,       -5.3710937500
1488506608.9723770618,1488506608.9747989178,        0.6069335938,        0.0825195312,       -0.1328125000,       -0.9918212891,        4.0588378906,       -5.3710937500
1488506608.9750840664,1488506608.9775071144,        0.6069335938,        0.0825195312,       -0.1362304688,       -0.9918212891,        4.0588378906,       -6.0424804688
1488506608.9777889252,1488506608.9802029133,        0.6069335938,        0.0747070312,       -0.1362304688,       -1.1444091797,        4.3334960938,       -6.0424804688
1488506608.9804840088,1488506608.9829170704,        0.6069335938,        0.0747070312,       -0.1362304688,       -1.1444091797,        4.3334960938,       -6.1645507812
1488506608.9831969738,1488506608.9856100082,        0.6069335938,        0.0747070312,       -0.1362304688,       -1.3122558594,        4.5013427734,       -6.1645507812
1488506608.9858911037,1488506608.9883100986,        0.6079101562,        0.0742187500,       -0.1352539062,       -1.3122558594,        4.5013427734,       -6.3476562500
1488506608.9885890484,1488506608.9910099506,        0.6079101562,        0.0742187500,       -0.1352539062,       -1.1901855469,        4.4860839844,       -6.3476562500
1488506608.9912919998,1488506608.9936130047,        0.6079101562,        0.0742187500,       -0.1352539062,       -1.1901855469,        4.4860839844,       -6.8817138672
1488506608.9939920902,1488506608.9962830544,        0.6079101562,        0.0742187500,       -0.1352539062,       -1.0986328125,        5.0201416016,       -6.8817138672
1488506608.9965560436,1488506608.9988570213,        0.6113281250,        0.0673828125,       -0.1362304688,       -1.0986328125,        5.0201416016,       -6.8817138672
1488506608.9991300106,1488506609.0014219284,        0.6113281250,        0.0673828125,       -0.1362304688,       -1.1749267578,        5.2947998047,       -7.3394775391
1488506609.0017619133,1488506609.0040628910,        0.6113281250,        0.0673828125,       -0.1362304688,       -1.1749267578,        5.2947998047,       -7.3394775391
1488506609.0043349266,1488506609.0066270828,        0.6113281250,        0.0673828125,       -0.1362304688,       -1.0986328125,        5.6457519531,       -7.8125000000
1488506609.0069010258,1488506609.0091919899,        0.6132812500,        0.0717773438,       -0.1176757812,       -1.0986328125,        5.6457519531,       -7.8125000000
1488506609.0094640255,1488506609.0117580891,        0.6132812500,        0.0717773438,       -0.1176757812,       -1.4190673828,        5.8135986328,       -8.4075927734
1488506609.0120320320,1488506609.0143280029,        0.6132812500,        0.0717773438,       -0.1176757812,       -1.4190673828,        5.8135986328,       -8.4075927734
1488506609.0146019459,1488506609.0168900490,        0.6132812500,        0.0717773438,       -0.1176757812,       -2.0904541016,        6.2255859375,       -9.0789794922
1488506609.0171670914,1488506609.0194630623,        0.6132812500,        0.0781250000,       -0.1425781250,       -2.0904541016,        6.2255859375,       -9.0789794922
1488506609.0197389126,1488506609.0222089291,        0.6132812500,        0.0781250000,       -0.1425781250,       -2.3956298828,        6.2866210938,       -9.5672607422
1488506609.0224831104,1488506609.0247740746,        0.6132812500,        0.0781250000,       -0.1425781250,       -2.3956298828,        6.2866210938,       -9.5672607422
1488506609.0250480175,1488506609.0273270607,        0.6132812500,        0.0781250000,       -0.1425781250,       -3.1433105469,        6.6223144531,      -10.2539062500
1488506609.0276050568,1488506609.0298869610,        0.6206054688,        0.0747070312,       -0.1235351562,       -3.1433105469,        6.6223144531,      -10.2539062500
1488506609.0301659107,1488506609.0326299667,        0.6206054688,        0.0747070312,       -0.1235351562,       -4.0740966797,        6.4086914062,      -11.1389160156
1488506609.0329101086,1488506609.0352001190,        0.6206054688,        0.0747070312,       -0.1235351562,       -4.0740966797,        6.4086914062,      -11.1389160156
1488506609.0354790688,1488506609.0377569199,        0.6206054688,        0.0747070312,       -0.1347656250,       -4.0740966797,        6.2713623047,      -11.9171142578
1488506609.0380361080,1488506609.0405719280,        0.6137695312,        0.0561523438,       -0.1347656250,       -4.0740966797,        6.2713623047,      -11.9171142578
1488506609.0408539772,1488506609.0432329178,        0.6137695312,        0.0561523438,       -0.1347656250,       -3.1738281250,        6.6833496094,      -13.3666992188
1488506609.0435140133,1488506609.0458040237,        0.6137695312,        0.0561523438,       -0.1347656250,       -3.1738281250,        6.6833496094,      -13.3666992188
1488506609.0460820198,1488506609.0486800671,        0.6137695312,        0.0576171875,       -0.1357421875,       -3.1738281250,        7.2631835938,      -15.2130126953
1488506609.0489609241,1488506609.0512590408,        0.6225585938,        0.0576171875,       -0.1357421875,       -2.0751953125,        7.2631835938,      -15.2130126953
1488506609.0515370369,1488506609.0538430214,        0.6225585938,        0.0576171875,       -0.1357421875,       -2.0751953125,        7.3699951172,      -16.6320800781
1488506609.0541200638,1488506609.0564100742,        0.6225585938,        0.0576171875,       -0.1357421875,       -2.1362304688,        7.3699951172,      -16.6320800781
1488506609.0568089485,1488506609.0591049194,        0.6333007812,        0.0512695312,       -0.1386718750,       -2.1362304688,       11.2762451172,      -17.5628662109
1488506609.0593869686,1488506609.0617160797,        0.6333007812,        0.0512695312,       -0.1386718750,       -2.0904541016,        8.1176757812,      -17.5628662109
1488506609.0619969368,1488506609.0642819405,        0.6333007812,        0.0512695312,       -0.1386718750,       -2.0904541016,        8.1176757812,      -19.3328857422
1488506609.0645620823,1488506609.0668570995,        0.6333007812,        0.0512695312,       -0.1386718750,       -2.2125244141,        8.6822509766,      -19.3328857422
1488506609.0671360493,1488506609.0694200993,        0.6367187500,        0.0463867188,       -0.1367187500,       -2.2125244141,        8.6822509766,      -19.3328857422
1488506609.0697000027,1488506609.0720729828,        0.6367187500,        0.0463867188,       -0.1367187500,       -3.1890869141,        8.2855224609,      -21.3623046875
1488506609.0723528862,1488506609.0746428967,        0.6367187500,        0.0463867188,       -0.1367187500,       -3.1890869141,        8.2855224609,      -21.3623046875
1488506609.0749230385,1488506609.0772070885,        0.6367187500,        0.0463867188,       -0.1367187500,       -3.9672851562,        7.7362060547,      -23.4832763672
1488506609.0774850845,1488506609.0797779560,        0.6464843750,        0.0449218750,       -0.1440429688,       -3.9672851562,        7.7362060547,      -23.4832763672
1488506609.0800559521,1488506609.0823569298,        0.6464843750,        0.0449218750,       -0.1440429688,       -3.8146972656,        7.5683593750,      -25.0701904297
1488506609.0826349258,1488506609.0849199295,        0.6464843750,        0.0449218750,       -0.1440429688,       -3.8146972656,        7.5683593750,      -25.0701904297
1488506609.0851979256,1488506609.0874938965,        0.6464843750,        0.0449218750,       -0.1440429688,       -3.7994384766,        7.8277587891,      -26.9622802734
1488506609.0877718925,1488506609.0900619030,        0.6401367188,        0.0410156250,       -0.1289062500,       -3.7994384766,        7.8277587891,      -26.9622802734
1488506609.0903410912,1488506609.0927779675,        0.6401367188,        0.0410156250,       -0.1289062500,       -4.4250488281,        7.9803466797,      -28.9916992188
1488506609.0930569172,1488506609.0953431129,        0.6401367188,        0.0410156250,       -0.1289062500,       -4.4250488281,        7.9803466797,      -28.9916992188
1488506609.0956220627,1488506609.0979139805,        0.6401367188,        0.0410156250,       -0.1289062500,       -5.5541992188,        8.1634521484,      -30.9295654297
1488506609.0981929302,1488506609.1004850864,        0.6445312500,        0.0522460938,       -0.1411132812,       -5.5541992188,        8.1634521484,      -30.9295654297
1488506609.1007640362,1488506609.1031908989,        0.6445312500,        0.0522460938,       -0.1411132812,       -6.7138671875,        8.4381103516,      -32.8063964844
1488506609.1034710407,1488506609.1057589054,        0.6445312500,        0.0522460938,       -0.1411132812,       -6.7138671875,        8.4381103516,      -32.8063964844
1488506609.1060390472,1488506609.1083350182,        0.6445312500,        0.0522460938,       -0.1411132812,       -6.7138671875,        8.8043212891,      -35.0646972656
1488506609.1086130142,1488506609.1108961105,        0.6450195312,        0.0546875000,       -0.1318359375,       -7.7819824219,        8.8043212891,      -35.0646972656
1488506609.1111729145,1488506609.1134760380,        0.6450195312,        0.0546875000,       -0.1318359375,       -7.7819824219,        8.8043212891,      -36.8652343750
1488506609.1137540340,1488506609.1160430908,        0.6450195312,        0.0546875000,       -0.1318359375,       -8.7280273438,        9.0484619141,      -36.8652343750
1488506609.1163229942,1488506609.1186099052,        0.6450195312,        0.0546875000,       -0.1352539062,       -8.7280273438,        9.0484619141,      -36.8652343750
1488506609.1189889908,1488506609.1212899685,        0.6513671875,        0.0454101562,       -0.1352539062,       -9.4604492188,        9.3841552734,      -38.3605957031
1488506609.1215689182,1488506609.1238670349,        0.6513671875,        0.0454101562,       -0.1352539062,       -9.4604492188,        9.3841552734,      -38.3605957031
1488506609.1241469383,1488506609.1264309883,        0.6513671875,        0.0454101562,       -0.1352539062,       -9.7656250000,        9.4757080078,      -40.6188964844
1488506609.1267099380,1488506609.1290009022,        0.6513671875,        0.0454101562,       -0.1352539062,       -9.7656250000,        9.4757080078,      -40.6188964844
1488506609.1292800903,1488506609.1315670013,        0.6567382812,        0.0483398438,       -0.1352539062,       -9.8419189453,        9.7198486328,      -43.0908203125
1488506609.1318449974,1488506609.1341381073,        0.6567382812,        0.0483398438,       -0.1352539062,       -9.8419189453,        9.7198486328,      -43.0908203125
1488506609.1344161034,1488506609.1367039680,        0.6567382812,        0.0483398438,       -0.1352539062,       -9.7351074219,        9.5062255859,      -45.3033447266
1488506609.1369829178,1488506609.1392719746,        0.6567382812,        0.0502929688,       -0.1323242188,       -9.7351074219,        9.5062255859,      -45.3033447266
1488506609.1395499706,1488506609.1419129372,        0.6606445312,        0.0502929688,       -0.1323242188,       -9.6282958984,        9.1094970703,      -46.8444824219
1488506609.1422009468,1488506609.1446139812,        0.6606445312,        0.0502929688,       -0.1323242188,       -9.6282958984,        9.1094970703,      -46.8444824219
1488506609.1449000835,1488506609.1473140717,        0.6606445312,        0.0502929688,       -0.1323242188,       -8.4533691406,        9.2620849609,      -48.5687255859
1488506609.1476008892,1488506609.1500239372,        0.6933593750,        0.0434570312,       -0.1362304688,       -8.4533691406,        9.2620849609,      -48.5687255859
1488506609.1503090858,1488506609.1527440548,        0.6933593750,        0.0434570312,       -0.1362304688,       -7.4768066406,        9.0942382812,      -51.2084960938
1488506609.1530299187,1488506609.1554510593,        0.6933593750,        0.0434570312,       -0.1362304688,       -7.4768066406,        9.0942382812,      -51.2084960938
1488506609.1557400227,1488506609.1583991051,        0.6933593750,        0.0434570312,       -0.1362304688,       -6.4239501953,        9.2926025391,      -53.0395507812
1488506609.1586880684,1488506609.1610989571,        0.7031250000,        0.0444335938,       -0.1191406250,       -6.4239501953,        9.2926025391,      -53.0395507812
1488506609.1618130207,1488506609.1642389297,        0.7031250000,        0.0444335938,       -0.1191406250,       -5.1574707031,        8.8806152344,      -54.3518066406
1488506609.1645300388,1488506609.1669459343,        0.7031250000,        0.0444335938,       -0.1191406250,       -5.1574707031,        8.8806152344,      -54.3518066406
1488506609.1672329903,1488506609.1696538925,        0.7031250000,        0.0522460938,       -0.1401367188,       -3.7689208984,        7.9956054688,      -55.5419921875
1488506609.1699399948,1488506609.1723680496,        0.7202148438,        0.0522460938,       -0.1401367188,       -3.7689208984,        7.9956054688,      -55.5419921875
1488506609.1726539135,1488506609.1750690937,        0.7202148438,        0.0522460938,       -0.1401367188,       -1.6632080078,        7.1563720703,      -56.7016601562
1488506609.1753540039,1488506609.1777729988,        0.7202148438,        0.0522460938,       -0.1401367188,       -1.6632080078,        7.1563720703,      -56.7016601562
1488506609.1780610085,1488506609.1804730892,        0.7553710938,        0.0830078125,       -0.1669921875,        1.7700195312,        4.8370361328,      -57.6324462891
1488506609.1807589531,1488506609.1831181049,        0.7553710938,        0.0830078125,       -0.1669921875,        1.7700195312,        4.8370361328,      -57.6324462891
1488506609.1833970547,1488506609.1856999397,        0.7553710938,        0.0830078125,       -0.1669921875,        4.9438476562,        2.5024414062,      -57.4951171875
1488506609.1860849857,1488506609.1883790493,        0.7553710938,        0.0830078125,       -0.1669921875,        4.9438476562,        2.5024414062,      -57.4951171875
1488506609.1886570454,1488506609.1909549236,        0.8300781250,        0.0664062500,       -0.1875000000,        5.9967041016,        0.9918212891,      -57.2967529297
1488506609.1912329197,1488506609.1935389042,        0.8300781250,        0.0664062500,       -0.1875000000,        5.9967041016,        0.9918212891,      -57.2967529297
1488506609.1938169003,1488506609.1961119175,        0.8300781250,        0.0664062500,       -0.1875000000,        6.5155029297,        0.8697509766,      -57.5866699219
1488506609.1963899136,1488506609.1986930370,        0.8300781250,        0.0664062500,       -0.1875000000,        6.5155029297,        0.8697509766,      -57.5866699219
1488506609.1989729404,1488506609.2012650967,        0.8652343750,        0.0122070312,       -0.1855468750,        9.1857910156,        1.2207031250,      -58.9599609375
1488506609.2015430927,1488506609.2038440704,        0.8652343750,        0.0122070312,       -0.1855468750,        9.1857910156,        1.2207031250,      -58.9599609375
1488506609.2041230202,1488506609.2064230442,        0.8652343750,        0.0122070312,       -0.1855468750,       16.9982910156,        0.3051757812,      -59.8144531250
1488506609.2067060471,1488506609.2090010643,        0.8652343750,        0.0122070312,       -0.1855468750,       15.8691406250,        0.3051757812,      -59.8144531250
1488506609.2092831135,1488506609.2115850449,        0.8652343750,       -0.0024414062,       -0.1860351562,       15.8691406250,       -3.6010742188,      -61.5692138672
1488506609.2120480537,1488506609.2143449783,        0.8652343750,       -0.0024414062,       -0.1860351562,       22.6287841797,       -0.4730224609,      -61.5692138672
1488506609.2146279812,1488506609.2169160843,        0.8652343750,       -0.0024414062,       -0.1860351562,       22.6287841797,       -0.4730224609,      -63.6749267578
1488506609.2171978951,1488506609.2194979191,        0.8652343750,       -0.0024414062,       -0.1860351562,       24.0020751953,       -0.0915527344,      -63.6749267578
1488506609.2197809219,1488506609.2222380638,        0.8344726562,        0.1181640625,       -0.1914062500,       24.0020751953,       -0.0915527344,      -64.5294189453
1488506609.2225279808,1488506609.2249538898,        0.8344726562,        0.1181640625,       -0.1914062500,       20.0653076172,        0.2288818359,      -64.5294189453
1488506609.2252440453,1488506609.2276659012,        0.8344726562,        0.1181640625,       -0.1914062500,       20.0653076172,        0.2288818359,      -65.1702880859
1488506609.2279560566,1488506609.2303769588,        0.8344726562,        0.1362304688,       -0.2211914062,       13.9923095703,        1.5411376953,      -65.1702880859
1488506609.2306649685,1488506609.2330520153,        0.8125000000,        0.1362304688,       -0.2211914062,       13.9923095703,        1.5411376953,      -65.3228759766
1488506609.2333331108,1488506609.2356259823,        0.8125000000,        0.1362304688,       -0.2211914062,        8.0718994141,        1.6632080078,      -65.3228759766
1488506609.2359049320,1488506609.2381949425,        0.8125000000,        0.1362304688,       -0.2211914062,        8.0718994141,        1.6632080078,      -65.3228759766
1488506609.2384729385,1488506609.2407701015,        0.7763671875,        0.1279296875,       -0.2436523438,        2.2277832031,        1.5563964844,      -65.6890869141
1488506609.2410480976,1488506609.2434370518,        0.7763671875,        0.1279296875,       -0.2436523438,        2.2277832031,        1.5563964844,      -65.6890869141
1488506609.2437219620,1488506609.2461400032,        0.7763671875,        0.1279296875,       -0.2436523438,       -1.9683837891,        1.6326904297,      -65.9790039062
1488506609.2464270592,1488506609.2488501072,        0.7763671875,        0.1279296875,       -0.2436523438,       -1.9683837891,        1.6326904297,      -65.9790039062
1488506609.2492420673,1488506609.2517020702,        0.7304687500,        0.1171875000,       -0.2592773438,       -4.6997070312,        0.8544921875,      -66.1315917969
1488506609.2519879341,1488506609.2544100285,        0.7304687500,        0.1171875000,       -0.2592773438,       -4.6997070312,        0.8544921875,      -66.1315917969
1488506609.2546958923,1488506609.2571120262,        0.7304687500,        0.1171875000,       -0.2592773438,       -6.7291259766,       -0.6256103516,      -66.0858154297
1488506609.2574000359,1488506609.2598071098,        0.7304687500,        0.1171875000,       -0.2592773438,       -6.7291259766,       -0.6256103516,      -66.0858154297
1488506609.2600929737,1488506609.2625310421,        0.6821289062,        0.1201171875,       -0.2670898438,       -8.0413818359,       -2.4566650391,      -64.8040771484
1488506609.2628169060,1488506609.2652339935,        0.6821289062,        0.1201171875,       -0.2670898438,       -8.0413818359,       -2.4566650391,      -64.8040771484
1488506609.2655189037,1488506609.2679319382,        0.6821289062,        0.1201171875,       -0.2670898438,       -9.3383789062,       -4.0130615234,      -62.9119873047
1488506609.2682180405,1488506609.2706389427,        0.6821289062,        0.1201171875,       -0.2524414062,       -9.3383789062,       -4.0130615234,      -62.9119873047
1488506609.2709250450,1488506609.2733540535,        0.5952148438,        0.0537109375,       -0.2524414062,      -13.0920410156,       -6.0119628906,      -58.7005615234
1488506609.2736439705,1488506609.2760701180,        0.5952148438,        0.0537109375,       -0.2524414062,      -13.0920410156,       -6.0119628906,      -58.7005615234
1488506609.2763590813,1488506609.2788639069,        0.5952148438,        0.0537109375,       -0.2524414062,      -15.7318115234,       -7.4920654297,      -52.9022216797
1488506609.2791540623,1488506609.2815620899,        0.5419921875,        0.0195312500,       -0.2099609375,      -15.7318115234,       -7.4920654297,      -52.9022216797
1488506609.2822289467,1488506609.2845270634,        0.5419921875,        0.0195312500,       -0.2099609375,      -18.5241699219,      -10.4064941406,      -49.0112304688
1488506609.2848150730,1488506609.2871100903,        0.5419921875,        0.0195312500,       -0.2099609375,      -18.5241699219,      -10.4064941406,      -49.0112304688
1488506609.2873969078,1488506609.2896950245,        0.5419921875,        0.0195312500,       -0.2099609375,      -23.8342285156,      -12.8631591797,      -43.4722900391
1488506609.2899799347,1488506609.2923519611,        0.5048828125,        0.0966796875,       -0.1948242188,      -23.8342285156,      -12.8631591797,      -43.4722900391
1488506609.2926449776,1488506609.2950661182,        0.5048828125,        0.0966796875,       -0.1948242188,      -29.9377441406,      -14.4348144531,      -34.0576171875
1488506609.2953579426,1488506609.2977819443,        0.5048828125,        0.0966796875,       -0.1948242188,      -29.9377441406,      -14.4348144531,      -34.0576171875
1488506609.2980730534,1488506609.3004889488,        0.5048828125,        0.0966796875,       -0.1948242188,      -33.2641601562,      -15.1977539062,      -25.0396728516
1488506609.3007810116,1488506609.3032050133,        0.4482421875,       -0.0776367188,       -0.1943359375,      -33.2641601562,      -15.1977539062,      -25.0396728516
1488506609.3034989834,1488506609.3059170246,        0.4482421875,       -0.0776367188,       -0.1943359375,      -32.7148437500,      -16.6778564453,      -17.8222656250
1488506609.3062078953,1488506609.3086249828,        0.4482421875,       -0.0776367188,       -0.1943359375,      -32.7148437500,      -16.6778564453,      -17.8222656250
1488506609.3089148998,1488506609.3113410473,        0.4482421875,       -0.1650390625,       -0.1430664062,      -29.9224853516,      -18.1274414062,      -12.2985839844
1488506609.3116340637,1488506609.3139319420,        0.4443359375,       -0.1650390625,       -0.1430664062,      -29.9224853516,      -18.1274414062,      -12.2985839844
1488506609.3143239021,1488506609.3166210651,        0.4443359375,       -0.1650390625,       -0.1430664062,      -26.3366699219,      -19.5770263672,       -7.2326660156
1488506609.3169019222,1488506609.3192019463,        0.4443359375,       -0.1650390625,       -0.1430664062,      -26.3366699219,      -19.5770263672,       -7.2326660156
1488506609.3194830418,1488506609.3217689991,        0.3955078125,       -0.1459960938,       -0.1308593750,      -23.4222412109,      -19.9432373047,       -2.3956298828
1488506609.3220520020,1488506609.3243501186,        0.3955078125,       -0.1459960938,       -0.1308593750,      -23.4222412109,      -19.9432373047,       -2.3956298828
1488506609.3246340752,1488506609.3269300461,        0.3955078125,       -0.1459960938,       -0.1308593750,      -22.1710205078,      -20.5841064453,        2.3956298828
1488506609.3272099495,1488506609.3295030594,        0.3955078125,       -0.1459960938,       -0.1308593750,      -22.1710205078,      -20.5841064453,        2.3956298828
1488506609.3297829628,1488506609.3322370052,        0.3891601562,       -0.0937500000,       -0.1186523438,      -21.9573974609,      -21.5911865234,        7.8125000000
1488506609.3325200081,1488506609.3348131180,        0.3891601562,       -0.0937500000,       -0.1186523438,      -21.9573974609,      -21.5911865234,        7.8125000000
1488506609.3350970745,1488506609.3373908997,        0.3891601562,       -0.0937500000,       -0.1186523438,      -22.4151611328,      -21.7437744141,       13.6718750000
1488506609.3376770020,1488506609.3399779797,        0.3891601562,       -0.0937500000,       -0.1186523438,      -22.4151611328,      -21.7437744141,       13.6718750000
1488506609.3402628899,1488506609.3426690102,        0.3974609375,       -0.0971679688,       -0.1210937500,      -22.4151611328,      -22.4761962891,       19.8211669922
1488506609.3429551125,1488506609.3452470303,        0.3974609375,       -0.0971679688,       -0.1210937500,      -22.3541259766,      -22.4761962891,       19.8211669922
1488506609.3455328941,1488506609.3478291035,        0.3974609375,       -0.0971679688,       -0.1210937500,      -22.3541259766,      -23.0865478516,       25.2838134766
1488506609.3480939865,1488506609.3503909111,        0.3974609375,       -0.0971679688,       -0.1210937500,      -22.3083496094,      -23.0865478516,       25.2838134766
1488506609.3506779671,1488506609.3530459404,        0.3901367188,       -0.1098632812,       -0.0908203125,      -22.3083496094,      -26.9927978516,       30.3344726562
1488506609.3533320427,1488506609.3556199074,        0.3901367188,       -0.1098632812,       -0.0908203125,      -22.4304199219,      -23.5443115234,       30.3344726562
1488506609.3559041023,1488506609.3585860729,        0.3901367188,       -0.1098632812,       -0.0908203125,      -22.4304199219,      -23.5443115234,       35.3240966797
1488506609.3588728905,1488506609.3611619473,        0.3901367188,       -0.1098632812,       -0.0966796875,      -21.9726562500,      -24.2156982422,       35.3240966797
1488506609.3614480495,1488506609.3638100624,        0.4121093750,       -0.0922851562,       -0.0966796875,      -21.9726562500,      -24.2156982422,       40.2832031250
1488506609.3640949726,1488506609.3663859367,        0.4121093750,       -0.0922851562,       -0.0966796875,      -22.0184326172,      -24.6582031250,       40.2832031250
1488506609.3666710854,1488506609.3689570427,        0.4121093750,       -0.0922851562,       -0.0966796875,      -22.0184326172,      -24.6582031250,       44.1894531250
1488506609.3692429066,1488506609.3715329170,        0.4121093750,       -0.0922851562,       -0.1181640625,      -22.6745605469,      -24.8107910156,       45.4711914062
1488506609.3718159199,1488506609.3741109371,        0.4140625000,       -0.0844726562,       -0.1181640625,      -22.6745605469,      -24.8107910156,       45.4711914062
1488506609.3743970394,1488506609.3766849041,        0.4140625000,       -0.0844726562,       -0.1181640625,      -22.5524902344,      -25.6195068359,       50.2624511719
1488506609.3770830631,1488506609.3793740273,        0.4140625000,       -0.0844726562,       -0.1181640625,      -22.5524902344,      -25.6195068359,       50.2624511719
1488506609.3796598911,1488506609.3819589615,        0.4140625000,       -0.0688476562,       -0.1118164062,      -22.0031738281,      -26.1840820312,       54.0313720703
1488506609.3822450638,1488506609.3845388889,        0.4150390625,       -0.0688476562,       -0.1118164062,      -22.0031738281,      -26.1840820312,       54.0313720703
1488506609.3848249912,1488506609.3871159554,        0.4150390625,       -0.0688476562,       -0.1118164062,      -20.1568603516,      -26.9012451172,       58.4411621094
1488506609.3874011040,1488506609.3896899223,        0.4150390625,       -0.0688476562,       -0.1118164062,      -20.1568603516,      -26.9012451172,       58.4411621094
1488506609.3899741173,1488506609.3923099041,        0.4150390625,       -0.0341796875,       -0.1040039062,      -18.8903808594,      -27.5726318359,       62.2253417969
1488506609.3925950527,1488506609.3948879242,        0.4409179688,       -0.0341796875,       -0.1040039062,      -18.8903808594,      -27.5726318359,       62.2253417969
1488506609.3951730728,1488506609.3974609375,        0.4409179688,       -0.0341796875,       -0.1040039062,      -17.0440673828,      -28.4271240234,       66.8640136719
1488506609.3977460861,1488506609.4000329971,        0.4409179688,       -0.0341796875,       -0.1040039062,      -17.0440673828,      -28.4271240234,       66.8640136719
1488506609.4003200531,1488506609.4027910233,        0.4643554688,        0.0283203125,       -0.1142578125,      -17.0288085938,      -29.5562744141,       70.1599121094
1488506609.4030790329,1488506609.4053690434,        0.4643554688,        0.0283203125,       -0.1142578125,      -17.0288085938,      -29.5562744141,       70.1599121094
1488506609.4056570530,1488506609.4079558849,        0.4643554688,        0.0283203125,       -0.1142578125,      -17.4713134766,      -29.9835205078,       73.5626220703
1488506609.4082410336,1488506609.4105389118,        0.4643554688,        0.0283203125,       -0.1142578125,      -17.4713134766,      -29.9835205078,       73.5626220703
1488506609.4108231068,1488506609.4133179188,        0.4843750000,        0.0664062500,       -0.1113281250,      -17.4713134766,      -30.9753417969,       77.3162841797
1488506609.4136130810,1488506609.4160320759,        0.4843750000,        0.0664062500,       -0.1113281250,      -17.9138183594,      -30.9753417969,       77.3162841797
1488506609.4163260460,1488506609.4187450409,        0.4843750000,        0.0664062500,       -0.1113281250,      -17.9138183594,      -31.5856933594,       79.6051025391
1488506609.4190380573,1488506609.4214520454,        0.4843750000,        0.0664062500,       -0.1113281250,      -17.7764892578,      -31.5856933594,       79.6051025391
1488506609.4217569828,1488506609.4241769314,        0.5068359375,        0.0585937500,       -0.1137695312,      -17.7764892578,      -31.7993164062,       81.9244384766
1488506609.4244699478,1488506609.4268860817,        0.5068359375,        0.0585937500,       -0.1137695312,      -17.4102783203,      -31.7993164062,       81.9244384766
1488506609.4271790981,1488506609.4295969009,        0.5068359375,        0.0585937500,       -0.1137695312,      -17.4102783203,      -31.7382812500,       84.5184326172
1488506609.4298889637,1488506609.4322910309,        0.5068359375,        0.0585937500,       -0.1020507812,      -16.7999267578,      -31.7382812500,       84.5184326172
1488506609.4325768948,1488506609.4348709583,        0.5283203125,        0.0708007812,       -0.1020507812,      -16.7999267578,      -31.7840576172,       86.4410400391
1488506609.4351580143,1488506609.4374558926,        0.5283203125,        0.0708007812,       -0.1020507812,      -16.3421630859,      -31.7840576172,       86.4410400391
1488506609.4377419949,1488506609.4400329590,        0.5283203125,        0.0708007812,       -0.1020507812,      -16.3421630859,      -31.7840576172,       88.1195068359
1488506609.4404270649,1488506609.4427900314,        0.5283203125,        0.0683593750,       -0.0937500000,      -15.8691406250,      -32.1197509766,       88.1195068359
1488506609.4430849552,1488506609.4455029964,        0.5312500000,        0.0683593750,       -0.0937500000,      -15.8691406250,      -32.1197509766,       89.7216796875
1488506609.4457950592,1488506609.4482100010,        0.5312500000,        0.0683593750,       -0.0937500000,      -14.9688720703,      -32.0434570312,       89.7216796875
1488506609.4485859871,1488506609.4508979321,        0.5312500000,        0.0683593750,       -0.0937500000,      -14.9688720703,      -32.0434570312,       91.5069580078
1488506609.4511859417,1488506609.4536840916,        0.5590820312,        0.0595703125,       -0.1098632812,      -14.1906738281,      -31.7077636719,       91.5069580078
1488506609.4539799690,1488506609.4563601017,        0.5590820312,        0.0595703125,       -0.1098632812,      -14.1906738281,      -31.7077636719,       93.4600830078
1488506609.4566531181,1488506609.4594190121,        0.5590820312,        0.0595703125,       -0.1098632812,      -13.0920410156,      -32.6843261719,       93.4600830078
1488506609.4597160816,1488506609.4621450901,        0.5590820312,        0.0595703125,       -0.1098632812,      -13.0920410156,      -33.5998535156,       94.9554443359
1488506609.4624381065,1488506609.4648609161,        0.5615234375,        0.0605468750,       -0.0961914062,      -11.1694335938,      -33.5998535156,       94.9554443359
1488506609.4651539326,1488506609.4675729275,        0.5615234375,        0.0605468750,       -0.0961914062,      -11.1694335938,      -33.7524414062,       96.1761474609
1488506609.4678668976,1488506609.4702830315,        0.5615234375,        0.0605468750,       -0.0961914062,       -8.1176757812,      -33.7524414062,       96.1761474609
1488506609.4705729485,1488506609.4730141163,        0.5615234375,        0.0810546875,       -0.0976562500,       -8.1176757812,      -34.0118408203,       97.3815917969
1488506609.4733049870,1488506609.4757249355,        0.5708007812,        0.0810546875,       -0.0976562500,       -4.3945312500,      -34.0118408203,       97.3815917969
1488506609.4760150909,1488506609.4784309864,        0.5708007812,        0.0810546875,       -0.0976562500,       -4.3945312500,      -34.0118408203,       97.4121093750
1488506609.4787199497,1488506609.4811449051,        0.5708007812,        0.0810546875,       -0.0976562500,       -0.5035400391,      -33.3557128906,       97.4121093750
1488506609.4814369678,1488506609.4837849140,        0.5634765625,        0.0937500000,       -0.0996093750,       -0.5035400391,      -33.3557128906,       97.5646972656
1488506609.4840691090,1488506609.4863700867,        0.5634765625,        0.0937500000,       -0.0996093750,        2.7313232422,      -33.1573486328,       97.5646972656
1488506609.4866518974,1488506609.4889459610,        0.5634765625,        0.0937500000,       -0.0996093750,        2.7313232422,      -33.1573486328,       97.4273681641
1488506609.4892280102,1488506609.4915220737,        0.5634765625,        0.0937500000,       -0.0996093750,        6.0424804688,      -32.9132080078,       97.4273681641
1488506609.4918019772,1488506609.4941079617,        0.5815429688,        0.1328125000,       -0.1064453125,        6.0424804688,      -32.9132080078,      101.3336181641
1488506609.4943909645,1488506609.4966819286,        0.5815429688,        0.1328125000,       -0.1064453125,        8.1634521484,      -31.2805175781,       98.5260009766
1488506609.4969639778,1488506609.4992599487,        0.5815429688,        0.1328125000,       -0.1064453125,        8.1634521484,      -31.2805175781,       98.5260009766
1488506609.4995419979,1488506609.5020120144,        0.5815429688,        0.1328125000,       -0.1064453125,        9.0637207031,      -30.2734375000,      100.1281738281
1488506609.5022950172,1488506609.5045900345,        0.5874023438,        0.1240234375,       -0.0957031250,        9.0637207031,      -30.2734375000,      100.1281738281
1488506609.5049839020,1488506609.5072839260,        0.5874023438,        0.1240234375,       -0.0957031250,       11.7950439453,      -29.7088623047,      100.1739501953
1488506609.5075719357,1488506609.5098640919,        0.5874023438,        0.1240234375,       -0.0957031250,       11.7950439453,      -29.7088623047,      100.1739501953
1488506609.5101499557,1488506609.5126280785,        0.5874023438,        0.1240234375,       -0.0957031250,       16.7846679688,      -29.0222167969,       98.9532470703
1488506609.5129220486,1488506609.5153501034,        0.5849609375,        0.1171875000,       -0.1015625000,       16.7846679688,      -29.0222167969,       98.9532470703
1488506609.5156419277,1488506609.5180580616,        0.5849609375,        0.1171875000,       -0.1015625000,       22.5372314453,      -28.6407470703,       98.6175537109
1488506609.5183498859,1488506609.5207660198,        0.5849609375,        0.1171875000,       -0.1015625000,       22.5372314453,      -28.6407470703,       98.6175537109
1488506609.5210568905,1488506609.5234398842,        0.5849609375,        0.1245117188,       -0.1240234375,       27.4353027344,      -28.2897949219,       97.6715087891
1488506609.5237269402,1488506609.5260210037,        0.5864257812,        0.1245117188,       -0.1240234375,       27.4353027344,      -28.2897949219,       97.6715087891
1488506609.5263059139,1488506609.5286040306,        0.5864257812,        0.1245117188,       -0.1240234375,       33.0963134766,      -26.6113281250,       96.5881347656
1488506609.5288879871,1488506609.5311810970,        0.5864257812,        0.1245117188,       -0.1240234375,       33.0963134766,      -26.6113281250,       96.5881347656
1488506609.5314660072,1488506609.5339219570,        0.5864257812,        0.1333007812,       -0.1308593750,       38.7420654297,      -26.1993408203,       96.0083007812
1488506609.5342140198,1488506609.5366370678,        0.5942382812,        0.1333007812,       -0.1308593750,       38.7420654297,      -26.1993408203,       96.0083007812
1488506609.5369288921,1488506609.5393459797,        0.5942382812,        0.1333007812,       -0.1308593750,       43.0145263672,      -25.6042480469,       94.7418212891
1488506609.5396389961,1488506609.5421049595,        0.5942382812,        0.1333007812,       -0.1308593750,       43.0145263672,      -25.6042480469,       94.7418212891
1488506609.5423970222,1488506609.5448150635,        0.6079101562,        0.1386718750,       -0.1342773438,       46.1883544922,      -24.9938964844,       93.0633544922
1488506609.5451049805,1488506609.5475249290,        0.6079101562,        0.1386718750,       -0.1342773438,       46.1883544922,      -24.9938964844,       93.0633544922
1488506609.5478150845,1488506609.5502350330,        0.6079101562,        0.1386718750,       -0.1342773438,       50.2014160156,      -24.4445800781,       91.6442871094
1488506609.5505280495,1488506609.5529589653,        0.6079101562,        0.1386718750,       -0.1342773438,       50.2014160156,      -24.4445800781,       91.6442871094
1488506609.5532510281,1488506609.5556709766,        0.6298828125,        0.1533203125,       -0.1201171875,       53.4362792969,      -22.1405029297,       91.1560058594
1488506609.5559649467,1488506609.5583848953,        0.6298828125,        0.1533203125,       -0.1201171875,       53.4362792969,      -22.1405029297,       91.1560058594
1488506609.5586769581,1488506609.5610918999,        0.6298828125,        0.1533203125,       -0.1201171875,       54.8553466797,      -19.1345214844,       90.8508300781
1488506609.5613849163,1488506609.5638101101,        0.6298828125,        0.1806640625,       -0.1010742188,       54.8553466797,      -19.1345214844,       90.8508300781
1488506609.5641040802,1488506609.5665259361,        0.6499023438,        0.1806640625,       -0.1010742188,       57.9071044922,      -17.0288085938,       90.0573730469
1488506609.5668179989,1488506609.5694661140,        0.6499023438,        0.1806640625,       -0.1010742188,       57.9071044922,      -17.0288085938,       90.0573730469
1488506609.5698699951,1488506609.5726799965,        0.6499023438,        0.1806640625,       -0.1010742188,       57.3577880859,      -14.5721435547,       89.5843505859
1488506609.5729680061,1488506609.5752580166,        0.6362304688,        0.2084960938,       -0.0498046875,       57.3577880859,      -14.5721435547,       89.5843505859
1488506609.5755441189,1488506609.5778369904,        0.6362304688,        0.2084960938,       -0.0498046875,       55.2978515625,      -11.6424560547,       88.4857177734
1488506609.5781240463,1488506609.5804159641,        0.6362304688,        0.2084960938,       -0.0498046875,       55.2978515625,      -11.6424560547,       88.4857177734
1488506609.5807020664,1488506609.5831170082,        0.6362304688,        0.2084960938,       -0.0498046875,       54.3670654297,       -8.7280273438,       86.1511230469
1488506609.5834081173,1488506609.5858309269,        0.6450195312,        0.2104492188,       -0.0541992188,       54.3670654297,       -8.7280273438,       86.1511230469
1488506609.5861220360,1488506609.5885379314,        0.6450195312,        0.2104492188,       -0.0541992188,       55.0842285156,       -6.1035156250,       83.8317871094
1488506609.5888290405,1488506609.5912489891,        0.6450195312,        0.2104492188,       -0.0541992188,       55.0842285156,       -6.1035156250,       83.8317871094
1488506609.5915389061,1488506609.5939700603,        0.6450195312,        0.2104492188,       -0.0913085938,       56.2438964844,       -3.0822753906,       81.2072753906
1488506609.5942609310,1488506609.5966761112,        0.6469726562,        0.1923828125,       -0.0913085938,       56.2438964844,       -3.0822753906,       81.2072753906
1488506609.5969660282,1488506609.5993850231,        0.6469726562,        0.1923828125,       -0.0913085938,       56.6864013672,       -0.2441406250,       77.8198242188
1488506609.5996749401,1488506609.6020898819,        0.6469726562,        0.1923828125,       -0.0913085938,       56.6864013672,       -0.2441406250,       77.8198242188
1488506609.6023728848,1488506609.6046659946,        0.6425781250,        0.1972656250,       -0.1137695312,       57.8613281250,        2.2430419922,       74.4323730469
1488506609.6049480438,1488506609.6072421074,        0.6425781250,        0.1972656250,       -0.1137695312,       57.8613281250,        2.2430419922,       74.4323730469
1488506609.6075239182,1488506609.6098160744,        0.6425781250,        0.1972656250,       -0.1137695312,       59.4024658203,        5.2185058594,       70.3277587891
1488506609.6100969315,1488506609.6123969555,        0.6425781250,        0.1972656250,       -0.1137695312,       59.4024658203,        5.2185058594,       70.3277587891
1488506609.6126790047,1488506609.6149790287,        0.6230468750,        0.2124023438,       -0.1445312500,       61.2335205078,        7.2174072266,       66.6046142578
1488506609.6152589321,1488506609.6175520420,        0.6230468750,        0.2124023438,       -0.1445312500,       61.2335205078,        7.2174072266,       66.6046142578
1488506609.6178340912,1488506609.6201229095,        0.6230468750,        0.2124023438,       -0.1445312500,       65.1397705078,        8.3465576172,       62.7288818359
1488506609.6204049587,1488506609.6228098869,        0.6230468750,        0.2124023438,       -0.1445312500,       62.5610351562,        8.3465576172,       62.7288818359
1488506609.6230919361,1488506609.6253879070,        0.5893554688,        0.2041015625,       -0.1679687500,       62.5610351562,        9.5520019531,       58.3343505859
1488506609.6256699562,1488506609.6279668808,        0.5893554688,        0.2041015625,       -0.1679687500,       64.4836425781,        9.5520019531,       58.3343505859
1488506609.6282470226,1488506609.6305398941,        0.5893554688,        0.2041015625,       -0.1679687500,       64.4836425781,        9.5520019531,       54.9774169922
1488506609.6308209896,1488506609.6332728863,        0.5893554688,        0.2041015625,       -0.1679687500,       66.3452148438,       10.0555419922,       54.9774169922
1488506609.6336770058,1488506609.6361010075,        0.5756835938,        0.2138671875,       -0.1948242188,       66.3452148438,       10.0555419922,       51.3916015625
1488506609.6363949776,1488506609.6388070583,        0.5756835938,        0.2138671875,       -0.1948242188,       67.3522949219,       10.0097656250,       51.3916015625
1488506609.6390988827,1488506609.6415150166,        0.5756835938,        0.2138671875,       -0.1948242188,       67.3522949219,       10.0097656250,       48.2482910156
1488506609.6418159008,1488506609.6441140175,        0.5756835938,        0.2138671875,       -0.1889648438,       67.5964355469,        9.6282958984,       48.2482910156
1488506609.6443939209,1488506609.6466848850,        0.5693359375,        0.2324218750,       -0.1889648438,       67.5964355469,        9.6282958984,       44.7845458984
1488506609.6469650269,1488506609.6492660046,        0.5693359375,        0.2324218750,       -0.1889648438,       67.3065185547,        9.4604492188,       44.7845458984
1488506609.6495459080,1488506609.6518969536,        0.5693359375,        0.2324218750,       -0.1889648438,       67.3065185547,        9.4604492188,       44.7845458984
1488506609.6521790028,1488506609.6546189785,        0.5693359375,        0.2324218750,       -0.1845703125,       66.4978027344,        9.1857910156,       41.7938232422
1488506609.6549010277,1488506609.6571869850,        0.5498046875,        0.2392578125,       -0.1845703125,       66.4978027344,        9.1857910156,       41.7938232422
1488506609.6574690342,1488506609.6597568989,        0.5498046875,        0.2392578125,       -0.1845703125,       65.5059814453,        8.9569091797,       38.6047363281
1488506609.6600389481,1488506609.6624801159,        0.5498046875,        0.2392578125,       -0.1845703125,       65.5059814453,        8.9569091797,       38.6047363281
1488506609.6627619267,1488506609.6650490761,        0.5498046875,        0.2441406250,       -0.1611328125,       64.1174316406,        8.4991455078,       34.7747802734
1488506609.6653299332,1488506609.6677689552,        0.5263671875,        0.2441406250,       -0.1611328125,       64.1174316406,        8.4991455078,       34.7747802734
1488506609.6680641174,1488506609.6703670025,        0.5263671875,        0.2441406250,       -0.1611328125,       62.7899169922,        8.3465576172,       31.1431884766
1488506609.6706500053,1488506609.6729478836,        0.5263671875,        0.2441406250,       -0.1611328125,       62.7899169922,        8.3465576172,       31.1431884766
1488506609.6732289791,1488506609.6755220890,        0.5317382812,        0.2099609375,       -0.1591796875,       62.5457763672,        7.9040527344,       27.3742675781
1488506609.6758029461,1488506609.6780939102,        0.5317382812,        0.2099609375,       -0.1591796875,       62.5457763672,        7.9040527344,       27.3742675781
1488506609.6783750057,1488506609.6806631088,        0.5317382812,        0.2099609375,       -0.1591796875,       63.1866455078,        7.2784423828,       23.4222412109
1488506609.6809449196,1488506609.6832840443,        0.5317382812,        0.2099609375,       -0.1591796875,       63.1866455078,        7.2784423828,       23.4222412109
1488506609.6835660934,1488506609.6858530045,        0.5395507812,        0.1806640625,       -0.1552734375,       64.3005371094,        6.8664550781,       19.0277099609
1488506609.6861341000,1488506609.6884241104,        0.5395507812,        0.1806640625,       -0.1552734375,       64.3005371094,        6.8664550781,       19.0277099609
1488506609.6887049675,1488506609.6909949780,        0.5395507812,        0.1806640625,       -0.1552734375,       64.3005371094,        6.2561035156,       14.8925781250
1488506609.6912789345,1488506609.6936368942,        0.5395507812,        0.1806640625,       -0.1552734375,       64.9719238281,        6.2561035156,       14.8925781250
1488506609.6939189434,1488506609.6962080002,        0.5458984375,        0.1494140625,       -0.1630859375,       64.9719238281,        5.6762695312,       11.3983154297
1488506609.6965980530,1488506609.6988880634,        0.5458984375,        0.1494140625,       -0.1630859375,       65.1702880859,        5.6762695312,       11.3983154297
1488506609.6991679668,1488506609.7014520168,        0.5458984375,        0.1494140625,       -0.1630859375,       65.1702880859,        5.6762695312,        7.5225830078
1488506609.7017300129,1488506609.7040228844,        0.5458984375,        0.1494140625,       -0.1630859375,       64.8498535156,        5.2490234375,        7.5225830078
1488506609.7042989731,1488506609.7065839767,        0.5502929688,        0.1455078125,       -0.1713867188,       64.8498535156,        5.2490234375,        3.6468505859
1488506609.7068619728,1488506609.7091479301,        0.5502929688,        0.1455078125,       -0.1713867188,       65.0787353516,        4.7302246094,        3.6468505859
1488506609.7094259262,1488506609.7118558884,        0.5502929688,        0.1455078125,       -0.1713867188,       65.0787353516,        4.7302246094,        3.6468505859
1488506609.7121360302,1488506609.7144260406,        0.5502929688,        0.1455078125,       -0.1713867188,       64.9719238281,        4.5318603516,        0.5798339844
1488506609.7147030830,1488506609.7169909477,        0.5590820312,        0.1201171875,       -0.1616210938,       64.9719238281,        4.5318603516,        0.5798339844
1488506609.7172689438,1488506609.7195611000,        0.5590820312,        0.1201171875,       -0.1616210938,       65.3839111328,        4.1351318359,       -2.5634765625
1488506609.7198390961,1488506609.7223029137,        0.5590820312,        0.1201171875,       -0.1616210938,       65.3839111328,        4.1351318359,       -2.5634765625
1488506609.7225840092,1488506609.7248709202,        0.5590820312,        0.1201171875,       -0.1699218750,       65.4449462891,        3.3721923828,       -5.6152343750
1488506609.7251501083,1488506609.7274351120,        0.5498046875,        0.1098632812,       -0.1699218750,       65.4449462891,        3.3721923828,       -5.6152343750
1488506609.7277131081,1488506609.7300019264,        0.5498046875,        0.1098632812,       -0.1699218750,       63.9648437500,        2.9296875000,       -8.1024169922
1488506609.7302789688,1488506609.7325730324,        0.5498046875,        0.1098632812,       -0.1699218750,       63.9648437500,        2.9296875000,       -8.1024169922
1488506609.7328519821,1488506609.7351400852,        0.5498046875,        0.1098632812,       -0.1538085938,       61.8743896484,        2.5177001953,      -10.3454589844
1488506609.7354230881,1488506609.7377099991,        0.5146484375,        0.1103515625,       -0.1538085938,       61.8743896484,        2.5177001953,      -10.3454589844
1488506609.7379910946,1488506609.7402880192,        0.5146484375,        0.1103515625,       -0.1538085938,       59.4635009766,        2.4261474609,      -11.9628906250
1488506609.7405700684,1488506609.7429111004,        0.5146484375,        0.1103515625,       -0.1538085938,       59.4635009766,        2.4261474609,      -11.9628906250
1488506609.7431941032,1488506609.7454800606,        0.5146484375,        0.1103515625,       -0.1635742188,       56.7474365234,        1.8005371094,      -13.2446289062
1488506609.7457609177,1488506609.7480499744,        0.4956054688,        0.0947265625,       -0.1635742188,       56.7474365234,        1.8005371094,      -13.2446289062
1488506609.7483320236,1488506609.7506148815,        0.4956054688,        0.0947265625,       -0.1635742188,       56.7474365234,        1.1444091797,      -14.7552490234
1488506609.7508959770,1488506609.7532629967,        0.4956054688,        0.0947265625,       -0.1635742188,       53.0242919922,        1.1444091797,      -14.7552490234
1488506609.7535459995,1488506609.7559080124,        0.4956054688,        0.0717773438,       -0.1713867188,       53.0242919922,        1.1444091797,      -15.6097412109
1488506609.7561919689,1488506609.7584819794,        0.4838867188,        0.0717773438,       -0.1713867188,       49.3164062500,        0.3509521484,      -15.6097412109
1488506609.7588739395,1488506609.7611730099,        0.4838867188,        0.0717773438,       -0.1713867188,       49.3164062500,        0.3509521484,      -15.9606933594
1488506609.7614560127,1488506609.7639400959,        0.4838867188,        0.0717773438,       -0.1713867188,       44.6929931641,       -0.7476806641,      -15.9606933594
1488506609.7642219067,1488506609.7665150166,        0.4853515625,        0.0605468750,       -0.1723632812,       44.6929931641,       -0.7476806641,      -15.9606933594
1488506609.7667970657,1488506609.7697770596,        0.4853515625,        0.0605468750,       -0.1723632812,       38.5894775391,       -1.7547607422,      -15.9606933594
1488506609.7700629234,1488506609.7723720074,        0.4853515625,        0.0605468750,       -0.1723632812,       38.5894775391,       -2.8686523438,      -16.3269042969
1488506609.7726550102,1488506609.7749459743,        0.4853515625,        0.0605468750,       -0.1723632812,       32.7453613281,       -2.8686523438,      -16.3269042969
1488506609.7752289772,1488506609.7775199413,        0.4853515625,        0.0727539062,       -0.1767578125,       32.7453613281,       -2.8686523438,      -15.7470703125
1488506609.7778019905,1488506609.7800970078,        0.4853515625,        0.0727539062,       -0.1767578125,       25.6195068359,       -4.1198730469,      -15.7470703125
1488506609.7803781033,1488506609.7827301025,        0.4853515625,        0.0727539062,       -0.1767578125,       25.6195068359,       -4.1198730469,      -11.8408203125
1488506609.7830119133,1488506609.7853040695,        0.4853515625,        0.0727539062,       -0.1767578125,       17.5933837891,       -4.9285888672,      -15.3808593750
1488506609.7855849266,1488506609.7878770828,        0.5048828125,        0.0629882812,       -0.1772460938,       17.5933837891,       -4.9285888672,      -15.3808593750
1488506609.7881600857,1488506609.7904469967,        0.5048828125,        0.0629882812,       -0.1772460938,        9.2315673828,       -5.9356689453,      -15.1824951172
1488506609.7907280922,1488506609.7930700779,        0.5048828125,        0.0629882812,       -0.1772460938,        9.2315673828,       -5.9356689453,      -15.1824951172
1488506609.7933490276,1488506609.7956318855,        0.5048828125,        0.0629882812,       -0.1806640625,        1.9836425781,       -7.0190429688,      -15.3045654297
1488506609.7959120274,1488506609.7981979847,        0.5278320312,        0.0595703125,       -0.1806640625,        1.9836425781,       -7.0190429688,      -15.3045654297
1488506609.7984750271,1488506609.8007700443,        0.5278320312,        0.0595703125,       -0.1806640625,       -4.6234130859,       -7.9956054688,      -14.8925781250
1488506609.8010480404,1488506609.8033390045,        0.5278320312,        0.0595703125,       -0.1806640625,       -4.6234130859,       -7.9956054688,      -14.8925781250
1488506609.8036150932,1488506609.8059051037,        0.5278320312,        0.0595703125,       -0.1586914062,      -10.9100341797,       -8.8653564453,      -15.1062011719
1488506609.8061869144,1488506609.8084809780,        0.5273437500,        0.0566406250,       -0.1586914062,      -10.9100341797,       -8.8653564453,      -15.1062011719
1488506609.8087639809,1488506609.8110499382,        0.5273437500,        0.0566406250,       -0.1586914062,      -15.9149169922,       -9.7961425781,      -15.6555175781
1488506609.8113319874,1488506609.8137609959,        0.5273437500,        0.0566406250,       -0.1586914062,      -15.9149169922,       -9.7961425781,      -15.6555175781
1488506609.8140449524,1488506609.8163330555,        0.5273437500,        0.0571289062,       -0.1586914062,      -19.5312500000,      -10.7879638672,      -15.8843994141
1488506609.8166189194,1488506609.8189079762,        0.5356445312,        0.0571289062,       -0.1586914062,      -19.5312500000,      -10.7879638672,      -15.8843994141
1488506609.8191940784,1488506609.8214910030,        0.5356445312,        0.0571289062,       -0.1586914062,      -23.4375000000,      -12.0086669922,      -16.3269042969
1488506609.8218719959,1488506609.8242919445,        0.5356445312,        0.0571289062,       -0.1586914062,      -23.3917236328,      -12.0086669922,      -16.3269042969
1488506609.8247001171,1488506609.8271000385,        0.5478515625,        0.0517578125,       -0.1606445312,      -31.2042236328,      -12.4359130859,      -16.2811279297
1488506609.8273909092,1488506609.8297948837,        0.5478515625,        0.0517578125,       -0.1606445312,      -27.7709960938,      -12.4359130859,      -16.2811279297
1488506609.8300869465,1488506609.8324990273,        0.5478515625,        0.0517578125,       -0.1606445312,      -31.6772460938,      -12.1765136719,      -16.2048339844
1488506609.8327879906,1488506609.8351950645,        0.5478515625,        0.0517578125,       -0.1606445312,      -31.4483642578,      -12.1765136719,      -16.2048339844
1488506609.8354840279,1488506609.8378829956,        0.5493164062,        0.0439453125,       -0.1533203125,      -31.4483642578,      -12.0849609375,      -16.6625976562
1488506609.8381729126,1488506609.8405709267,        0.5493164062,        0.0439453125,       -0.1533203125,      -34.2559814453,      -12.0849609375,      -16.6625976562
1488506609.8408598900,1488506609.8433101177,        0.5493164062,        0.0439453125,       -0.1533203125,      -38.1622314453,      -12.1459960938,      -17.1051025391
1488506609.8436028957,1488506609.8460059166,        0.5493164062,        0.0439453125,       -0.1533203125,      -37.7655029297,      -12.1459960938,      -17.1051025391
1488506609.8462970257,1488506609.8487000465,        0.5434570312,        0.0161132812,       -0.1406250000,      -37.7655029297,      -11.8103027344,      -17.5628662109
1488506609.8489909172,1488506609.8514020443,        0.5434570312,        0.0161132812,       -0.1406250000,      -39.5660400391,      -11.8103027344,      -17.5628662109
1488506609.8517038822,1488506609.8539960384,        0.5434570312,        0.0161132812,       -0.1406250000,      -39.5660400391,       -7.9040527344,      -17.8680419922
1488506609.8542768955,1488506609.8565781116,        0.5434570312,       -0.1088867188,       -0.1386718750,      -40.8935546875,      -10.9405517578,      -17.8680419922
1488506609.8568630219,1488506609.8591630459,        0.5473632812,       -0.0166015625,       -0.1386718750,      -40.8935546875,      -10.9405517578,      -18.4020996094
1488506609.8594470024,1488506609.8617908955,        0.5473632812,       -0.0166015625,       -0.1386718750,      -41.5496826172,      -10.0097656250,      -18.4020996094
1488506609.8620870113,1488506609.8645091057,        0.5473632812,       -0.0166015625,       -0.1386718750,      -41.5496826172,      -10.0097656250,      -19.5007324219
1488506609.8648009300,1488506609.8672149181,        0.5473632812,       -0.0292968750,       -0.1357421875,      -42.7246093750,       -9.4146728516,      -19.5007324219
1488506609.8675038815,1488506609.8699169159,        0.5732421875,       -0.0292968750,       -0.1357421875,      -42.7246093750,       -9.4146728516,      -20.7519531250
1488506609.8702070713,1488506609.8725819588,        0.5732421875,       -0.0292968750,       -0.1357421875,      -43.0145263672,       -8.3770751953,      -20.7519531250
1488506609.8728640079,1488506609.8751599789,        0.5732421875,       -0.0292968750,       -0.1357421875,      -43.0145263672,       -8.3770751953,      -20.7519531250
1488506609.8754410744,1488506609.8777499199,        0.5834960938,       -0.0498046875,       -0.1430664062,      -43.2281494141,       -8.1787109375,      -21.9268798828
1488506609.8780510426,1488506609.8803548813,        0.5834960938,       -0.0498046875,       -0.1430664062,      -43.2281494141,       -8.1787109375,      -21.9268798828
1488506609.8806409836,1488506609.8833310604,        0.5834960938,       -0.0498046875,       -0.1430664062,      -43.6401367188,       -8.1634521484,      -23.3001708984
1488506609.8836228848,1488506609.8860459328,        0.5834960938,       -0.0498046875,       -0.1430664062,      -43.6401367188,       -8.1634521484,      -27.2064208984
1488506609.8863379955,1488506609.8887510300,        0.6103515625,       -0.0478515625,       -0.1547851562,      -45.0134277344,       -7.9956054688,      -24.8718261719
1488506609.8891479969,1488506609.8915719986,        0.6103515625,       -0.0478515625,       -0.1547851562,      -45.0134277344,       -7.9956054688,      -24.8718261719
1488506609.8919079304,1488506609.8943181038,        0.6103515625,       -0.0478515625,       -0.1547851562,      -46.7834472656,       -7.6599121094,      -26.3214111328
1488506609.8946080208,1488506609.8970289230,        0.6103515625,       -0.0478515625,       -0.1523437500,      -46.7834472656,       -7.6599121094,      -30.2276611328
1488506609.8973178864,1488506609.8997409344,        0.6303710938,       -0.0419921875,       -0.1523437500,      -47.9888916016,       -7.4615478516,      -27.6794433594
1488506609.9000329971,1488506609.9024560452,        0.6303710938,       -0.0419921875,       -0.1523437500,      -47.9888916016,       -7.4615478516,      -27.6794433594
1488506609.9027390480,1488506609.9050350189,        0.6303710938,       -0.0419921875,       -0.1523437500,      -48.7365722656,       -7.3089599609,      -29.0679931641
