time_stamp before, time_stamp after, Acceleration x, Acceleration y, Acceleration z, Gyro x, Gyro y, Gyro z
1488506507.0306930542,1488506507.0347940922,        0.5361328125,        0.1118164062,       -0.2739257812,      -17.7307128906,       -4.8522949219,        8.9721679688
1488506507.0350959301,1488506507.0373868942,        0.5361328125,        0.1118164062,       -0.2739257812,      -15.7165527344,       -3.9672851562,        8.9721679688
1488506507.0376639366,1488506507.0399529934,        0.5361328125,        0.1118164062,       -0.2739257812,      -15.7165527344,       -3.9672851562,        8.3618164062
1488506507.0402309895,1488506507.0425729752,        0.5361328125,        0.1118164062,       -0.2739257812,      -14.4805908203,       -3.9825439453,        8.3618164062
1488506507.0428578854,1488506507.0452740192,        0.5463867188,        0.1225585938,       -0.2890625000,      -14.4805908203,       -3.9825439453,        8.3618164062
1488506507.0455589294,1488506507.0479760170,        0.5463867188,        0.1225585938,       -0.2890625000,      -14.1601562500,       -3.4179687500,        7.8277587891
1488506507.0482590199,1488506507.0506711006,        0.5463867188,        0.1225585938,       -0.2890625000,      -14.1601562500,       -3.4179687500,        3.9215087891
1488506507.0509541035,1488506507.0537838936,        0.5463867188,        0.1225585938,       -0.2807617188,      -14.3737792969,       -2.3803710938,        7.5836181641
1488506507.0540630817,1488506507.0563600063,        0.5522460938,        0.1279296875,       -0.2807617188,      -14.3737792969,       -2.3803710938,        7.0800781250
1488506507.0566389561,1488506507.0589330196,        0.5522460938,        0.1279296875,       -0.2807617188,      -14.1143798828,       -2.2125244141,        7.0800781250
1488506507.0592110157,1488506507.0614969730,        0.5522460938,        0.1279296875,       -0.2807617188,      -14.1143798828,       -2.2125244141,        7.0800781250
1488506507.0617790222,1488506507.0640609264,        0.5522460938,        0.1015625000,       -0.2812500000,      -13.8702392578,       -0.9613037109,        6.2866210938
1488506507.0643379688,1488506507.0666251183,        0.5654296875,        0.1015625000,       -0.2812500000,      -13.8702392578,       -0.9613037109,        6.2866210938
1488506507.0669000149,1488506507.0691831112,        0.5654296875,        0.1015625000,       -0.2812500000,      -13.4124755859,       -0.2288818359,        5.5847167969
1488506507.0694599152,1488506507.0717949867,        0.5654296875,        0.1015625000,       -0.2812500000,      -13.4124755859,       -0.2288818359,        5.5847167969
1488506507.0720698833,1488506507.0743620396,        0.5683593750,        0.1132812500,       -0.2895507812,      -12.6953125000,       -0.1831054688,        4.5471191406
1488506507.0746409893,1488506507.0769290924,        0.5683593750,        0.1132812500,       -0.2895507812,      -12.6953125000,       -0.1831054688,        4.5471191406
1488506507.0772070885,1488506507.0794990063,        0.5683593750,        0.1132812500,       -0.2895507812,      -12.6647949219,        0.1831054688,        3.8909912109
1488506507.0797770023,1488506507.0821321011,        0.5683593750,        0.1132812500,       -0.2895507812,      -12.6647949219,        0.1831054688,        3.8909912109
1488506507.0824100971,1488506507.0846979618,        0.5756835938,        0.1079101562,       -0.2817382812,      -11.6271972656,        0.6256103516,        3.4027099609
1488506507.0849759579,1488506507.0872690678,        0.5756835938,        0.1079101562,       -0.2817382812,      -11.6271972656,        0.6256103516,        3.4027099609
1488506507.0875470638,1488506507.0898349285,        0.5756835938,        0.1079101562,       -0.2817382812,      -11.3220214844,        1.1444091797,        2.5634765625
1488506507.0901129246,1488506507.0924570560,        0.5756835938,        0.1079101562,       -0.2817382812,      -11.3220214844,        1.1444091797,        2.5634765625
1488506507.0927340984,1488506507.0950241089,        0.5795898438,        0.0952148438,       -0.2812500000,      -11.3220214844,        1.5563964844,        2.4414062500
1488506507.0954599380,1488506507.0977509022,        0.5795898438,        0.0952148438,       -0.2812500000,      -10.6811523438,        1.5563964844,        2.4414062500
1488506507.0980300903,1488506507.1003220081,        0.5795898438,        0.0952148438,       -0.2812500000,      -10.6811523438,        1.6021728516,        2.4414062500
1488506507.1005990505,1488506507.1030209064,        0.5795898438,        0.0952148438,       -0.2812500000,      -10.3912353516,        1.6021728516,        2.4414062500
1488506507.1033000946,1488506507.1056749821,        0.5732421875,        0.1118164062,       -0.2841796875,      -10.3912353516,        1.6021728516,        2.7313232422
1488506507.1059548855,1488506507.1082489491,        0.5732421875,        0.1118164062,       -0.2841796875,      -10.1928710938,        1.3885498047,        2.7313232422
1488506507.1085269451,1488506507.1108160019,        0.5732421875,        0.1118164062,       -0.2841796875,      -10.1928710938,        1.3885498047,        2.1820068359
1488506507.1110939980,1488506507.1135849953,        0.5732421875,        0.1118164062,       -0.2841796875,      -10.3759765625,        1.5258789062,        2.1820068359
1488506507.1139569283,1488506507.1162559986,        0.5688476562,        0.1162109375,       -0.2597656250,      -10.3759765625,        1.5258789062,        1.7700195312
1488506507.1165370941,1488506507.1188259125,        0.5688476562,        0.1162109375,       -0.2597656250,       -9.4909667969,        1.4648437500,        1.7700195312
1488506507.1191010475,1488506507.1213910580,        0.5688476562,        0.1162109375,       -0.2597656250,       -9.4909667969,        1.4648437500,        1.7700195312
1488506507.1218578815,1488506507.1241469383,        0.5688476562,        0.1162109375,       -0.2651367188,       -7.8735351562,        1.0528564453,        1.1596679688
1488506507.1244199276,1488506507.1267049313,        0.5747070312,        0.1166992188,       -0.2651367188,       -7.8735351562,        1.0528564453,        1.1596679688
1488506507.1277689934,1488506507.1300599575,        0.5747070312,        0.1166992188,       -0.2651367188,       -7.2631835938,        0.9613037109,        1.0070800781
1488506507.1303369999,1488506507.1326770782,        0.5747070312,        0.1166992188,       -0.2651367188,       -7.2631835938,        0.9613037109,        0.8087158203
1488506507.1329538822,1488506507.1352419853,        0.5976562500,        0.1000976562,       -0.2626953125,       -7.0190429688,        1.4495849609,        0.8087158203
1488506507.1355168819,1488506507.1378059387,        0.5976562500,        0.1000976562,       -0.2626953125,       -7.0190429688,        1.4495849609,       -3.0975341797
1488506507.1380798817,1488506507.1403670311,        0.5976562500,        0.1000976562,       -0.2626953125,       -7.1105957031,        1.6784667969,       -0.1373291016
1488506507.1406409740,1488506507.1429378986,        0.5976562500,        0.1000976562,       -0.2626953125,       -7.1105957031,        1.6784667969,       -0.1373291016
1488506507.1432120800,1488506507.1454989910,        0.6240234375,        0.0659179688,       -0.2534179688,       -6.4544677734,        1.8615722656,       -0.4425048828
1488506507.1457719803,1488506507.1480610371,        0.6240234375,        0.0659179688,       -0.2534179688,       -6.4544677734,        1.8615722656,       -0.4425048828
1488506507.1483340263,1488506507.1506199837,        0.6240234375,        0.0659179688,       -0.2534179688,       -5.0964355469,        1.7089843750,       -0.4882812500
1488506507.1508939266,1488506507.1532568932,        0.6240234375,        0.0659179688,       -0.2534179688,       -5.0964355469,        1.7089843750,       -0.4882812500
1488506507.1535298824,1488506507.1558179855,        0.6093750000,        0.0913085938,       -0.2578125000,       -4.2572021484,        2.0294189453,       -1.3732910156
1488506507.1560909748,1488506507.1583809853,        0.6093750000,        0.0913085938,       -0.2578125000,       -4.2572021484,        2.0294189453,       -1.3732910156
1488506507.1587638855,1488506507.1610589027,        0.6093750000,        0.0913085938,       -0.2578125000,       -3.9367675781,        2.1514892578,       -1.2054443359
1488506507.1613318920,1488506507.1636509895,        0.6093750000,        0.0913085938,       -0.2578125000,       -3.9367675781,        2.1514892578,       -1.2054443359
1488506507.1639249325,1488506507.1662149429,        0.6035156250,        0.1240234375,       -0.2368164062,       -5.0659179688,        1.7089843750,       -0.5950927734
1488506507.1664910316,1488506507.1687819958,        0.6035156250,        0.1240234375,       -0.2368164062,       -5.0659179688,        1.7089843750,       -0.5950927734
1488506507.1690580845,1488506507.1713469028,        0.6035156250,        0.1240234375,       -0.2368164062,       -6.2561035156,        1.4801025391,       -0.4882812500
1488506507.1716198921,1488506507.1739521027,        0.6035156250,        0.1240234375,       -0.2368164062,       -6.2561035156,        1.4801025391,       -0.4882812500
1488506507.1742260456,1488506507.1765129566,        0.5893554688,        0.1264648438,       -0.2519531250,       -6.2561035156,        1.4648437500,       -1.0375976562
1488506507.1767868996,1488506507.1790709496,        0.5893554688,        0.1264648438,       -0.2519531250,       -6.7901611328,        1.4648437500,       -1.0375976562
1488506507.1793439388,1488506507.1816279888,        0.5893554688,        0.1264648438,       -0.2519531250,       -6.7901611328,        1.4648437500,       -0.8239746094
1488506507.1820759773,1488506507.1843729019,        0.5893554688,        0.1264648438,       -0.2519531250,       -7.5531005859,        1.3732910156,       -0.8239746094
1488506507.1846449375,1488506507.1869359016,        0.5825195312,        0.1259765625,       -0.2695312500,       -7.5531005859,        1.3732910156,       -0.9918212891
1488506507.1872079372,1488506507.1895010471,        0.5825195312,        0.1259765625,       -0.2695312500,       -8.8500976562,        1.3427734375,       -0.9918212891
1488506507.1897730827,1488506507.1921360493,        0.5825195312,        0.1259765625,       -0.2695312500,       -8.8500976562,        1.3427734375,       -0.9918212891
1488506507.1924169064,1488506507.1948189735,        0.5825195312,        0.1259765625,       -0.2812500000,       -9.4909667969,        2.0141601562,       -1.6479492188
1488506507.1951000690,1488506507.1975018978,        0.5869140625,        0.1040039062,       -0.2812500000,       -9.4909667969,        2.0141601562,       -1.6479492188
1488506507.1977829933,1488506507.2001860142,        0.5869140625,        0.1040039062,       -0.2812500000,       -9.6893310547,        2.1514892578,       -1.9989013672
1488506507.2004671097,1488506507.2029020786,        0.5869140625,        0.1040039062,       -0.2812500000,       -9.6893310547,        2.1514892578,       -1.9989013672
1488506507.2031810284,1488506507.2055940628,        0.5869140625,        0.1108398438,       -0.2968750000,       -9.6740722656,        2.1362304688,       -2.8228759766
1488506507.2058761120,1488506507.2082929611,        0.5742187500,        0.1108398438,       -0.2968750000,       -9.6740722656,        2.1362304688,       -2.8228759766
1488506507.2085750103,1488506507.2109899521,        0.5742187500,        0.1108398438,       -0.2968750000,      -10.5743408203,        2.6245117188,       -3.4484863281
1488506507.2112779617,1488506507.2136011124,        0.5742187500,        0.1108398438,       -0.2968750000,      -10.5743408203,        2.6245117188,       -3.4484863281
1488506507.2138791084,1488506507.2161729336,        0.5708007812,        0.1103515625,       -0.2734375000,      -10.7574462891,        2.7618408203,       -3.9978027344
1488506507.2164499760,1488506507.2187490463,        0.5708007812,        0.1103515625,       -0.2734375000,      -10.7574462891,        2.7618408203,       -3.9978027344
1488506507.2190270424,1488506507.2213239670,        0.5708007812,        0.1103515625,       -0.2734375000,       -8.7127685547,        2.8533935547,       -5.0201416016
1488506507.2217290401,1488506507.2241480350,        0.5708007812,        0.1103515625,       -0.2734375000,       -8.7127685547,        2.8533935547,       -5.0201416016
1488506507.2244310379,1488506507.2268509865,        0.5620117188,        0.0844726562,       -0.2539062500,       -5.5694580078,        2.5787353516,       -6.1492919922
1488506507.2271320820,1488506507.2295529842,        0.5620117188,        0.0844726562,       -0.2539062500,       -5.5694580078,        2.5787353516,       -6.1492919922
1488506507.2298359871,1488506507.2322950363,        0.5620117188,        0.0844726562,       -0.2539062500,       -3.5095214844,        3.3264160156,       -7.2631835938
1488506507.2325758934,1488506507.2349948883,        0.5620117188,        0.0844726562,       -0.2539062500,       -3.5095214844,        3.3264160156,       -7.2631835938
1488506507.2352750301,1488506507.2377328873,        0.5634765625,        0.1093750000,       -0.2558593750,       -1.8310546875,        3.9062500000,       -8.2244873047
1488506507.2381029129,1488506507.2405240536,        0.5634765625,        0.1093750000,       -0.2558593750,       -1.8310546875,        3.9062500000,       -8.2244873047
1488506507.2408070564,1488506507.2432260513,        0.5634765625,        0.1093750000,       -0.2558593750,       -1.9531250000,        3.8604736328,       -8.7127685547
1488506507.2435081005,1488506507.2459290028,        0.5634765625,        0.1362304688,       -0.2641601562,       -1.9531250000,        3.8604736328,       -8.7127685547
1488506507.2462110519,1488506507.2486219406,        0.5708007812,        0.1362304688,       -0.2641601562,       -2.4871826172,        3.8909912109,       -9.3688964844
1488506507.2489020824,1488506507.2513220310,        0.5708007812,        0.1362304688,       -0.2641601562,       -2.4871826172,        3.8909912109,       -9.3688964844
1488506507.2516028881,1488506507.2539060116,        0.5708007812,        0.1362304688,       -0.2641601562,       -2.3193359375,        4.4250488281,       -9.5520019531
1488506507.2541799545,1488506507.2564780712,        0.5776367188,        0.1049804688,       -0.2568359375,       -2.3193359375,        4.4250488281,       -9.5520019531
1488506507.2567520142,1488506507.2590379715,        0.5776367188,        0.1049804688,       -0.2568359375,       -0.9155273438,        4.4403076172,      -10.0708007812
1488506507.2593181133,1488506507.2616190910,        0.5776367188,        0.1049804688,       -0.2568359375,       -0.9155273438,        4.4403076172,      -10.0708007812
1488506507.2619619370,1488506507.2643730640,        0.5776367188,        0.1049804688,       -0.2568359375,        0.6103515625,        3.6163330078,      -11.0626220703
1488506507.2646598816,1488506507.2670888901,        0.5747070312,        0.1142578125,       -0.2812500000,        0.6103515625,        3.6163330078,      -11.0626220703
1488506507.2673730850,1488506507.2697889805,        0.5747070312,        0.1142578125,       -0.2812500000,       -0.2746582031,        5.0659179688,      -10.6048583984
1488506507.2700760365,1488506507.2724659443,        0.5747070312,        0.1142578125,       -0.2812500000,       -0.2746582031,        5.0659179688,      -10.6048583984
1488506507.2727448940,1488506507.2750399113,        0.5747070312,        0.1142578125,       -0.2812500000,       -1.2817382812,        4.4860839844,      -10.3607177734
1488506507.2753179073,1488506507.2776119709,        0.5698242188,        0.1308593750,       -0.2612304688,       -1.2817382812,        4.4860839844,      -10.3607177734
1488506507.2778890133,1488506507.2801780701,        0.5698242188,        0.1308593750,       -0.2612304688,       -1.2817382812,        4.1656494141,      -11.0931396484
1488506507.2804551125,1488506507.2828409672,        0.5698242188,        0.1308593750,       -0.2612304688,       -1.1138916016,        4.1656494141,      -11.0931396484
1488506507.2831189632,1488506507.2854130268,        0.5698242188,        0.1308593750,       -0.2612304688,       -1.1138916016,        4.8065185547,      -11.4746093750
1488506507.2857990265,1488506507.2880969048,        0.5888671875,        0.1132812500,       -0.2670898438,       -0.6866455078,        4.8065185547,      -11.4746093750
1488506507.2883749008,1488506507.2906680107,        0.5888671875,        0.1132812500,       -0.2670898438,       -0.6866455078,        4.8065185547,      -11.9018554688
1488506507.2909469604,1488506507.2933878899,        0.5888671875,        0.1132812500,       -0.2670898438,       -0.6103515625,        4.4403076172,      -11.9018554688
1488506507.2936680317,1488506507.2959630489,        0.5888671875,        0.2382812500,       -0.2675781250,       -0.6103515625,        4.4403076172,      -12.0086669922
1488506507.2962400913,1488506507.2985301018,        0.5927734375,        0.1284179688,       -0.2675781250,       -1.3275146484,        4.3945312500,      -12.0086669922
1488506507.2988069057,1488506507.3010959625,        0.5927734375,        0.1284179688,       -0.2675781250,       -1.3275146484,        4.3945312500,       -8.1024169922
1488506507.3013689518,1488506507.3037478924,        0.5927734375,        0.1284179688,       -0.2675781250,       -1.8005371094,        6.0272216797,      -11.4440917969
1488506507.3040740490,1488506507.3064930439,        0.5927734375,        0.1010742188,       -0.2392578125,       -1.8005371094,        6.0272216797,      -15.3503417969
1488506507.3067779541,1488506507.3092010021,        0.5610351562,        0.1010742188,       -0.2392578125,        1.0375976562,        3.2653808594,      -13.0920410156
1488506507.3094890118,1488506507.3119170666,        0.5610351562,        0.1010742188,       -0.2392578125,        1.0375976562,        3.2653808594,      -13.0920410156
1488506507.3122029305,1488506507.3146231174,        0.5610351562,        0.1010742188,       -0.2392578125,        2.3345947266,        4.3029785156,      -14.2211914062
1488506507.3149070740,1488506507.3173239231,        0.6176757812,        0.1201171875,       -0.2329101562,        2.3345947266,        4.3029785156,      -14.2211914062
1488506507.3176081181,1488506507.3200199604,        0.6176757812,        0.1201171875,       -0.2329101562,        1.6937255859,        7.4157714844,      -14.7552490234
1488506507.3203029633,1488506507.3228299618,        0.6176757812,        0.1201171875,       -0.2329101562,        1.6937255859,        7.4157714844,      -14.7552490234
1488506507.3231129646,1488506507.3254089355,        0.6176757812,        0.1201171875,       -0.2329101562,        4.0435791016,        4.6691894531,      -15.5181884766
1488506507.3256869316,1488506507.3280949593,        0.5698242188,        0.1040039062,       -0.2275390625,        4.0435791016,        4.6691894531,      -15.5181884766
1488506507.3283760548,1488506507.3306720257,        0.5698242188,        0.1040039062,       -0.2275390625,        8.2702636719,        3.9978027344,      -17.3797607422
1488506507.3313400745,1488506507.3337728977,        0.5698242188,        0.1040039062,       -0.2275390625,        8.2702636719,        3.9978027344,      -17.3797607422
1488506507.3340599537,1488506507.3364810944,        0.5698242188,        0.1040039062,       -0.2304687500,        9.7198486328,        7.5225830078,      -18.6157226562
1488506507.3367669582,1488506507.3391840458,        0.5556640625,        0.1103515625,       -0.2304687500,        9.7198486328,        7.5225830078,      -18.6157226562
1488506507.3394699097,1488506507.3418860435,        0.5556640625,        0.1103515625,       -0.2304687500,       11.0626220703,        3.0059814453,      -19.3481445312
1488506507.3421680927,1488506507.3444590569,        0.5556640625,        0.1103515625,       -0.2304687500,       11.0626220703,        3.0059814453,      -19.3481445312
1488506507.3447389603,1488506507.3470349312,        0.5556640625,        0.1542968750,       -0.2841796875,       11.6424560547,        1.9531250000,      -19.7296142578
1488506507.3473150730,1488506507.3496060371,        0.6005859375,        0.1542968750,       -0.2841796875,       11.6424560547,        1.9531250000,      -19.7296142578
1488506507.3499960899,1488506507.3523700237,        0.6005859375,        0.1542968750,       -0.2841796875,        7.9345703125,        5.8898925781,      -19.2718505859
1488506507.3526558876,1488506507.3550739288,        0.6005859375,        0.1542968750,       -0.2841796875,        7.9345703125,        5.8898925781,      -19.2718505859
1488506507.3553578854,1488506507.3577749729,        0.5927734375,        0.1611328125,       -0.2568359375,        4.3945312500,        6.7901611328,      -17.8375244141
1488506507.3580589294,1488506507.3604791164,        0.5927734375,        0.1611328125,       -0.2568359375,        4.3945312500,        6.7901611328,      -17.8375244141
1488506507.3607609272,1488506507.3631160259,        0.5927734375,        0.1611328125,       -0.2568359375,        2.6550292969,        4.1198730469,      -18.2495117188
1488506507.3633940220,1488506507.3656840324,        0.5927734375,        0.1611328125,       -0.2568359375,        2.6550292969,        4.1198730469,      -18.2495117188
1488506507.3659610748,1488506507.3682549000,        0.5727539062,        0.0957031250,       -0.2651367188,        3.5400390625,        2.5024414062,      -19.5007324219
1488506507.3685328960,1488506507.3708279133,        0.5727539062,        0.0957031250,       -0.2651367188,        3.5400390625,        2.5024414062,      -19.5007324219
1488506507.3711059093,1488506507.3735609055,        0.5727539062,        0.0957031250,       -0.2651367188,        3.3874511719,        3.2043457031,      -20.3399658203
1488506507.3738389015,1488506507.3761310577,        0.5727539062,        0.0957031250,       -0.2651367188,        3.3874511719,        3.2043457031,      -20.3399658203
1488506507.3764100075,1488506507.3787078857,        0.6020507812,        0.1259765625,       -0.2524414062,        1.8920898438,        3.0822753906,      -20.5993652344
1488506507.3789870739,1488506507.3812839985,        0.6020507812,        0.1259765625,       -0.2524414062,        1.8920898438,        3.0822753906,      -20.5993652344
1488506507.3815619946,1488506507.3840930462,        0.6020507812,        0.1259765625,       -0.2524414062,        1.5106201172,        3.7841796875,      -20.9045410156
1488506507.3843801022,1488506507.3867928982,        0.6020507812,        0.1259765625,       -0.2500000000,        1.5106201172,        3.7841796875,      -20.9045410156
1488506507.3870780468,1488506507.3894910812,        0.5922851562,        0.1367187500,       -0.2500000000,        1.2969970703,        3.5247802734,      -20.9960937500
1488506507.3897740841,1488506507.3921799660,        0.5922851562,        0.1367187500,       -0.2500000000,        1.2969970703,        3.5247802734,      -20.9960937500
1488506507.3924589157,1488506507.3947548866,        0.5922851562,        0.1367187500,       -0.2500000000,        1.2207031250,        2.5024414062,      -20.9045410156
1488506507.3950328827,1488506507.3973269463,        0.5922851562,        0.1689453125,       -0.2500000000,        1.2207031250,        2.5024414062,      -20.9045410156
1488506507.3976058960,1488506507.3998959064,        0.5893554688,        0.1689453125,       -0.2500000000,       -2.6855468750,        1.8920898438,      -19.8974609375
1488506507.4001739025,1488506507.4025499821,        0.5893554688,        0.1689453125,       -0.2500000000,       -0.1983642578,        1.8920898438,      -19.8974609375
1488506507.4028339386,1488506507.4052510262,        0.5893554688,        0.1689453125,       -0.2500000000,       -0.1983642578,        2.0446777344,      -19.0429687500
1488506507.4055368900,1488506507.4079499245,        0.6040039062,        0.1640625000,       -0.2270507812,       -1.4038085938,        2.0446777344,      -19.0429687500
1488506507.4082338810,1488506507.4106531143,        0.6040039062,        0.1640625000,       -0.2270507812,       -1.4038085938,        2.3956298828,      -19.1192626953
1488506507.4109389782,1488506507.4133660793,        0.6040039062,        0.1640625000,       -0.2270507812,       -1.8768310547,        2.3956298828,      -19.1192626953
1488506507.4137530327,1488506507.4161770344,        0.6040039062,        0.1640625000,       -0.2270507812,       -1.8768310547,        2.3651123047,      -19.2871093750
1488506507.4164619446,1488506507.4188780785,        0.5732421875,        0.1606445312,       -0.2329101562,       -1.1596679688,        2.3651123047,      -19.2871093750
1488506507.4191620350,1488506507.4215760231,        0.5732421875,        0.1606445312,       -0.2329101562,       -1.1596679688,        2.0751953125,      -19.0734863281
1488506507.4218969345,1488506507.4241878986,        0.5732421875,        0.1606445312,       -0.2329101562,       -1.2054443359,        2.0751953125,      -19.0734863281
1488506507.4244658947,1488506507.4267539978,        0.5732421875,        0.1606445312,       -0.2329101562,       -1.2054443359,        2.0751953125,      -18.1121826172
1488506507.4270319939,1488506507.4293260574,        0.5844726562,        0.1767578125,       -0.2377929688,       -1.8920898438,        1.7395019531,      -18.1121826172
1488506507.4296030998,1488506507.4320139885,        0.5844726562,        0.1767578125,       -0.2377929688,       -1.8920898438,        1.7395019531,      -17.5323486328
1488506507.4323000908,1488506507.4347090721,        0.5844726562,        0.1767578125,       -0.2377929688,       -2.2125244141,        1.9836425781,      -17.5323486328
1488506507.4349939823,1488506507.4373939037,        0.5844726562,        0.1767578125,       -0.2509765625,       -2.2125244141,        1.9836425781,      -17.8527832031
1488506507.4376769066,1488506507.4401569366,        0.5937500000,        0.1684570312,       -0.2509765625,       -2.9144287109,        2.1820068359,      -17.8527832031
1488506507.4404420853,1488506507.4430460930,        0.5937500000,        0.1684570312,       -0.2509765625,       -2.9144287109,        2.1820068359,      -17.4560546875
1488506507.4433269501,1488506507.4456241131,        0.5937500000,        0.1684570312,       -0.2509765625,       -4.0740966797,        1.8157958984,      -17.4560546875
1488506507.4459021091,1488506507.4481959343,        0.5781250000,        0.1635742188,       -0.2539062500,       -4.0740966797,        1.8157958984,      -17.5933837891
1488506507.4484729767,1488506507.4507699013,        0.5781250000,        0.1635742188,       -0.2539062500,       -5.3100585938,        1.4038085938,      -17.5933837891
1488506507.4510478973,1488506507.4534580708,        0.5781250000,        0.1635742188,       -0.2539062500,       -5.3100585938,        1.4038085938,      -17.5933837891
1488506507.4537448883,1488506507.4561660290,        0.5781250000,        0.1635742188,       -0.2539062500,       -5.8898925781,        0.7171630859,      -17.1813964844
1488506507.4564509392,1488506507.4588699341,        0.5742187500,        0.1767578125,       -0.2353515625,       -5.8898925781,        0.7171630859,      -17.1813964844
1488506507.4591569901,1488506507.4615700245,        0.5742187500,        0.1767578125,       -0.2353515625,       -6.3323974609,        0.8392333984,      -17.1051025391
1488506507.4618549347,1488506507.4642760754,        0.5742187500,        0.1767578125,       -0.2353515625,       -6.3323974609,        0.8392333984,      -17.1051025391
1488506507.4645600319,1488506507.4669768810,        0.5742187500,        0.1767578125,       -0.2353515625,       -7.5531005859,        0.8239746094,      -17.2576904297
1488506507.4672610760,1488506507.4696741104,        0.5859375000,        0.1645507812,       -0.2260742188,       -7.5531005859,        0.8239746094,      -17.2576904297
1488506507.4699609280,1488506507.4723579884,        0.5859375000,        0.1645507812,       -0.2260742188,       -7.9498291016,        0.8392333984,      -17.6391601562
1488506507.4726378918,1488506507.4749350548,        0.5859375000,        0.1645507812,       -0.2260742188,       -7.9498291016,        0.8392333984,      -17.6391601562
1488506507.4752140045,1488506507.4775059223,        0.5859375000,        0.1645507812,       -0.2216796875,       -7.6751708984,        1.2054443359,      -18.3105468750
1488506507.4777810574,1488506507.4800748825,        0.5820312500,        0.1635742188,       -0.2216796875,       -7.6751708984,        1.2054443359,      -18.3105468750
1488506507.4804599285,1488506507.4827609062,        0.5820312500,        0.1635742188,       -0.2216796875,       -7.3547363281,        1.2969970703,      -18.5241699219
1488506507.4830360413,1488506507.4853310585,        0.5820312500,        0.1635742188,       -0.2216796875,       -7.3547363281,        1.2969970703,      -18.5241699219
1488506507.4856090546,1488506507.4879059792,        0.5820312500,        0.1635742188,       -0.2236328125,       -7.1716308594,        0.8392333984,      -18.9056396484
1488506507.4881830215,1488506507.4904758930,        0.5844726562,        0.1606445312,       -0.2236328125,       -7.1716308594,        0.8392333984,      -18.9056396484
1488506507.4907529354,1488506507.4931919575,        0.5844726562,        0.1606445312,       -0.2236328125,       -7.0343017578,        0.4272460938,      -19.3634033203
1488506507.4934730530,1488506507.4957640171,        0.5844726562,        0.1606445312,       -0.2236328125,       -7.0343017578,        0.4272460938,      -19.3634033203
1488506507.4960410595,1488506507.4983339310,        0.5844726562,        0.1840820312,       -0.2138671875,       -7.0037841797,        1.0833740234,      -19.5159912109
1488506507.4986119270,1488506507.5009090900,        0.6000976562,        0.1840820312,       -0.2138671875,       -7.0037841797,        1.0833740234,      -19.5159912109
1488506507.5011858940,1488506507.5046238899,        0.6000976562,        0.1840820312,       -0.2138671875,       -7.4462890625,        1.2207031250,      -19.7906494141
1488506507.5049340725,1488506507.5076880455,        0.6000976562,        0.1840820312,       -0.2138671875,       -7.4462890625,        1.2207031250,      -19.7906494141
1488506507.5079820156,1488506507.5103828907,        0.6142578125,        0.1855468750,       -0.1928710938,       -7.8125000000,        0.8239746094,      -19.4244384766
1488506507.5106699467,1488506507.5131249428,        0.6142578125,        0.1855468750,       -0.1928710938,       -7.8125000000,        0.8239746094,      -19.4244384766
1488506507.5134119987,1488506507.5158140659,        0.6142578125,        0.1855468750,       -0.1928710938,       -8.2855224609,        0.6103515625,      -19.3939208984
1488506507.5160970688,1488506507.5184938908,        0.6142578125,        0.1757812500,       -0.2031250000,       -8.2855224609,        0.6103515625,      -19.3939208984
1488506507.5187790394,1488506507.5211770535,        0.6181640625,        0.1757812500,       -0.2031250000,       -7.9650878906,        0.5950927734,      -19.9279785156
1488506507.5214619637,1488506507.5239069462,        0.6181640625,        0.1757812500,       -0.2031250000,       -7.9650878906,        0.5950927734,      -19.9279785156
1488506507.5241899490,1488506507.5265901089,        0.6181640625,        0.1757812500,       -0.2031250000,       -8.1176757812,        0.3662109375,      -20.1110839844
1488506507.5268769264,1488506507.5292758942,        0.6162109375,        0.1958007812,       -0.2055664062,       -8.1176757812,        0.3662109375,      -20.1110839844
1488506507.5295600891,1488506507.5319700241,        0.6162109375,        0.1958007812,       -0.2055664062,       -9.1705322266,        0.0152587891,      -20.2484130859
1488506507.5322539806,1488506507.5346539021,        0.6162109375,        0.1958007812,       -0.2055664062,       -9.1705322266,        0.0152587891,      -20.2484130859
1488506507.5349409580,1488506507.5373411179,        0.6162109375,        0.1958007812,       -0.2055664062,      -10.9558105469,        0.0915527344,      -21.1181640625
1488506507.5376310349,1488506507.5400319099,        0.6215820312,        0.1845703125,       -0.2216796875,      -10.9558105469,        0.0915527344,      -21.1181640625
1488506507.5403230190,1488506507.5427339077,        0.6215820312,        0.1845703125,       -0.2216796875,      -13.0615234375,       -0.0915527344,      -21.5454101562
1488506507.5430231094,1488506507.5454249382,        0.6215820312,        0.1845703125,       -0.2216796875,      -13.0615234375,       -0.0915527344,      -21.5454101562
1488506507.5458629131,1488506507.5482618809,        0.6215820312,        0.1845703125,       -0.2216796875,      -15.0909423828,       -0.4425048828,      -22.0336914062
1488506507.5485489368,1488506507.5509479046,        0.6152343750,        0.1826171875,       -0.2465820312,      -15.0909423828,       -0.4425048828,      -22.0336914062
1488506507.5512359142,1488506507.5536980629,        0.6152343750,        0.1826171875,       -0.2465820312,      -17.9290771484,       -0.1373291016,      -22.6898193359
1488506507.5539879799,1488506507.5564100742,        0.6152343750,        0.1826171875,       -0.2465820312,      -17.9290771484,       -0.1373291016,      -22.6898193359
1488506507.5566980839,1488506507.5592000484,        0.6152343750,        0.1791992188,       -0.2543945312,      -19.4702148438,       -0.1983642578,      -22.7813720703
1488506507.5594890118,1488506507.5619199276,        0.6118164062,        0.1791992188,       -0.2543945312,      -19.4702148438,       -0.1983642578,      -22.7813720703
1488506507.5622100830,1488506507.5646278858,        0.6118164062,        0.1791992188,       -0.2543945312,      -21.3928222656,       -0.3051757812,      -22.9339599609
1488506507.5649180412,1488506507.5673370361,        0.6118164062,        0.1791992188,       -0.2543945312,      -21.3928222656,       -0.3051757812,      -22.9339599609
1488506507.5676259995,1488506507.5700399876,        0.5844726562,        0.2016601562,       -0.2407226562,      -23.1628417969,        0.1068115234,      -23.4832763672
1488506507.5703299046,1488506507.5727579594,        0.5844726562,        0.2016601562,       -0.2407226562,      -23.1628417969,        0.1068115234,      -23.4832763672
1488506507.5730481148,1488506507.5754621029,        0.5844726562,        0.2016601562,       -0.2407226562,      -24.6887207031,       -0.0762939453,      -24.0020751953
1488506507.5757510662,1488506507.5781679153,        0.5844726562,        0.2016601562,       -0.2407226562,      -24.6887207031,       -0.0762939453,      -24.0020751953
1488506507.5784571171,1488506507.5808789730,        0.5732421875,        0.1914062500,       -0.2343750000,      -22.2015380859,       -0.3356933594,      -24.0783691406
1488506507.5811688900,1488506507.5835959911,        0.5732421875,        0.1914062500,       -0.2343750000,      -22.2015380859,       -0.3356933594,      -24.0783691406
1488506507.5838849545,1488506507.5863020420,        0.5732421875,        0.1914062500,       -0.2343750000,      -18.7835693359,        0.3814697266,      -25.1007080078
1488506507.5865910053,1488506507.5890119076,        0.5732421875,        0.1914062500,       -0.2324218750,      -18.7835693359,        0.3814697266,      -25.1007080078
1488506507.5893030167,1488506507.5917270184,        0.5878906250,        0.1762695312,       -0.2324218750,      -16.1437988281,        0.8850097656,      -26.1077880859
1488506507.5920081139,1488506507.5943050385,        0.5878906250,        0.1762695312,       -0.2324218750,      -16.1437988281,        0.8850097656,      -26.1077880859
1488506507.5945870876,1488506507.5968780518,        0.5878906250,        0.1762695312,       -0.2324218750,      -15.1672363281,        1.7395019531,      -26.6571044922
1488506507.5971589088,1488506507.5994551182,        0.5878906250,        0.1972656250,       -0.2158203125,      -15.1672363281,        1.7395019531,      -26.6571044922
1488506507.5997359753,1488506507.6022150517,        0.6054687500,        0.1972656250,       -0.2158203125,      -15.2282714844,        2.8686523438,      -27.8320312500
1488506507.6024971008,1488506507.6047890186,        0.6054687500,        0.1972656250,       -0.2158203125,      -15.2282714844,        2.8686523438,      -27.8320312500
1488506507.6050701141,1488506507.6073598862,        0.6054687500,        0.1972656250,       -0.2158203125,      -15.3808593750,        3.2958984375,      -28.5034179688
1488506507.6076409817,1488506507.6099390984,        0.6123046875,        0.2031250000,       -0.2260742188,      -15.3808593750,        3.2958984375,      -28.5034179688
1488506507.6103289127,1488506507.6128270626,        0.6123046875,        0.2031250000,       -0.2260742188,      -14.7857666016,        3.1433105469,      -28.4576416016
1488506507.6131169796,1488506507.6155378819,        0.6123046875,        0.2031250000,       -0.2260742188,      -14.7857666016,        3.1433105469,      -28.4576416016
1488506507.6158270836,1488506507.6182420254,        0.6123046875,        0.2031250000,       -0.2260742188,      -15.1672363281,        3.2806396484,      -27.9846191406
1488506507.6185328960,1488506507.6209499836,        0.6108398438,        0.2294921875,       -0.2070312500,      -15.1672363281,        3.2806396484,      -27.9846191406
1488506507.6212379932,1488506507.6236999035,        0.6108398438,        0.2294921875,       -0.2070312500,      -17.1661376953,        4.0588378906,      -27.5268554688
1488506507.6239879131,1488506507.6264040470,        0.6108398438,        0.2294921875,       -0.2070312500,      -17.1661376953,        4.0588378906,      -27.5268554688
1488506507.6266920567,1488506507.6291079521,        0.6108398438,        0.2294921875,       -0.2070312500,      -18.7988281250,        4.5166015625,      -26.6418457031
1488506507.6293959618,1488506507.6318089962,        0.6308593750,        0.2504882812,       -0.2109375000,      -18.7988281250,        4.5166015625,      -26.6418457031
1488506507.6320910454,1488506507.6343829632,        0.6308593750,        0.2504882812,       -0.2109375000,      -19.6533203125,        4.5623779297,      -25.6805419922
1488506507.6346640587,1488506507.6369619370,        0.6308593750,        0.2504882812,       -0.2109375000,      -19.6533203125,        4.5623779297,      -25.6805419922
1488506507.6372449398,1488506507.6395409107,        0.6308593750,        0.2504882812,       -0.1992187500,      -20.6298828125,        4.3640136719,      -24.2767333984
1488506507.6398220062,1488506507.6421489716,        0.6279296875,        0.2524414062,       -0.1992187500,      -20.6298828125,        4.3640136719,      -24.2767333984
1488506507.6424388885,1488506507.6448650360,        0.6279296875,        0.2524414062,       -0.1992187500,      -20.6298828125,        4.3792724609,      -22.8271484375
1488506507.6451520920,1488506507.6475670338,        0.6279296875,        0.2524414062,       -0.1992187500,      -20.9960937500,        4.3792724609,      -22.8271484375
1488506507.6478550434,1488506507.6502709389,        0.6059570312,        0.2377929688,       -0.1972656250,      -20.9960937500,        4.1656494141,      -21.8963623047
1488506507.6505599022,1488506507.6529910564,        0.6059570312,        0.2377929688,       -0.1972656250,      -20.1263427734,        4.1656494141,      -21.8963623047
1488506507.6532809734,1488506507.6556930542,        0.6059570312,        0.2377929688,       -0.1972656250,      -16.2200927734,        4.4708251953,      -22.5677490234
1488506507.6559810638,1488506507.6584000587,        0.6059570312,        0.2377929688,       -0.1972656250,      -16.1437988281,        4.4708251953,      -22.5677490234
1488506507.6586890221,1488506507.6611049175,        0.5942382812,        0.1894531250,       -0.2236328125,      -16.1437988281,        4.7302246094,      -22.8271484375
1488506507.6613919735,1488506507.6638329029,        0.5942382812,        0.1894531250,       -0.2236328125,      -11.2152099609,        4.7302246094,      -22.8271484375
1488506507.6641159058,1488506507.6664109230,        0.5942382812,        0.1894531250,       -0.2236328125,      -11.2152099609,        4.9743652344,      -22.4151611328
1488506507.6666910648,1488506507.6689910889,        0.5942382812,        0.1894531250,       -0.2236328125,       -7.6751708984,        4.9743652344,      -22.4151611328
1488506507.6692700386,1488506507.6719241142,        0.6171875000,        0.2216796875,       -0.2299804688,       -7.6751708984,        4.9743652344,      -22.6135253906
1488506507.6722209454,1488506507.6746098995,        0.6171875000,        0.2216796875,       -0.2299804688,       -5.8135986328,        5.6304931641,      -22.6135253906
1488506507.6750071049,1488506507.6775040627,        0.6171875000,        0.2216796875,       -0.2299804688,       -5.8135986328,        6.4086914062,      -22.5219726562
1488506507.6777889729,1488506507.6801710129,        0.6171875000,        0.1977539062,       -0.2500000000,       -4.3487548828,        6.4086914062,      -22.5219726562
1488506507.6804549694,1488506507.6837470531,        0.6044921875,        0.1977539062,       -0.2500000000,       -2.3651123047,        8.2702636719,      -23.3459472656
1488506507.6840279102,1488506507.6863200665,        0.6044921875,        0.1977539062,       -0.2500000000,       -2.3651123047,        8.2702636719,      -23.3459472656
1488506507.6865980625,1488506507.6888868809,        0.6044921875,        0.1977539062,       -0.2500000000,        1.4495849609,        8.6364746094,      -24.0325927734
1488506507.6891651154,1488506507.6914501190,        0.5883789062,        0.1718750000,       -0.2670898438,        1.4495849609,        8.6364746094,      -24.0325927734
1488506507.6917610168,1488506507.6940460205,        0.5883789062,        0.1718750000,       -0.2670898438,        4.5166015625,        8.2092285156,      -24.9633789062
1488506507.6943259239,1488506507.6966118813,        0.5883789062,        0.1718750000,       -0.2670898438,        4.5166015625,        8.2092285156,      -24.9633789062
1488506507.6968889236,1488506507.6991760731,        0.5883789062,        0.1718750000,       -0.2670898438,        4.5166015625,        9.1400146484,      -25.5432128906
1488506507.6994531155,1488506507.7017519474,        0.6264648438,        0.2119140625,       -0.3027343750,        4.5471191406,        9.1400146484,      -25.5432128906
1488506507.7020299435,1488506507.7043180466,        0.6264648438,        0.2119140625,       -0.3027343750,        4.5471191406,        9.1400146484,      -26.0162353516
1488506507.7045960426,1488506507.7068889141,        0.6264648438,        0.2119140625,       -0.3027343750,        3.1738281250,       10.0097656250,      -26.0162353516
1488506507.7071700096,1488506507.7094559669,        0.6264648438,        0.2119140625,       -0.3027343750,        3.1738281250,       10.0097656250,      -26.1535644531
1488506507.7097380161,1488506507.7120819092,        0.6347656250,        0.1821289062,       -0.2846679688,        2.1057128906,       10.2386474609,      -26.1535644531
1488506507.7123630047,1488506507.7146480083,        0.6347656250,        0.1821289062,       -0.2846679688,        2.1057128906,       10.2386474609,      -26.1535644531
1488506507.7149279118,1488506507.7172169685,        0.6347656250,        0.1821289062,       -0.2846679688,        2.1514892578,       10.7727050781,      -26.3977050781
1488506507.7174980640,1488506507.7197859287,        0.6347656250,        0.1821289062,       -0.2846679688,        2.1514892578,       10.7727050781,      -26.3977050781
1488506507.7200679779,1488506507.7223660946,        0.6489257812,        0.1889648438,       -0.2675781250,        1.3275146484,       10.3454589844,      -26.8554687500
1488506507.7226479053,1488506507.7249400616,        0.6489257812,        0.1889648438,       -0.2675781250,        1.3275146484,       10.3454589844,      -26.8554687500
1488506507.7252209187,1488506507.7275099754,        0.6489257812,        0.1889648438,       -0.2675781250,        0.2899169922,       10.3759765625,      -27.5573730469
1488506507.7277929783,1488506507.7300870419,        0.6489257812,        0.1889648438,       -0.2187500000,        0.2899169922,       10.3759765625,      -27.5573730469
1488506507.7303700447,1488506507.7328350544,        0.6708984375,        0.1821289062,       -0.2187500000,       -0.4425048828,       10.9863281250,      -28.6407470703
1488506507.7331159115,1488506507.7354140282,        0.6708984375,        0.1821289062,       -0.2187500000,       -0.4425048828,       10.9863281250,      -28.6407470703
1488506507.7356948853,1488506507.7379899025,        0.6708984375,        0.1821289062,       -0.2187500000,        0.6256103516,       11.5051269531,      -30.3344726562
1488506507.7383921146,1488506507.7406890392,        0.6708984375,        0.1215820312,       -0.2065429688,        0.6256103516,       11.5051269531,      -30.3344726562
1488506507.7409710884,1488506507.7434539795,        0.7172851562,        0.1215820312,       -0.2065429688,        4.0588378906,       11.9476318359,      -31.8603515625
1488506507.7437450886,1488506507.7461619377,        0.7172851562,        0.1215820312,       -0.2065429688,        4.0588378906,       11.9476318359,      -31.8603515625
1488506507.7464530468,1488506507.7488710880,        0.7172851562,        0.1215820312,       -0.2065429688,        6.0729980469,       12.5274658203,      -33.8134765625
1488506507.7491590977,1488506507.7515740395,        0.7446289062,        0.1713867188,       -0.1772460938,        6.0729980469,       12.5274658203,      -33.8134765625
1488506507.7519071102,1488506507.7543261051,        0.7446289062,        0.1713867188,       -0.1772460938,        6.0424804688,       12.8173828125,      -34.8358154297
1488506507.7546160221,1488506507.7570359707,        0.7446289062,        0.1713867188,       -0.1772460938,        6.0424804688,       12.8173828125,      -34.8358154297
1488506507.7573230267,1488506507.7597360611,        0.7446289062,        0.1713867188,       -0.1772460938,        4.2114257812,       12.9699707031,      -35.5072021484
1488506507.7600250244,1488506507.7624480724,        0.7451171875,        0.1821289062,       -0.1884765625,        4.2114257812,       12.9699707031,      -35.5072021484
1488506507.7627348900,1488506507.7651569843,        0.7451171875,        0.1821289062,       -0.1884765625,        2.9144287109,       12.6953125000,      -36.0412597656
1488506507.7654459476,1488506507.7678649426,        0.7451171875,        0.1821289062,       -0.1884765625,        2.9144287109,       12.6953125000,      -36.0412597656
1488506507.7681529522,1488506507.7705719471,        0.7451171875,        0.1821289062,       -0.2031250000,        3.0975341797,       12.2680664062,      -37.3840332031
1488506507.7708599567,1488506507.7732429504,        0.7241210938,        0.1308593750,       -0.2031250000,        3.0975341797,       12.2680664062,      -37.3840332031
1488506507.7735240459,1488506507.7758190632,        0.7241210938,        0.1308593750,       -0.2031250000,        3.0822753906,       12.2070312500,      -38.2537841797
1488506507.7760989666,1488506507.7783980370,        0.7241210938,        0.1308593750,       -0.2031250000,        3.0822753906,       12.2070312500,      -38.2537841797
1488506507.7786788940,1488506507.7809739113,        0.7241210938,        0.1308593750,       -0.2421875000,        3.0822753906,       12.1917724609,      -39.1235351562
1488506507.7812550068,1488506507.7837181091,        0.7558593750,        0.1494140625,       -0.2421875000,        2.6855468750,       12.1917724609,      -39.1235351562
1488506507.7840061188,1488506507.7864251137,        0.7558593750,        0.1494140625,       -0.2421875000,        2.6855468750,       11.8103027344,      -39.6728515625
1488506507.7867119312,1488506507.7891309261,        0.7558593750,        0.1494140625,       -0.2421875000,        0.5798339844,       11.8103027344,      -39.6728515625
1488506507.7894189358,1488506507.7918400764,        0.7807617188,        0.1645507812,       -0.2524414062,       -3.3264160156,       11.7340087891,      -39.6423339844
1488506507.7921290398,1488506507.7945449352,        0.7807617188,        0.1645507812,       -0.2524414062,       -2.6702880859,       11.7340087891,      -39.6423339844
1488506507.7948360443,1488506507.7972509861,        0.7807617188,        0.1645507812,       -0.2524414062,       -6.5765380859,       10.1013183594,      -39.5660400391
1488506507.7975409031,1488506507.8001899719,        0.7807617188,        0.1645507812,       -0.2524414062,       -7.5683593750,       10.1013183594,      -39.5660400391
1488506507.8004798889,1488506507.8032200336,        0.7788085938,        0.1176757812,       -0.2719726562,      -11.5661621094,        8.7280273438,      -40.0695800781
1488506507.8036220074,1488506507.8060529232,        0.7788085938,        0.1176757812,       -0.2719726562,      -11.5661621094,        8.7280273438,      -40.0695800781
1488506507.8063459396,1488506507.8087649345,        0.7788085938,        0.1176757812,       -0.2719726562,      -14.4805908203,        7.0648193359,      -40.3594970703
1488506507.8090529442,1488506507.8114740849,        0.7788085938,        0.0844726562,       -0.2617187500,      -14.4805908203,        7.0648193359,      -40.3594970703
1488506507.8117740154,1488506507.8141939640,        0.7661132812,        0.0844726562,       -0.2617187500,      -17.2271728516,        6.0729980469,      -41.1224365234
1488506507.8144838810,1488506507.8169000149,        0.7661132812,        0.0844726562,       -0.2617187500,      -17.2271728516,        6.0729980469,      -41.1224365234
1488506507.8171889782,1488506507.8196060658,        0.7661132812,        0.0844726562,       -0.2617187500,      -20.8892822266,        4.1656494141,      -41.6412353516
1488506507.8198990822,1488506507.8223021030,        0.7978515625,        0.0917968750,       -0.2675781250,      -20.8892822266,        4.1656494141,      -41.6412353516
1488506507.8225839138,1488506507.8248779774,        0.7978515625,        0.0917968750,       -0.2675781250,      -24.3530273438,        1.8310546875,      -41.6259765625
1488506507.8251590729,1488506507.8274540901,        0.7978515625,        0.0917968750,       -0.2675781250,      -24.3530273438,        1.8310546875,      -41.6259765625
1488506507.8277349472,1488506507.8300271034,        0.7978515625,        0.0917968750,       -0.2675781250,      -27.9388427734,        0.2593994141,      -41.9006347656
1488506507.8303079605,1488506507.8326740265,        0.8188476562,        0.0673828125,       -0.2470703125,      -27.9388427734,        0.2593994141,      -41.9006347656
1488506507.8329579830,1488506507.8352589607,        0.8188476562,        0.0673828125,       -0.2470703125,      -27.9388427734,       -1.2664794922,      -43.7927246094
1488506507.8355391026,1488506507.8378369808,        0.8188476562,        0.0673828125,       -0.2470703125,      -30.3955078125,       -1.2664794922,      -43.7927246094
1488506507.8381180763,1488506507.8404150009,        0.8188476562,        0.0673828125,       -0.2470703125,      -30.3955078125,       -1.2664794922,      -45.7153320312
1488506507.8406960964,1488506507.8430390358,        0.8286132812,        0.0615234375,       -0.2294921875,      -31.4025878906,       -3.4484863281,      -45.7153320312
1488506507.8433210850,1488506507.8456130028,        0.8286132812,        0.0615234375,       -0.2294921875,      -31.4025878906,       -3.4484863281,      -47.5158691406
1488506507.8458979130,1488506507.8481879234,        0.8286132812,        0.0615234375,       -0.2294921875,      -31.7077636719,       -5.6304931641,      -47.5158691406
1488506507.8484699726,1488506507.8507640362,        0.8286132812,        0.0615234375,       -0.2294921875,      -31.7077636719,       -5.6304931641,      -47.5158691406
1488506507.8510439396,1488506507.8534328938,        0.8261718750,        0.0771484375,       -0.2382812500,      -31.3262939453,       -7.4005126953,      -48.8891601562
1488506507.8537158966,1488506507.8560159206,        0.8261718750,        0.0771484375,       -0.2382812500,      -31.3262939453,       -7.4005126953,      -48.8891601562
1488506507.8562960625,1488506507.8585910797,        0.8261718750,        0.0771484375,       -0.2382812500,      -30.6701660156,       -9.6282958984,      -51.0101318359
1488506507.8588719368,1488506507.8611650467,        0.8261718750,        0.0771484375,       -0.2382812500,      -30.6701660156,       -9.6282958984,      -51.0101318359
1488506507.8614470959,1488506507.8639481068,        0.8461914062,        0.0693359375,       -0.2524414062,      -29.3884277344,      -11.7950439453,      -52.3529052734
1488506507.8642339706,1488506507.8665249348,        0.8461914062,        0.0693359375,       -0.2524414062,      -29.3884277344,      -11.7950439453,      -52.3529052734
1488506507.8669168949,1488506507.8692159653,        0.8461914062,        0.0693359375,       -0.2524414062,      -26.1383056641,      -14.5263671875,      -52.9632568359
1488506507.8695011139,1488506507.8718099594,        0.8461914062,        0.0693359375,       -0.2597656250,      -26.1383056641,      -14.5263671875,      -52.9632568359
1488506507.8721039295,1488506507.8745260239,        0.8549804688,        0.0639648438,       -0.2597656250,      -18.1274414062,      -17.4560546875,      -54.6875000000
1488506507.8748168945,1488506507.8772339821,        0.8549804688,        0.0639648438,       -0.2597656250,      -18.1274414062,      -17.4560546875,      -54.6875000000
1488506507.8775260448,1488506507.8799440861,        0.8549804688,        0.0639648438,       -0.2597656250,       -9.5062255859,      -20.6146240234,      -57.1594238281
1488506507.8802340031,1488506507.8826930523,        0.8710937500,        0.1127929688,       -0.2416992188,       -9.5062255859,      -20.6146240234,      -57.1594238281
1488506507.8829820156,1488506507.8854019642,        0.8710937500,        0.1127929688,       -0.2416992188,       -6.6375732422,      -21.9726562500,      -58.9599609375
1488506507.8856909275,1488506507.8881099224,        0.8710937500,        0.1127929688,       -0.2416992188,       -6.6375732422,      -21.9726562500,      -58.9599609375
1488506507.8883979321,1488506507.8908169270,        0.8710937500,        0.1127929688,       -0.2416992188,       -7.4005126953,      -21.5911865234,      -60.0738525391
1488506507.8911070824,1488506507.8934431076,        0.8066406250,        0.2666015625,       -0.2763671875,       -7.4005126953,      -21.5911865234,      -60.0738525391
1488506507.8937261105,1488506507.8960180283,        0.8066406250,        0.2666015625,       -0.2763671875,      -10.8642578125,      -22.7508544922,      -62.6220703125
1488506507.8963029385,1488506507.8985989094,        0.8066406250,        0.2666015625,       -0.2763671875,      -10.8642578125,      -22.7508544922,      -62.6220703125
1488506507.8988819122,1488506507.9011759758,        0.8066406250,        0.2666015625,       -0.2763671875,      -15.0146484375,      -24.7192382812,      -65.2008056641
1488506507.9014599323,1488506507.9039270878,        0.8339843750,        0.4301757812,       -0.3935546875,      -15.0146484375,      -24.7192382812,      -65.2008056641
1488506507.9042201042,1488506507.9066319466,        0.8339843750,        0.4301757812,       -0.3935546875,      -20.5078125000,      -28.7933349609,      -66.2689208984
1488506507.9069240093,1488506507.9093348980,        0.8339843750,        0.4301757812,       -0.3935546875,      -20.5078125000,      -28.7933349609,      -66.2689208984
1488506507.9096250534,1488506507.9120800495,        0.8339843750,        0.4301757812,       -0.4902343750,      -30.4260253906,      -31.7535400391,      -64.2395019531
1488506507.9123809338,1488506507.9146869183,        0.8735351562,        0.5083007812,       -0.4902343750,      -30.4260253906,      -31.7535400391,      -64.2395019531
1488506507.9149730206,1488506507.9172680378,        0.8735351562,        0.5083007812,       -0.4902343750,      -44.2962646484,      -32.9132080078,      -62.7899169922
1488506507.9175670147,1488506507.9199318886,        0.8735351562,        0.5083007812,       -0.4902343750,      -44.2962646484,      -32.9132080078,      -62.7899169922
1488506507.9202179909,1488506507.9227778912,        0.8735351562,        0.6157226562,       -0.4296875000,      -59.9212646484,      -33.0047607422,      -63.3697509766
1488506507.9230699539,1488506507.9254889488,        0.8427734375,        0.6157226562,       -0.4296875000,      -58.7615966797,      -33.0047607422,      -63.3697509766
1488506507.9257810116,1488506507.9281980991,        0.8427734375,        0.6157226562,       -0.4296875000,      -69.8547363281,      -31.2194824219,      -65.3991699219
1488506507.9284920692,1488506507.9309039116,        0.8427734375,        0.6157226562,       -0.4296875000,      -69.8547363281,      -31.2194824219,      -65.3991699219
1488506507.9313049316,1488506507.9337310791,        0.8457031250,        0.6655273438,       -0.3164062500,      -74.3865966797,      -28.4118652344,      -70.0988769531
1488506507.9340240955,1488506507.9364469051,        0.8457031250,        0.6655273438,       -0.3164062500,      -74.3865966797,      -28.4118652344,      -70.0988769531
1488506507.9367411137,1488506507.9391610622,        0.8457031250,        0.6655273438,       -0.3164062500,      -76.6601562500,      -28.8696289062,      -76.1413574219
1488506507.9394540787,1488506507.9419119358,        0.8457031250,        0.6655273438,       -0.3164062500,      -76.6601562500,      -28.8696289062,      -76.1413574219
1488506507.9422049522,1488506507.9446120262,        0.9536132812,        0.8618164062,       -0.4565429688,      -83.0383300781,      -31.0974121094,      -76.1413574219
1488506507.9449050426,1488506507.9473199844,        0.9536132812,        0.8618164062,       -0.4565429688,      -83.0383300781,      -31.0974121094,      -76.1413574219
1488506507.9476110935,1488506507.9500350952,        0.9536132812,        0.8618164062,       -0.4565429688,      -90.7440185547,      -30.0140380859,      -73.2116699219
1488506507.9503281116,1488506507.9527099133,        0.9536132812,        0.6118164062,       -0.3549804688,      -90.7440185547,      -30.0140380859,      -73.2116699219
1488506507.9529969692,1488506507.9552938938,        1.0371093750,        0.6000976562,       -0.3549804688,      -94.5129394531,      -30.6396484375,      -72.7081298828
1488506507.9555790424,1488506507.9578740597,        1.0371093750,        0.6000976562,       -0.3549804688,      -94.5129394531,      -30.6396484375,      -72.7081298828
1488506507.9581570625,1488506507.9604520798,        1.0371093750,        0.6000976562,       -0.3549804688,      -94.5129394531,      -32.2723388672,      -76.5838623047
1488506507.9607360363,1488506507.9630770683,        1.0371093750,        0.4077148438,       -0.3168945312,     -100.4333496094,      -32.2723388672,      -76.5838623047
1488506507.9633610249,1488506507.9656589031,        1.0039062500,        0.4077148438,       -0.3168945312,     -100.4333496094,      -28.3660888672,      -80.6732177734
1488506507.9659440517,1488506507.9682390690,        1.0039062500,        0.4077148438,       -0.3168945312,     -106.0333251953,      -30.7159423828,      -80.6732177734
1488506507.9685230255,1488506507.9710199833,        1.0039062500,        0.4077148438,       -0.3168945312,     -106.0333251953,      -30.7159423828,      -85.0677490234
1488506507.9713079929,1488506507.9737489223,        0.9819335938,        0.3632812500,       -0.3071289062,     -105.4992675781,      -30.4718017578,      -85.0677490234
1488506507.9740419388,1488506507.9764719009,        0.9819335938,        0.3632812500,       -0.3071289062,     -105.4992675781,      -30.4718017578,      -85.8459472656
1488506507.9767639637,1488506507.9791789055,        0.9819335938,        0.3632812500,       -0.3071289062,     -102.6763916016,      -31.0821533203,      -85.8459472656
1488506507.9794709682,1488506507.9819018841,        0.9819335938,        0.3632812500,       -0.3071289062,     -102.6763916016,      -31.0821533203,      -82.8857421875
1488506507.9821949005,1488506507.9846160412,        0.9184570312,        0.3496093750,       -0.3154296875,     -101.5472412109,      -30.0292968750,      -82.8857421875
1488506507.9849081039,1488506507.9873290062,        0.9184570312,        0.3496093750,       -0.3154296875,     -101.5472412109,      -30.0292968750,      -81.4208984375
1488506507.9876210690,1488506507.9900391102,        0.9184570312,        0.3496093750,       -0.3154296875,      -99.6704101562,      -28.6254882812,      -81.4208984375
1488506507.9903318882,1488506507.9927659035,        0.9184570312,        0.3496093750,       -0.3154296875,      -99.6704101562,      -28.6254882812,      -82.4737548828
1488506507.9930570126,1488506507.9954750538,        0.9052734375,        0.3681640625,       -0.3383789062,      -98.2360839844,      -27.4200439453,      -82.4737548828
1488506507.9958829880,1488506507.9983100891,        0.9052734375,        0.3681640625,       -0.3383789062,      -98.2360839844,      -23.5137939453,      -83.1146240234
1488506507.9986019135,1488506508.0010180473,        0.9052734375,        0.3681640625,       -0.3383789062,      -94.8486328125,      -27.0690917969,      -83.1146240234
1488506508.0013110638,1488506508.0036420822,        0.7802734375,        0.4013671875,       -0.2978515625,      -94.8486328125,      -27.0690917969,      -81.5429687500
1488506508.0039269924,1488506508.0062210560,        0.8540039062,        0.4013671875,       -0.2978515625,      -88.8214111328,      -28.5339355469,      -81.5429687500
1488506508.0065050125,1488506508.0087990761,        0.8540039062,        0.4013671875,       -0.2978515625,      -88.8214111328,      -28.5339355469,      -81.5429687500
1488506508.0090820789,1488506508.0113830566,        0.8540039062,        0.4013671875,       -0.2978515625,      -81.9091796875,      -30.0598144531,      -79.8339843750
1488506508.0118288994,1488506508.0141270161,        0.8154296875,        0.4448242188,       -0.3105468750,      -81.9091796875,      -30.0598144531,      -79.8339843750
1488506508.0144109726,1488506508.0167059898,        0.8154296875,        0.4448242188,       -0.3105468750,      -76.4312744141,      -30.1818847656,      -79.5593261719
1488506508.0169889927,1488506508.0192890167,        0.8154296875,        0.4448242188,       -0.3105468750,      -76.4312744141,      -30.1818847656,      -79.5593261719
1488506508.0195739269,1488506508.0220310688,        0.8154296875,        0.4448242188,       -0.3105468750,      -73.7609863281,      -30.2886962891,      -77.3010253906
1488506508.0223240852,1488506508.0247490406,        0.7548828125,        0.4467773438,       -0.2636718750,      -73.7609863281,      -30.2886962891,      -77.3010253906
1488506508.0250399113,1488506508.0274579525,        0.7548828125,        0.4467773438,       -0.2636718750,      -73.4863281250,      -31.9213867188,      -74.1119384766
1488506508.0277500153,1488506508.0301671028,        0.7548828125,        0.4467773438,       -0.2636718750,      -73.4863281250,      -31.9213867188,      -74.1119384766
1488506508.0304589272,1488506508.0329339504,        0.7548828125,        0.4467773438,       -0.2636718750,      -75.2258300781,      -29.4799804688,      -70.2819824219
1488506508.0332269669,1488506508.0356469154,        0.7368164062,        0.3920898438,       -0.2011718750,      -75.2258300781,      -29.4799804688,      -70.2819824219
1488506508.0359399319,1488506508.0383551121,        0.7368164062,        0.3920898438,       -0.2011718750,      -74.6459960938,      -25.8636474609,      -66.1315917969
1488506508.0386469364,1488506508.0410668850,        0.7368164062,        0.3920898438,       -0.2011718750,      -74.6459960938,      -25.8636474609,      -66.1315917969
1488506508.0413599014,1488506508.0437910557,        0.7368164062,        0.3022460938,       -0.1533203125,      -71.6857910156,      -27.2369384766,      -59.7076416016
1488506508.0440819263,1488506508.0465059280,        0.6293945312,        0.3022460938,       -0.1533203125,      -71.6857910156,      -27.2369384766,      -59.7076416016
1488506508.0467970371,1488506508.0492119789,        0.6293945312,        0.3022460938,       -0.1533203125,      -68.5272216797,      -26.5655517578,      -54.3518066406
1488506508.0495018959,1488506508.0519340038,        0.6293945312,        0.3022460938,       -0.1533203125,      -68.5272216797,      -26.5655517578,      -54.3518066406
1488506508.0522239208,1488506508.0546441078,        0.6093750000,        0.2260742188,       -0.0996093750,      -64.9566650391,      -25.7720947266,      -51.4373779297
1488506508.0549359322,1488506508.0573511124,        0.6093750000,        0.2260742188,       -0.0996093750,      -64.9566650391,      -25.7720947266,      -51.4373779297
1488506508.0576429367,1488506508.0600550175,        0.6093750000,        0.2260742188,       -0.0996093750,      -61.5234375000,      -25.7263183594,      -49.8657226562
1488506508.0604538918,1488506508.0628619194,        0.6093750000,        0.2260742188,       -0.0996093750,      -61.5234375000,      -25.7263183594,      -49.8657226562
1488506508.0631480217,1488506508.0654380322,        0.5263671875,        0.1743164062,       -0.0507812500,      -57.9071044922,      -25.0549316406,      -46.2493896484
1488506508.0657238960,1488506508.0680201054,        0.5263671875,        0.1743164062,       -0.0507812500,      -57.9071044922,      -25.0549316406,      -46.2493896484
1488506508.0683040619,1488506508.0705919266,        0.5263671875,        0.1743164062,       -0.0507812500,      -50.3692626953,      -24.0631103516,      -40.9088134766
1488506508.0708770752,1488506508.0733029842,        0.5263671875,        0.1743164062,       -0.0507812500,      -50.3692626953,      -24.0631103516,      -40.9088134766
1488506508.0735969543,1488506508.0760169029,        0.4213867188,        0.1630859375,       -0.0288085938,      -41.0766601562,      -24.0631103516,      -34.5916748047
1488506508.0763099194,1488506508.0788099766,        0.4213867188,        0.1630859375,       -0.0288085938,      -41.0766601562,      -24.0631103516,      -34.5916748047
1488506508.0791039467,1488506508.0815129280,        0.4213867188,        0.1630859375,       -0.0288085938,      -34.1339111328,      -23.2849121094,      -27.8625488281
1488506508.0822029114,1488506508.0846209526,        0.2963867188,        0.2148437500,       -0.0170898438,      -34.1339111328,      -23.2849121094,      -27.8625488281
1488506508.0849161148,1488506508.0873420238,        0.3603515625,        0.2148437500,       -0.0170898438,      -31.5704345703,      -22.6135253906,      -20.8892822266
1488506508.0876350403,1488506508.0900599957,        0.3603515625,        0.2148437500,       -0.0170898438,      -31.5704345703,      -22.6135253906,      -20.8892822266
1488506508.0903520584,1488506508.0927839279,        0.3603515625,        0.2148437500,       -0.0170898438,      -30.5175781250,      -22.0947265625,      -12.9852294922
1488506508.0930778980,1488506508.0954990387,        0.3212890625,        0.2211914062,        0.0122070312,      -30.5175781250,      -22.0947265625,      -12.9852294922
1488506508.0957911015,1488506508.0982160568,        0.3212890625,        0.2211914062,        0.0122070312,      -27.4505615234,      -22.1252441406,       -5.0659179688
1488506508.0985059738,1488506508.1009240150,        0.3212890625,        0.2211914062,        0.0122070312,      -27.4505615234,      -22.1252441406,       -5.0659179688
1488506508.1012120247,1488506508.1036429405,        0.3212890625,        0.2211914062,        0.0122070312,      -21.9421386719,      -22.2015380859,        0.9765625000
1488506508.1039330959,1488506508.1063539982,        0.3520507812,        0.1367187500,        0.0141601562,      -21.9421386719,      -22.2015380859,        0.9765625000
1488506508.1066451073,1488506508.1090669632,        0.3520507812,        0.1367187500,        0.0141601562,      -15.4876708984,      -21.5301513672,        5.3710937500
1488506508.1093590260,1488506508.1117870808,        0.3520507812,        0.1367187500,        0.0141601562,      -15.4876708984,      -21.5301513672,        5.3710937500
1488506508.1120710373,1488506508.1143639088,        0.3520507812,        0.1367187500,        0.0405273438,      -11.8408203125,      -20.0195312500,       10.8489990234
1488506508.1146490574,1488506508.1169381142,        0.3330078125,        0.1420898438,        0.0405273438,      -11.8408203125,      -20.0195312500,       10.8489990234
1488506508.1172211170,1488506508.1195189953,        0.3330078125,        0.1420898438,        0.0405273438,       -8.5296630859,      -19.8211669922,       16.9067382812
1488506508.1198010445,1488506508.1221339703,        0.3330078125,        0.1420898438,        0.0405273438,       -8.5296630859,      -19.8211669922,       16.9067382812
1488506508.1224169731,1488506508.1247200966,        0.3330078125,        0.0971679688,        0.0722656250,       -4.2724609375,      -18.9361572266,       24.0173339844
1488506508.1251139641,1488506508.1274011135,        0.2451171875,        0.0971679688,        0.0722656250,       -4.2724609375,      -18.9361572266,       24.0173339844
1488506508.1276819706,1488506508.1299779415,        0.2451171875,        0.0971679688,        0.0722656250,        1.1138916016,      -17.8833007812,       30.6854248047
1488506508.1302609444,1488506508.1326489449,        0.2451171875,        0.0971679688,        0.0722656250,        1.1138916016,      -17.8833007812,       30.6854248047
1488506508.1329319477,1488506508.1352279186,        0.1894531250,        0.0400390625,        0.0849609375,        7.5378417969,      -17.3950195312,       37.1093750000
1488506508.1355090141,1488506508.1378018856,        0.1894531250,        0.0400390625,        0.0849609375,        7.5378417969,      -17.3950195312,       37.1093750000
1488506508.1380829811,1488506508.1403789520,        0.1894531250,        0.0400390625,        0.0849609375,       13.8244628906,      -16.2658691406,       42.5872802734
1488506508.1406629086,1488506508.1432170868,        0.1894531250,        0.0400390625,        0.0849609375,       13.8244628906,      -16.2658691406,       42.5872802734
1488506508.1435101032,1488506508.1459290981,        0.1381835938,        0.0454101562,        0.0961914062,       18.4020996094,      -15.0299072266,       48.4466552734
1488506508.1462221146,1488506508.1486439705,        0.1381835938,        0.0454101562,        0.0961914062,       18.4020996094,      -15.0299072266,       48.4466552734
1488506508.1489360332,1488506508.1513509750,        0.1381835938,        0.0454101562,        0.0961914062,       22.7050781250,      -13.8549804688,       54.6569824219
1488506508.1516408920,1488506508.1541099548,        0.1381835938,        0.0454101562,        0.0961914062,       22.7050781250,      -13.8549804688,       54.6569824219
1488506508.1544020176,1488506508.1568210125,        0.1103515625,        0.0351562500,        0.0942382812,       25.4669189453,      -12.3901367188,       60.8520507812
1488506508.1571140289,1488506508.1595311165,        0.1103515625,        0.0351562500,        0.0942382812,       25.4669189453,      -12.3901367188,       60.8520507812
1488506508.1598229408,1488506508.1622569561,        0.1103515625,        0.0351562500,        0.0942382812,       27.1606445312,      -10.7727050781,       67.9473876953
1488506508.1625449657,1488506508.1648330688,        0.1103515625,        0.0351562500,        0.1010742188,       27.1606445312,      -10.7727050781,       67.9473876953
1488506508.1651210785,1488506508.1674170494,        0.0854492188,        0.0410156250,        0.1010742188,       31.0668945312,       -8.2855224609,       73.5626220703
1488506508.1677000523,1488506508.1699950695,        0.0854492188,        0.0410156250,        0.1010742188,       28.4576416016,       -8.2855224609,       73.5626220703
1488506508.1702790260,1488506508.1725859642,        0.0854492188,        0.0410156250,        0.1010742188,       28.4576416016,       -4.3792724609,       79.8645019531
1488506508.1728689671,1488506508.1751689911,        0.0854492188,        0.0302734375,        0.1342773438,       31.1584472656,       -6.5917968750,       79.8645019531
1488506508.1754510403,1488506508.1777400970,        0.0390625000,        0.0302734375,        0.1342773438,       31.1584472656,       -6.5917968750,       86.2884521484
1488506508.1780219078,1488506508.1803181171,        0.0390625000,        0.0302734375,        0.1342773438,       35.5987548828,       -4.8065185547,       86.2884521484
1488506508.1805980206,1488506508.1830079556,        0.0390625000,        0.0302734375,        0.1342773438,       35.5987548828,       -4.8065185547,       90.1947021484
1488506508.1832909584,1488506508.1855890751,        0.0415039062,        0.0615234375,        0.1040039062,       38.1927490234,       -3.0670166016,       92.1325683594
1488506508.1858730316,1488506508.1881680489,        0.0415039062,        0.0615234375,        0.1040039062,       38.1927490234,       -3.0670166016,       92.1325683594
1488506508.1884500980,1488506508.1907379627,        0.0415039062,        0.0615234375,        0.1040039062,       39.2150878906,       -0.9613037109,       98.2666015625
1488506508.1911280155,1488506508.1935610771,        0.0415039062,        0.0615234375,        0.1040039062,       39.2150878906,       -0.9613037109,       98.2666015625
1488506508.1938509941,1488506508.1962709427,        0.0151367188,        0.0908203125,        0.1098632812,       38.8031005859,        1.5716552734,      105.2551269531
1488506508.1965620518,1488506508.1992180347,        0.0151367188,        0.0908203125,        0.1098632812,       38.8031005859,        1.5716552734,      113.0676269531
1488506508.1995100975,1488506508.2019259930,        0.0151367188,        0.0908203125,        0.1098632812,       36.7279052734,        4.1656494141,      111.6180419922
1488506508.2023000717,1488506508.2048621178,        0.0151367188,        0.0908203125,        0.1098632812,       36.7279052734,        4.1656494141,      116.9128417969
1488506508.2051529884,1488506508.2075688839,        0.0317382812,        0.0742187500,        0.0874023438,       35.4919433594,        6.8054199219,      116.9128417969
1488506508.2078580856,1488506508.2102758884,        0.0317382812,        0.0742187500,        0.0874023438,       35.4919433594,        6.8054199219,      121.9177246094
1488506508.2105650902,1488506508.2129330635,        0.0317382812,        0.0742187500,        0.0874023438,       34.8205566406,        8.6212158203,      121.9177246094
1488506508.2132139206,1488506508.2155139446,        0.0317382812,        0.0986328125,        0.0922851562,       34.8205566406,        8.6212158203,      125.8239746094
1488506508.2157950401,1488506508.2180869579,        0.0512695312,        0.0986328125,        0.0922851562,       32.9284667969,       11.0931396484,      126.4953613281
1488506508.2183690071,1488506508.2206621170,        0.0512695312,        0.0986328125,        0.0922851562,       32.9284667969,       11.0931396484,      126.4953613281
1488506508.2209439278,1488506508.2233579159,        0.0512695312,        0.0986328125,        0.0922851562,       31.2957763672,       14.4348144531,      130.1269531250
1488506508.2236518860,1488506508.2260661125,        0.0512695312,        0.1240234375,        0.1269531250,       31.2957763672,       14.4348144531,      130.1269531250
1488506508.2263569832,1488506508.2287740707,        0.0747070312,        0.1240234375,        0.1269531250,       31.0668945312,       17.4407958984,      131.8206787109
1488506508.2290670872,1488506508.2314939499,        0.0747070312,        0.1240234375,        0.1269531250,       31.0668945312,       17.4407958984,      131.8206787109
1488506508.2317960262,1488506508.2340910435,        0.0747070312,        0.1240234375,        0.1269531250,       33.1726074219,       19.2871093750,      133.2244873047
1488506508.2343750000,1488506508.2366750240,        0.0683593750,        0.1733398438,        0.1596679688,       33.1726074219,       19.2871093750,      133.2244873047
1488506508.2369570732,1488506508.2392520905,        0.0683593750,        0.1733398438,        0.1596679688,       37.2467041016,       20.3857421875,      134.9029541016
1488506508.2395360470,1488506508.2418339252,        0.0683593750,        0.1733398438,        0.1596679688,       37.2467041016,       20.3857421875,      134.9029541016
1488506508.2421200275,1488506508.2444210052,        0.0683593750,        0.1733398438,        0.1596679688,       40.8630371094,       22.8881835938,      135.5590820312
1488506508.2447059155,1488506508.2469930649,        0.0576171875,        0.2602539062,        0.1440429688,       40.8630371094,       22.8881835938,      135.5590820312
1488506508.2472770214,1488506508.2495748997,        0.0576171875,        0.2602539062,        0.1440429688,       43.2739257812,       26.3519287109,      136.0473632812
1488506508.2498610020,1488506508.2522709370,        0.0576171875,        0.2602539062,        0.1440429688,       43.2739257812,       26.3519287109,      136.0473632812
1488506508.2525579929,1488506508.2548580170,        0.0576171875,        0.2602539062,        0.1440429688,       47.0275878906,       28.2745361328,      136.2304687500
1488506508.2552509308,1488506508.2575550079,        0.0644531250,        0.2807617188,        0.1235351562,       47.0275878906,       28.2745361328,      136.2304687500
1488506508.2578389645,1488506508.2601280212,        0.0644531250,        0.2807617188,        0.1235351562,       51.6510009766,       29.4494628906,      135.9863281250
1488506508.2604129314,1488506508.2628068924,        0.0644531250,        0.2807617188,        0.1235351562,       51.6510009766,       29.4494628906,      135.9863281250
1488506508.2630929947,1488506508.2653949261,        0.0644531250,        0.2807617188,        0.1235351562,       55.5572509766,       31.5551757812,      135.1165771484
1488506508.2656800747,1488506508.2679750919,        0.0874023438,        0.2983398438,        0.0883789062,       56.9915771484,       31.5551757812,      135.1165771484
1488506508.2682600021,1488506508.2705509663,        0.0874023438,        0.2983398438,        0.0883789062,       56.9915771484,       31.5551757812,      133.7432861328
1488506508.2708370686,1488506508.2732219696,        0.0874023438,        0.2983398438,        0.0883789062,       62.3321533203,       33.3709716797,      133.7432861328
1488506508.2735149860,1488506508.2759308815,        0.0874023438,        0.2983398438,        0.0390625000,       62.3321533203,       33.3709716797,      131.8969726562
1488506508.2762238979,1488506508.2786459923,        0.1064453125,        0.3925781250,        0.0390625000,       65.3991699219,       34.5611572266,      131.8969726562
1488506508.2789390087,1488506508.2813570499,        0.1064453125,        0.3925781250,        0.0390625000,       65.3991699219,       38.4674072266,      129.9591064453
1488506508.2816491127,1488506508.2841041088,        0.1064453125,        0.3925781250,        0.0390625000,       65.0939941406,       36.4227294922,      129.9591064453
1488506508.2843999863,1488506508.2868170738,        0.1435546875,        0.4946289062,       -0.0263671875,       65.0939941406,       36.4227294922,      127.4566650391
1488506508.2871088982,1488506508.2895278931,        0.1435546875,        0.4946289062,       -0.0263671875,       64.3005371094,       38.3148193359,      127.4566650391
1488506508.2898221016,1488506508.2922110558,        0.1435546875,        0.4946289062,       -0.0263671875,       64.3005371094,       42.2210693359,      124.8931884766
1488506508.2924959660,1488506508.2947940826,        0.1435546875,        0.4946289062,       -0.0263671875,       64.2547607422,       39.2150878906,      124.8931884766
1488506508.2950789928,1488506508.2973690033,        0.1733398438,        0.5966796875,       -0.0546875000,       64.2547607422,       39.2150878906,      121.9024658203
1488506508.2976529598,1488506508.2999489307,        0.1733398438,        0.5966796875,       -0.0546875000,       62.8356933594,       40.8935546875,      121.9024658203
1488506508.3002328873,1488506508.3027429581,        0.1733398438,        0.5966796875,       -0.0546875000,       62.8356933594,       40.8935546875,      117.9962158203
1488506508.3030300140,1488506508.3053209782,        0.1733398438,        0.5966796875,       -0.0546875000,       58.8836669922,       42.6940917969,      118.4692382812
1488506508.3056049347,1488506508.3079059124,        0.1923828125,        0.6840820312,       -0.0888671875,       58.8836669922,       42.6940917969,      118.4692382812
1488506508.3081889153,1488506508.3104820251,        0.1923828125,        0.6840820312,       -0.0888671875,       54.4281005859,       43.8079833984,      114.6545410156
1488506508.3107659817,1488506508.3130919933,        0.1923828125,        0.6840820312,       -0.0888671875,       54.4281005859,       43.8079833984,      114.6545410156
1488506508.3133759499,1488506508.3156790733,        0.1923828125,        0.6840820312,       -0.0888671875,       52.8869628906,       44.9676513672,      109.6191406250
1488506508.3159630299,1488506508.3183760643,        0.2290039062,        0.6772460938,       -0.0805664062,       52.8869628906,       44.9676513672,      109.6191406250
1488506508.3187708855,1488506508.3210721016,        0.2290039062,        0.6772460938,       -0.0805664062,       53.6651611328,       45.7763671875,      103.0883789062
1488506508.3213579655,1488506508.3239829540,        0.2290039062,        0.6772460938,       -0.0805664062,       53.6651611328,       45.7763671875,      103.0883789062
1488506508.3249568939,1488506508.3272550106,        0.2656250000,        0.6801757812,       -0.0874023438,       56.5338134766,       46.9970703125,       95.6878662109
1488506508.3275430202,1488506508.3298308849,        0.2656250000,        0.6801757812,       -0.0874023438,       56.5338134766,       46.9970703125,       87.8753662109
1488506508.3301160336,1488506508.3324840069,        0.2656250000,        0.6801757812,       -0.0874023438,       61.3555908203,       48.1414794922,       87.7380371094
1488506508.3327710629,1488506508.3350579739,        0.2656250000,        0.6801757812,       -0.0874023438,       61.3555908203,       48.1414794922,       87.7380371094
1488506508.3353440762,1488506508.3376328945,        0.2636718750,        0.7089843750,       -0.1083984375,       69.5800781250,       48.1109619141,       79.9713134766
1488506508.3379180431,1488506508.3402049541,        0.2636718750,        0.7089843750,       -0.1083984375,       69.5800781250,       48.1109619141,       79.9713134766
1488506508.3404910564,1488506508.3427860737,        0.2636718750,        0.7089843750,       -0.1083984375,       79.0100097656,       46.8139648438,       72.3114013672
1488506508.3430719376,1488506508.3453600407,        0.2636718750,        0.7089843750,       -0.1083984375,       79.0100097656,       46.8139648438,       72.3114013672
1488506508.3456449509,1488506508.3479349613,        0.2436523438,        0.8203125000,       -0.1796875000,       81.8328857422,       45.8984375000,       65.4449462891
1488506508.3482179642,1488506508.3505079746,        0.2436523438,        0.8203125000,       -0.1796875000,       81.8328857422,       45.8984375000,       65.4449462891
1488506508.3507909775,1488506508.3531908989,        0.2436523438,        0.8203125000,       -0.1796875000,       79.1778564453,       47.2259521484,       58.9752197266
1488506508.3534750938,1488506508.3557620049,        0.2436523438,        0.8203125000,       -0.1796875000,       79.1778564453,       47.2259521484,       58.9752197266
1488506508.3560450077,1488506508.3583340645,        0.2397460938,        1.0000000000,       -0.1787109375,       71.6857910156,       47.5769042969,       50.4608154297
1488506508.3586199284,1488506508.3609120846,        0.2397460938,        1.0000000000,       -0.1787109375,       71.6857910156,       47.5769042969,       50.4608154297
1488506508.3611950874,1488506508.3635048866,        0.2397460938,        1.0000000000,       -0.1787109375,       65.9637451172,       45.1202392578,       41.3665771484
1488506508.3637890816,1488506508.3660800457,        0.2397460938,        1.0000000000,       -0.1787109375,       65.9637451172,       45.1202392578,       41.3665771484
1488506508.3663630486,1488506508.3686590195,        0.4067382812,        1.1577148438,       -0.2822265625,       65.9637451172,       43.8232421875,       31.8298339844
1488506508.3689401150,1488506508.3712348938,        0.4067382812,        1.1577148438,       -0.2822265625,       66.0095214844,       43.8232421875,       31.8298339844
1488506508.3715178967,1488506508.3739631176,        0.4067382812,        1.1577148438,       -0.2822265625,       66.0095214844,       39.9169921875,       22.7966308594
1488506508.3742458820,1488506508.3765420914,        0.4067382812,        1.1577148438,       -0.4072265625,       67.6574707031,       42.7703857422,       22.7966308594
1488506508.3768270016,1488506508.3791930676,        0.5375976562,        1.1079101562,       -0.3984375000,       67.6574707031,       42.7703857422,       11.9934082031
1488506508.3794770241,1488506508.3819520473,        0.5375976562,        1.1079101562,       -0.3984375000,       69.6258544922,       40.0390625000,       11.9934082031
1488506508.3823850155,1488506508.3846960068,        0.5375976562,        1.1079101562,       -0.3984375000,       69.6258544922,       40.0390625000,       -2.2735595703
1488506508.3849780560,1488506508.3872730732,        0.5375976562,        1.3398437500,       -0.4702148438,       75.5615234375,       36.0870361328,       -2.2735595703
1488506508.3875539303,1488506508.3898549080,        0.6464843750,        1.3398437500,       -0.4702148438,       75.5615234375,       36.0870361328,      -17.8985595703
1488506508.3901379108,1488506508.3926310539,        0.6464843750,        1.3398437500,       -0.4702148438,       81.2225341797,       29.7698974609,      -18.1732177734
1488506508.3929190636,1488506508.3953030109,        0.6464843750,        1.3398437500,       -0.4702148438,       81.2225341797,       29.7698974609,      -33.7982177734
1488506508.3955929279,1488506508.3982648849,        0.7314453125,        1.6582031250,       -0.6767578125,       81.9854736328,       24.2919921875,      -33.4167480469
1488506508.3985509872,1488506508.4008429050,        0.7314453125,        1.6582031250,       -0.6767578125,       81.9854736328,       24.2919921875,      -47.1649169922
1488506508.4011249542,1488506508.4034869671,        0.7314453125,        1.6582031250,       -0.6767578125,       79.5135498047,       19.3023681641,      -47.1649169922
1488506508.4037699699,1488506508.4060609341,        0.7314453125,        1.6582031250,       -0.6767578125,       79.5135498047,       19.3023681641,      -58.8836669922
1488506508.4063429832,1488506508.4086349010,        0.7143554688,        1.5302734375,       -0.8115234375,       74.3713378906,       14.5111083984,      -60.3942871094
1488506508.4089179039,1488506508.4112169743,        0.7143554688,        1.5302734375,       -0.8115234375,       74.3713378906,       14.5111083984,      -60.3942871094
1488506508.4114999771,1488506508.4138350487,        0.7143554688,        1.5302734375,       -0.8115234375,       66.4062500000,       10.0250244141,      -70.0836181641
1488506508.4141199589,1488506508.4164080620,        0.7143554688,        1.5302734375,       -0.8115234375,       66.4062500000,       10.0250244141,      -70.0836181641
1488506508.4166929722,1488506508.4189889431,        0.5839843750,        0.7827148438,       -0.8388671875,       54.0161132812,        6.7749023438,      -73.2879638672
1488506508.4192719460,1488506508.4215579033,        0.5839843750,        0.7827148438,       -0.8388671875,       54.0161132812,        6.7749023438,      -73.2879638672
1488506508.4218389988,1488506508.4241280556,        0.5839843750,        0.7827148438,       -0.8388671875,       34.5153808594,        6.1035156250,      -68.5882568359
1488506508.4244089127,1488506508.4267020226,        0.5839843750,        0.7827148438,       -0.8388671875,       34.5153808594,        6.1035156250,      -68.5882568359
1488506508.4269840717,1488506508.4292759895,        0.5937500000,       -0.1381835938,       -0.5424804688,       15.9454345703,        4.0283203125,      -60.8367919922
1488506508.4295558929,1488506508.4318981171,        0.5937500000,       -0.1381835938,       -0.5424804688,       15.9454345703,        4.0283203125,      -60.8367919922
1488506508.4321780205,1488506508.4344649315,        0.5937500000,       -0.1381835938,       -0.5424804688,       10.8947753906,       -1.6479492188,      -58.2885742188
1488506508.4347460270,1488506508.4370360374,        0.5937500000,       -0.1381835938,       -0.2924804688,       10.8947753906,       -1.6479492188,      -58.2885742188
1488506508.4373159409,1488506508.4396119118,        0.5844726562,       -0.3583984375,       -0.3588867188,       14.8010253906,       -7.2174072266,      -59.9822998047
1488506508.4398939610,1488506508.4422609806,        0.5844726562,       -0.3583984375,       -0.3588867188,       15.1519775391,       -7.2174072266,      -59.9822998047
1488506508.4425430298,1488506508.4448390007,        0.5844726562,       -0.3583984375,       -0.3588867188,       15.1519775391,       -9.0484619141,      -57.6324462891
1488506508.4452369213,1488506508.4475328922,        0.5844726562,       -0.3583984375,       -0.2392578125,       14.9536132812,       -9.0484619141,      -57.6324462891
1488506508.4478149414,1488506508.4501080513,        0.5048828125,       -0.0732421875,       -0.2392578125,       14.9536132812,       -9.0484619141,      -49.0112304688
1488506508.4503920078,1488506508.4528141022,        0.5048828125,       -0.0732421875,       -0.2392578125,       11.7492675781,      -11.5814208984,      -49.0112304688
1488506508.4530990124,1488506508.4553980827,        0.5048828125,       -0.0732421875,       -0.2392578125,       11.7492675781,      -11.5814208984,      -43.3197021484
1488506508.4556810856,1488506508.4579761028,        0.5048828125,        0.0488281250,       -0.2363281250,       14.9841308594,      -16.2811279297,      -43.3197021484
1488506508.4582600594,1488506508.4605650902,        0.5209960938,        0.0488281250,       -0.2363281250,       14.9841308594,      -16.2811279297,      -43.3197021484
1488506508.4608490467,1488506508.4631481171,        0.5209960938,        0.0488281250,       -0.2363281250,       21.4691162109,      -19.0124511719,      -44.7998046875
1488506508.4634330273,1488506508.4657170773,        0.5209960938,        0.0488281250,       -0.2363281250,       21.4691162109,      -19.0124511719,      -44.7998046875
1488506508.4660010338,1488506508.4682910442,        0.3959960938,        0.5034179688,       -0.0903320312,       26.8859863281,      -18.2952880859,      -45.9899902344
1488506508.4685750008,1488506508.4708569050,        0.4506835938,        0.5034179688,       -0.0903320312,       26.8859863281,      -18.2952880859,      -45.9899902344
1488506508.4711430073,1488506508.4734981060,        0.4506835938,        0.5034179688,       -0.0903320312,       27.7862548828,      -19.3328857422,      -45.0286865234
1488506508.4737830162,1488506508.4760699272,        0.4506835938,        0.5034179688,       -0.0903320312,       27.7862548828,      -19.3328857422,      -45.0286865234
1488506508.4763560295,1488506508.4786419868,        0.3784179688,        0.7080078125,        0.0268554688,       21.7590332031,      -20.3552246094,      -42.6025390625
1488506508.4789280891,1488506508.4812180996,        0.3784179688,        0.7080078125,        0.0268554688,       21.7590332031,      -20.3552246094,      -42.6025390625
1488506508.4815020561,1488506508.4838449955,        0.3784179688,        0.7080078125,        0.0268554688,       10.5895996094,      -17.6391601562,      -36.9873046875
1488506508.4841289520,1488506508.4864170551,        0.3784179688,        0.7080078125,        0.0268554688,       10.5895996094,      -17.6391601562,      -36.9873046875
1488506508.4867010117,1488506508.4889969826,        0.3754882812,        0.5732421875,        0.1582031250,        0.8392333984,      -15.0299072266,      -30.3955078125
1488506508.4892780781,1488506508.4915640354,        0.3754882812,        0.5732421875,        0.1582031250,        0.8392333984,      -15.0299072266,      -30.3955078125
1488506508.4918439388,1488506508.4941608906,        0.3754882812,        0.5732421875,        0.1582031250,       -5.4473876953,      -14.6026611328,      -22.9644775391
1488506508.4944410324,1488506508.4967288971,        0.3754882812,        0.5732421875,        0.1582031250,       -5.4473876953,      -14.6026611328,      -22.9644775391
1488506508.4970109463,1488506508.4992949963,        0.4042968750,        0.3579101562,        0.2172851562,       -5.4473876953,      -13.2141113281,      -18.3105468750
1488506508.4995770454,1488506508.5019390583,        0.4042968750,        0.3579101562,        0.2172851562,       -8.0261230469,      -13.2141113281,      -18.3105468750
1488506508.5022189617,1488506508.5045111179,        0.4042968750,        0.3579101562,        0.2172851562,       -8.0261230469,      -13.2141113281,      -17.7764892578
1488506508.5047919750,1488506508.5070860386,        0.4042968750,        0.3579101562,        0.2172851562,       -3.7536621094,      -12.4359130859,      -17.7764892578
1488506508.5074770451,1488506508.5099580288,        0.3339843750,        0.2661132812,        0.1791992188,       -3.7536621094,      -12.4359130859,      -17.9595947266
1488506508.5102400780,1488506508.5128319263,        0.3339843750,        0.2661132812,        0.1791992188,        3.7841796875,      -13.2751464844,      -17.9595947266
1488506508.5131249428,1488506508.5155520439,        0.3339843750,        0.2661132812,        0.1791992188,        3.7841796875,      -13.2751464844,      -17.2119140625
1488506508.5158419609,1488506508.5182600021,        0.3339843750,        0.2661132812,        0.0429687500,       10.2539062500,      -13.9465332031,      -17.2119140625
1488506508.5185530186,1488506508.5209720135,        0.2104492188,        0.2797851562,        0.0429687500,       10.2539062500,      -13.9465332031,      -14.8468017578
1488506508.5212640762,1488506508.5237278938,        0.2104492188,        0.2797851562,        0.0429687500,       15.6555175781,      -15.5029296875,      -14.8468017578
1488506508.5240209103,1488506508.5264379978,        0.2104492188,        0.2797851562,        0.0429687500,       15.6555175781,      -19.4091796875,      -12.5427246094
1488506508.5267291069,1488506508.5291500092,        0.2104492188,        0.3940429688,       -0.1049804688,       20.8129882812,      -17.8833007812,      -12.5427246094
1488506508.5294430256,1488506508.5318999290,        0.1625976562,        0.3940429688,       -0.1049804688,       20.8129882812,      -21.7895507812,       -9.0789794922
1488506508.5321900845,1488506508.5346050262,        0.1625976562,        0.3940429688,       -0.1049804688,       22.9949951172,      -19.5617675781,       -9.0789794922
1488506508.5348949432,1488506508.5373179913,        0.1625976562,        0.3940429688,       -0.1049804688,       22.9949951172,      -19.5617675781,       -3.6163330078
1488506508.5376069546,1488506508.5400269032,        0.1806640625,        0.4438476562,       -0.2055664062,       21.9879150391,      -21.7132568359,       -3.6163330078
1488506508.5403161049,1488506508.5426959991,        0.1806640625,        0.4438476562,       -0.2055664062,       21.9879150391,      -21.7132568359,        1.3885498047
1488506508.5429770947,1488506508.5452780724,        0.1806640625,        0.4438476562,       -0.2055664062,       20.0042724609,      -23.0255126953,        1.3885498047
1488506508.5455589294,1488506508.5478529930,        0.1806640625,        0.4438476562,       -0.2055664062,       20.0042724609,      -23.0255126953,        7.0953369141
1488506508.5481340885,1488506508.5504329205,        0.2705078125,        0.4394531250,       -0.2661132812,       16.8609619141,      -24.6734619141,        7.0953369141
1488506508.5507140160,1488506508.5530540943,        0.2705078125,        0.4394531250,       -0.2661132812,       16.8609619141,      -24.6734619141,       14.9078369141
1488506508.5533370972,1488506508.5556290150,        0.2705078125,        0.4394531250,       -0.2661132812,       12.6190185547,      -25.7415771484,       13.6413574219
1488506508.5559151173,1488506508.5582079887,        0.2705078125,        0.4394531250,       -0.2661132812,       12.6190185547,      -25.7415771484,       13.6413574219
1488506508.5584919453,1488506508.5607850552,        0.3715820312,        0.4428710938,       -0.3427734375,        6.6375732422,      -26.6418457031,       20.4010009766
1488506508.5610649586,1488506508.5635359287,        0.3715820312,        0.4428710938,       -0.3427734375,        6.6375732422,      -26.6418457031,       20.4010009766
1488506508.5638179779,1488506508.5661180019,        0.3715820312,        0.4428710938,       -0.3427734375,        1.8310546875,      -27.4505615234,       26.2603759766
1488506508.5663979053,1488506508.5686929226,        0.3715820312,        0.4428710938,       -0.3886718750,        1.8310546875,      -27.4505615234,       26.2603759766
1488506508.5689721107,1488506508.5712730885,        0.4624023438,        0.4116210938,       -0.3886718750,       -3.2958984375,      -26.6723632812,       30.9448242188
1488506508.5718090534,1488506508.5742290020,        0.4624023438,        0.4116210938,       -0.3886718750,       -3.2958984375,      -26.6723632812,       30.9448242188
1488506508.5745179653,1488506508.5769429207,        0.4624023438,        0.4116210938,       -0.3886718750,       -7.4005126953,      -26.9927978516,       35.3088378906
1488506508.5772318840,1488506508.5796530247,        0.5874023438,        0.3510742188,       -0.3935546875,       -7.4005126953,      -26.9927978516,       35.3088378906
1488506508.5799410343,1488506508.5823719501,        0.6210937500,        0.3510742188,       -0.3935546875,      -10.2996826172,      -26.2298583984,       38.6810302734
1488506508.5826630592,1488506508.5851919651,        0.6210937500,        0.3510742188,       -0.3935546875,      -10.2996826172,      -26.2298583984,       38.6810302734
1488506508.5854771137,1488506508.5877718925,        0.6210937500,        0.3510742188,       -0.3935546875,      -12.5274658203,      -23.3001708984,       40.4205322266
1488506508.5880560875,1488506508.5903470516,        0.6557617188,        0.2534179688,       -0.3276367188,      -12.5274658203,      -23.3001708984,       40.4205322266
1488506508.5906310081,1488506508.5930879116,        0.6557617188,        0.2534179688,       -0.3276367188,      -12.5579833984,      -24.0783691406,       41.5496826172
1488506508.5933780670,1488506508.5957601070,        0.6557617188,        0.2534179688,       -0.3276367188,      -12.5579833984,      -24.0783691406,       41.5496826172
1488506508.5960500240,1488506508.5986399651,        0.6557617188,        0.2534179688,       -0.3276367188,      -11.3067626953,      -22.9034423828,       41.0156250000
1488506508.5989270210,1488506508.6012189388,        0.7270507812,        0.1933593750,       -0.2797851562,      -11.3067626953,      -22.9034423828,       41.0156250000
1488506508.6015028954,1488506508.6038599014,        0.7270507812,        0.1933593750,       -0.2797851562,       -7.3699951172,      -21.9268798828,       40.1916503906
1488506508.6041419506,1488506508.6064300537,        0.7270507812,        0.1933593750,       -0.2797851562,       -7.3699951172,      -21.9268798828,       40.1916503906
1488506508.6067109108,1488506508.6089990139,        0.7270507812,        0.1933593750,       -0.2333984375,       -3.3416748047,      -20.9197998047,       38.9251708984
1488506508.6092779636,1488506508.6115639210,        0.7407226562,        0.2187500000,       -0.2333984375,       -3.3416748047,      -20.9197998047,       38.9251708984
1488506508.6118440628,1488506508.6141309738,        0.7407226562,        0.2187500000,       -0.2333984375,       -0.3356933594,      -20.2178955078,       37.3687744141
1488506508.6144130230,1488506508.6166970730,        0.7407226562,        0.2187500000,       -0.2333984375,       -0.3356933594,      -20.2178955078,       37.3687744141
1488506508.6169800758,1488506508.6192700863,        0.7407226562,        0.2187500000,       -0.1997070312,        3.5705566406,      -19.2871093750,       35.7208251953
1488506508.6195518970,1488506508.6218910217,        0.7734375000,        0.2333984375,       -0.1997070312,        2.3193359375,      -19.2871093750,       35.7208251953
1488506508.6221709251,1488506508.6244599819,        0.7734375000,        0.2333984375,       -0.1997070312,        2.3193359375,      -18.7072753906,       33.4167480469
1488506508.6247398853,1488506508.6270289421,        0.7734375000,        0.2333984375,       -0.1997070312,        5.8593750000,      -18.7072753906,       33.4167480469
1488506508.6273090839,1488506508.6295990944,        0.7734375000,        0.2333984375,       -0.1845703125,        5.8593750000,      -18.7072753906,       31.8145751953
1488506508.6298799515,1488506508.6321749687,        0.7832031250,        0.1997070312,       -0.1845703125,        8.2244873047,      -18.3105468750,       31.8145751953
1488506508.6324560642,1488506508.6347439289,        0.7832031250,        0.1997070312,       -0.1845703125,        8.2244873047,      -18.3105468750,       27.9083251953
1488506508.6351339817,1488506508.6374230385,        0.7832031250,        0.1997070312,       -0.1845703125,        9.6282958984,      -17.7764892578,       31.0363769531
1488506508.6377038956,1488506508.6399950981,        0.7832031250,        0.2285156250,       -0.2226562500,        9.6282958984,      -17.7764892578,       31.0363769531
1488506508.6402769089,1488506508.6426289082,        0.7167968750,        0.2285156250,       -0.2226562500,       10.5133056641,      -17.5628662109,       30.4870605469
1488506508.6429150105,1488506508.6452119350,        0.7167968750,        0.2285156250,       -0.2226562500,       10.5133056641,      -17.5628662109,       30.4870605469
1488506508.6454949379,1488506508.6477899551,        0.7167968750,        0.2285156250,       -0.2226562500,       10.9405517578,      -17.0898437500,       29.0832519531
1488506508.6480729580,1488506508.6503639221,        0.7558593750,        0.2041015625,       -0.2534179688,       10.9405517578,      -17.0898437500,       29.0832519531
1488506508.6506490707,1488506508.6531319618,        0.7558593750,        0.2041015625,       -0.2534179688,       10.7574462891,      -16.7083740234,       28.3660888672
1488506508.6534240246,1488506508.6558289528,        0.7558593750,        0.2041015625,       -0.2534179688,       10.7574462891,      -16.7083740234,       28.3660888672
1488506508.6561210155,1488506508.6585268974,        0.7558593750,        0.2041015625,       -0.2534179688,       13.9770507812,      -16.3879394531,       28.3203125000
1488506508.6588189602,1488506508.6612210274,        0.7480468750,        0.1684570312,       -0.2675781250,       13.9770507812,      -16.3879394531,       28.3203125000
1488506508.6615118980,1488506508.6639258862,        0.7480468750,        0.1684570312,       -0.2675781250,       18.3563232422,      -17.7764892578,       27.3284912109
1488506508.6642179489,1488506508.6666240692,        0.7480468750,        0.1684570312,       -0.2675781250,       18.3563232422,      -17.7764892578,       27.3284912109
1488506508.6669130325,1488506508.6693189144,        0.7480468750,        0.1684570312,       -0.2675781250,       21.4538574219,      -19.1192626953,       27.4200439453
1488506508.6696100235,1488506508.6720180511,        0.6982421875,        0.2221679688,       -0.2778320312,       21.4538574219,      -19.1192626953,       27.4200439453
1488506508.6723110676,1488506508.6747119427,        0.6982421875,        0.2221679688,       -0.2778320312,       22.9797363281,      -20.1416015625,       26.9317626953
1488506508.6750040054,1488506508.6774110794,        0.6982421875,        0.2221679688,       -0.2778320312,       22.9797363281,      -20.1416015625,       26.9317626953
1488506508.6777009964,1488506508.6801130772,        0.6982421875,        0.3471679688,       -0.2734375000,       24.6429443359,      -19.8211669922,       26.6265869141
1488506508.6804039478,1488506508.6828129292,        0.6562500000,        0.2578125000,       -0.2734375000,       24.6429443359,      -19.8211669922,       26.6265869141
1488506508.6831059456,1488506508.6855111122,        0.6562500000,        0.2578125000,       -0.2734375000,       23.4069824219,      -19.1650390625,       26.9927978516
1488506508.6858010292,1488506508.6882059574,        0.6562500000,        0.2578125000,       -0.2734375000,       23.4069824219,      -19.1650390625,       26.9927978516
1488506508.6884961128,1488506508.6909000874,        0.6093750000,        0.2431640625,       -0.2451171875,       22.3693847656,      -17.7154541016,       27.4810791016
1488506508.6911900043,1488506508.6936070919,        0.6093750000,        0.2431640625,       -0.2451171875,       22.3693847656,      -17.7154541016,       27.4810791016
1488506508.6938970089,1488506508.6963040829,        0.6093750000,        0.2431640625,       -0.2451171875,       21.0723876953,      -15.8843994141,       28.4881591797
1488506508.6965959072,1488506508.6990010738,        0.6093750000,        0.2431640625,       -0.2451171875,       21.0723876953,      -15.8843994141,       28.4881591797
1488506508.6994009018,1488506508.7018160820,        0.5766601562,        0.2749023438,       -0.2363281250,       19.0429687500,      -13.9007568359,       29.0222167969
1488506508.7021069527,1488506508.7045159340,        0.5766601562,        0.2749023438,       -0.2363281250,       19.0429687500,      -13.9007568359,       29.0222167969
1488506508.7048060894,1488506508.7072129250,        0.5766601562,        0.2749023438,       -0.2363281250,       16.0980224609,      -11.7492675781,       29.3579101562
1488506508.7075068951,1488506508.7100338936,        0.5766601562,        0.2749023438,       -0.3613281250,       16.0980224609,      -11.7492675781,       29.3579101562
1488506508.7103269100,1488506508.7131481171,        0.5996093750,        0.2885742188,       -0.2529296875,       11.4593505859,       -9.5214843750,       29.7698974609
1488506508.7134389877,1488506508.7158579826,        0.5996093750,        0.2885742188,       -0.2529296875,       11.4593505859,       -9.5214843750,       29.7698974609
1488506508.7161459923,1488506508.7185630798,        0.5996093750,        0.2885742188,       -0.2529296875,        7.9650878906,       -7.7362060547,       30.5480957031
1488506508.7188510895,1488506508.7212579250,        0.6250000000,        0.2026367188,       -0.2509765625,        7.9650878906,       -7.7362060547,       30.5480957031
1488506508.7215418816,1488506508.7239670753,        0.6250000000,        0.2026367188,       -0.2509765625,        7.3547363281,       -6.4392089844,       31.1279296875
1488506508.7242519855,1488506508.7266669273,        0.6250000000,        0.2026367188,       -0.2509765625,        7.3547363281,       -6.4392089844,       31.1279296875
1488506508.7269508839,1488506508.7293679714,        0.6250000000,        0.2026367188,       -0.2509765625,        7.3699951172,       -5.2337646484,       30.6091308594
1488506508.7296528816,1488506508.7321209908,        0.6328125000,        0.1840820312,       -0.2412109375,        7.3699951172,       -5.2337646484,       30.6091308594
1488506508.7324070930,1488506508.7348289490,        0.6328125000,        0.1840820312,       -0.2412109375,        6.4697265625,       -3.3111572266,       29.4342041016
1488506508.7351160049,1488506508.7375330925,        0.6328125000,        0.1840820312,       -0.2412109375,        6.4697265625,       -3.3111572266,       29.4342041016
1488506508.7378189564,1488506508.7402360439,        0.6328125000,        0.1840820312,       -0.2412109375,        5.1269531250,       -1.8005371094,       28.2287597656
1488506508.7405209541,1488506508.7428920269,        0.6259765625,        0.1875000000,       -0.2363281250,        5.1269531250,       -1.8005371094,       28.2287597656
1488506508.7431690693,1488506508.7454609871,        0.6259765625,        0.1875000000,       -0.2363281250,        4.3334960938,       -0.7934570312,       27.2979736328
1488506508.7457389832,1488506508.7480309010,        0.6259765625,        0.1875000000,       -0.2363281250,        4.3334960938,       -0.7934570312,       27.2979736328
1488506508.7483069897,1488506508.7506000996,        0.6259765625,        0.1875000000,       -0.2124023438,        4.7607421875,        0.1983642578,       26.7486572266
1488506508.7508769035,1488506508.7532200813,        0.5732421875,        0.1826171875,       -0.2124023438,        4.7607421875,        0.1983642578,       26.7486572266
1488506508.7534980774,1488506508.7557909489,        0.5732421875,        0.1826171875,       -0.2124023438,        5.3100585938,        1.1596679688,       26.3366699219
1488506508.7560689449,1488506508.7583620548,        0.5732421875,        0.1826171875,       -0.2124023438,        5.3100585938,        1.1596679688,       26.3366699219
1488506508.7586390972,1488506508.7609279156,        0.5732421875,        0.1826171875,       -0.2114257812,        5.3405761719,        2.0141601562,       26.5960693359
1488506508.7612030506,1488506508.7635970116,        0.5400390625,        0.2260742188,       -0.2114257812,        5.3405761719,        2.0141601562,       26.5960693359
1488506508.7639770508,1488506508.7662711143,        0.5400390625,        0.2260742188,       -0.2114257812,        5.3405761719,        2.0446777344,       26.5808105469
1488506508.7665479183,1488506508.7688488960,        0.5400390625,        0.2260742188,       -0.2114257812,        4.3640136719,        2.0446777344,       26.5808105469
1488506508.7691240311,1488506508.7714180946,        0.5400390625,        0.2255859375,       -0.2070312500,        4.3640136719,        2.0446777344,       26.6571044922
1488506508.7718219757,1488506508.7742409706,        0.5258789062,        0.2255859375,       -0.2070312500,        2.3498535156,        2.3956298828,       26.6571044922
1488506508.7745261192,1488506508.7769451141,        0.5258789062,        0.2255859375,       -0.2070312500,        2.3498535156,        3.5400390625,       26.5502929688
1488506508.7772300243,1488506508.7796471119,        0.5258789062,        0.2255859375,       -0.2070312500,        0.0000000000,        3.5400390625,       26.5502929688
1488506508.7799310684,1488506508.7823588848,        0.5107421875,        0.2294921875,       -0.2011718750,        0.0000000000,        7.4462890625,       27.4353027344
1488506508.7826430798,1488506508.7850630283,        0.5107421875,        0.2294921875,       -0.2011718750,       -3.0059814453,        4.5318603516,       27.4353027344
1488506508.7853479385,1488506508.7877631187,        0.5107421875,        0.2294921875,       -0.2011718750,       -3.0059814453,        4.5318603516,       28.2440185547
1488506508.7880489826,1488506508.7904059887,        0.5107421875,        0.2294921875,       -0.2011718750,       -7.0037841797,        4.3640136719,       28.2440185547
1488506508.7906849384,1488506508.7930419445,        0.5439453125,        0.2192382812,       -0.1972656250,       -7.0037841797,        4.3640136719,       28.9306640625
1488506508.7933208942,1488506508.7956159115,        0.5439453125,        0.2192382812,       -0.1972656250,      -10.4675292969,        4.5013427734,       28.9306640625
1488506508.7958979607,1488506508.7984800339,        0.5439453125,        0.2192382812,       -0.1972656250,      -10.4675292969,        4.5013427734,       29.5257568359
1488506508.7987630367,1488506508.8010489941,        0.5439453125,        0.2192382812,       -0.2094726562,      -10.3302001953,        4.3029785156,       29.5257568359
1488506508.8013300896,1488506508.8036830425,        0.6113281250,        0.1484375000,       -0.2094726562,      -10.3302001953,        4.3029785156,       29.4647216797
1488506508.8039638996,1488506508.8062510490,        0.6113281250,        0.1484375000,       -0.2094726562,       -6.9885253906,        4.1656494141,       29.4647216797
1488506508.8065290451,1488506508.8088159561,        0.6113281250,        0.1484375000,       -0.2094726562,       -6.9885253906,        4.1656494141,       29.4647216797
1488506508.8090929985,1488506508.8113870621,        0.6113281250,        0.1484375000,       -0.2119140625,       -4.1961669922,        4.0283203125,       28.5797119141
1488506508.8117098808,1488506508.8139970303,        0.6000976562,        0.1591796875,       -0.2119140625,       -4.1961669922,        4.0283203125,       28.5797119141
1488506508.8142750263,1488506508.8165569305,        0.6000976562,        0.1591796875,       -0.2119140625,       -3.9062500000,        3.4027099609,       27.9541015625
1488506508.8168330193,1488506508.8191239834,        0.6000976562,        0.1591796875,       -0.2119140625,       -3.9062500000,        3.4027099609,       27.9541015625
1488506508.8194010258,1488506508.8217349052,        0.6000976562,        0.1958007812,       -0.2270507812,       -4.5166015625,        2.9449462891,       27.9998779297
1488506508.8220119476,1488506508.8243110180,        0.5991210938,        0.1958007812,       -0.2270507812,       -4.5166015625,        2.9449462891,       27.9998779297
1488506508.8245880604,1488506508.8268740177,        0.5991210938,        0.1958007812,       -0.2270507812,       -6.1187744141,        2.6702880859,       28.1982421875
1488506508.8271529675,1488506508.8294429779,        0.5991210938,        0.1958007812,       -0.2270507812,       -6.1187744141,        2.6702880859,       28.1982421875
1488506508.8298280239,1488506508.8321309090,        0.5991210938,        0.1850585938,       -0.2202148438,       -8.6975097656,        2.3498535156,       27.9693603516
1488506508.8324110508,1488506508.8346979618,        0.5966796875,        0.1850585938,       -0.2202148438,       -8.6975097656,        2.3498535156,       27.9693603516
1488506508.8349750042,1488506508.8372690678,        0.5966796875,        0.1850585938,       -0.2202148438,      -12.0239257812,        2.1667480469,       27.7252197266
1488506508.8375489712,1488506508.8398439884,        0.5966796875,        0.1850585938,       -0.2202148438,      -12.0239257812,        2.1667480469,       27.7252197266
1488506508.8401260376,1488506508.8425939083,        0.5654296875,        0.1538085938,       -0.2138671875,      -12.0239257812,        1.6784667969,       27.4047851562
1488506508.8428750038,1488506508.8451740742,        0.5654296875,        0.1538085938,       -0.2138671875,      -14.3890380859,        1.6784667969,       27.4047851562
1488506508.8454539776,1488506508.8477420807,        0.5654296875,        0.1538085938,       -0.2138671875,      -14.3890380859,        1.3732910156,       28.2897949219
1488506508.8480219841,1488506508.8503139019,        0.5654296875,        0.1538085938,       -0.2138671875,      -11.8255615234,        1.3732910156,       28.2897949219
1488506508.8505949974,1488506508.8530249596,        0.5693359375,        0.1450195312,       -0.2197265625,      -11.8255615234,        1.3732910156,       28.4271240234
1488506508.8533139229,1488506508.8556990623,        0.5693359375,        0.1450195312,       -0.2197265625,       -8.4228515625,        0.7019042969,       28.4271240234
1488506508.8559820652,1488506508.8583641052,        0.5693359375,        0.1450195312,       -0.2197265625,       -8.4228515625,        0.7019042969,       27.0538330078
1488506508.8586499691,1488506508.8610351086,        0.5693359375,        0.1450195312,       -0.2197265625,       -7.3547363281,        0.5645751953,       27.0538330078
1488506508.8613190651,1488506508.8637580872,        0.5532226562,        0.1694335938,       -0.1889648438,       -7.3547363281,        0.5645751953,       25.8178710938
1488506508.8640429974,1488506508.8664729595,        0.5532226562,        0.1694335938,       -0.1889648438,       -8.4838867188,        0.5035400391,       25.8178710938
1488506508.8667581081,1488506508.8691709042,        0.5532226562,        0.1694335938,       -0.1889648438,       -8.4838867188,        0.5035400391,       25.3448486328
1488506508.8694570065,1488506508.8719270229,        0.5532226562,        0.1694335938,       -0.1860351562,       -9.9334716797,        0.4119873047,       25.3448486328
1488506508.8722128868,1488506508.8746340275,        0.5483398438,        0.1635742188,       -0.1860351562,       -9.9334716797,        0.4119873047,       25.1159667969
1488506508.8749189377,1488506508.8773388863,        0.5483398438,        0.1635742188,       -0.1860351562,      -12.0391845703,        0.1983642578,       25.1159667969
1488506508.8776280880,1488506508.8800449371,        0.5483398438,        0.1635742188,       -0.1860351562,      -12.0391845703,        0.1983642578,       24.1699218750
1488506508.8803329468,1488506508.8827660084,        0.5483398438,        0.1245117188,       -0.2124023438,      -14.2059326172,        0.4272460938,       24.1699218750
1488506508.8830559254,1488506508.8854689598,        0.5532226562,        0.1245117188,       -0.2124023438,      -14.2059326172,        0.4272460938,       22.5524902344
1488506508.8857591152,1488506508.8881781101,        0.5532226562,        0.1245117188,       -0.2124023438,      -16.2658691406,        0.5645751953,       22.5524902344
1488506508.8884670734,1488506508.8908839226,        0.5532226562,        0.1245117188,       -0.2124023438,      -16.2658691406,        0.5645751953,       21.0418701172
1488506508.8911728859,1488506508.8936069012,        0.5888671875,        0.1176757812,       -0.2475585938,      -18.6157226562,        0.6561279297,       21.0418701172
1488506508.8940060139,1488506508.8964309692,        0.5888671875,        0.1176757812,       -0.2475585938,      -18.6157226562,        0.6561279297,       19.7601318359
1488506508.8967199326,1488506508.8991360664,        0.5888671875,        0.1176757812,       -0.2475585938,      -21.6979980469,        0.2136230469,       19.7601318359
1488506508.8994250298,1488506508.9018890858,        0.5888671875,        0.1176757812,       -0.2475585938,      -21.6979980469,        0.2136230469,       18.4173583984
1488506508.9021790028,1488506508.9046061039,        0.5976562500,        0.1162109375,       -0.2563476562,      -25.3448486328,       -0.1525878906,       18.4173583984
1488506508.9048960209,1488506508.9073131084,        0.5976562500,        0.1162109375,       -0.2563476562,      -25.3448486328,       -0.1525878906,       16.9525146484
1488506508.9076030254,1488506508.9100921154,        0.5976562500,        0.1162109375,       -0.2563476562,      -28.2287597656,        0.4730224609,       16.9525146484
