time_stamp before, time_stamp after, Acceleration x, Acceleration y, Acceleration z, Gyro x, Gyro y, Gyro z
1488506002.0319049358,1488506002.0453579426,        0.6435546875,       -0.0659179688,       -0.1860351562,       22.1710205078,      -16.3269042969,      -74.6002197266
1488506002.0456740856,1488506002.0488939285,        0.6435546875,       -0.0659179688,       -0.1860351562,       20.2331542969,      -16.3269042969,      -74.6002197266
1488506002.0491919518,1488506002.0516059399,        0.6435546875,       -0.0068359375,       -0.1225585938,       16.1132812500,      -15.1062011719,      -74.6459960938
1488506002.0519630909,1488506002.0542519093,        0.6914062500,       -0.0068359375,       -0.1225585938,       16.1132812500,      -15.1062011719,      -74.6459960938
1488506002.0545361042,1488506002.0568299294,        0.6914062500,       -0.0068359375,       -0.1225585938,       13.4887695312,      -14.1754150391,      -72.0977783203
1488506002.0571138859,1488506002.0594029427,        0.6914062500,       -0.0068359375,       -0.1225585938,       13.4887695312,      -14.1754150391,      -72.0977783203
1488506002.0596890450,1488506002.0620799065,        0.6386718750,       -0.0263671875,       -0.0961914062,       15.5792236328,      -15.4571533203,      -69.7937011719
1488506002.0623641014,1488506002.0646469593,        0.6386718750,       -0.0263671875,       -0.0961914062,       15.5792236328,      -15.4571533203,      -69.7937011719
1488506002.0649290085,1488506002.0672140121,        0.6386718750,       -0.0263671875,       -0.0961914062,       17.8375244141,      -17.1966552734,      -69.7021484375
1488506002.0674970150,1488506002.0697870255,        0.6386718750,       -0.0263671875,       -0.0961914062,       17.8375244141,      -17.1966552734,      -69.7021484375
1488506002.0700700283,1488506002.0723650455,        0.6347656250,       -0.0288085938,       -0.1254882812,       19.1497802734,      -17.9595947266,      -69.2291259766
1488506002.0726480484,1488506002.0749309063,        0.6347656250,       -0.0288085938,       -0.1254882812,       19.1497802734,      -17.9595947266,      -69.2291259766
1488506002.0752139091,1488506002.0774989128,        0.6347656250,       -0.0288085938,       -0.1254882812,       19.5922851562,      -17.2882080078,      -67.9168701172
1488506002.0777819157,1488506002.0800681114,        0.6347656250,       -0.0288085938,       -0.1254882812,       19.5922851562,      -17.2882080078,      -67.9168701172
1488506002.0803499222,1488506002.0828080177,        0.6308593750,        0.0083007812,       -0.1479492188,       15.6860351562,      -16.1895751953,      -65.5212402344
1488506002.0830929279,1488506002.0853860378,        0.6308593750,        0.0083007812,       -0.1479492188,       18.9819335938,      -16.1895751953,      -65.5212402344
1488506002.0856719017,1488506002.0879631042,        0.6308593750,        0.0083007812,       -0.1479492188,       18.9819335938,      -16.1895751953,      -63.7359619141
1488506002.0882480145,1488506002.0905370712,        0.6308593750,        0.0083007812,       -0.1479492188,       17.3492431641,      -15.6555175781,      -63.7359619141
1488506002.0908229351,1488506002.0931999683,        0.6352539062,        0.0063476562,       -0.1508789062,       17.3492431641,      -15.6555175781,      -62.3779296875
1488506002.0934870243,1488506002.0957729816,        0.6352539062,        0.0063476562,       -0.1508789062,       15.1519775391,      -15.1519775391,      -62.3779296875
1488506002.0960600376,1488506002.0983500481,        0.6352539062,        0.0063476562,       -0.1508789062,       15.1519775391,      -15.1519775391,      -62.3779296875
1488506002.0986359119,1488506002.1009249687,        0.6352539062,        0.0063476562,       -0.1508789062,       15.3350830078,      -16.2353515625,      -60.6384277344
1488506002.1012101173,1488506002.1043241024,        0.6201171875,        0.0102539062,       -0.1953125000,       15.3350830078,      -16.2353515625,      -59.5397949219
1488506002.1046290398,1488506002.1080000401,        0.6201171875,        0.0102539062,       -0.1953125000,       17.7612304688,      -17.9290771484,      -59.5397949219
1488506002.1084780693,1488506002.1120719910,        0.6201171875,        0.0102539062,       -0.1953125000,       20.5230712891,      -18.9056396484,      -58.6547851562
1488506002.1123819351,1488506002.1146879196,        0.6123046875,        0.0605468750,       -0.2460937500,       20.5230712891,      -18.9056396484,      -54.7485351562
1488506002.1149730682,1488506002.1172709465,        0.6123046875,        0.0605468750,       -0.2460937500,       20.4315185547,      -18.3410644531,      -57.8155517578
1488506002.1175560951,1488506002.1198580265,        0.6123046875,        0.0605468750,       -0.2460937500,       20.4315185547,      -18.3410644531,      -57.8155517578
1488506002.1201410294,1488506002.1226530075,        0.7373046875,        0.1655273438,       -0.2788085938,       16.8457031250,      -18.6614990234,      -57.0831298828
1488506002.1229460239,1488506002.1253259182,        0.6469726562,        0.1655273438,       -0.2788085938,       16.8457031250,      -18.6614990234,      -57.0831298828
1488506002.1256148815,1488506002.1283779144,        0.6469726562,        0.1655273438,       -0.2788085938,       12.4664306641,      -18.5089111328,      -55.5725097656
1488506002.1286649704,1488506002.1309599876,        0.6469726562,        0.1655273438,       -0.2788085938,       12.4664306641,      -18.5089111328,      -51.6662597656
1488506002.1312439442,1488506002.1335461140,        0.6782226562,        0.1679687500,       -0.2216796875,        7.3699951172,      -17.2271728516,      -53.4820556641
1488506002.1338279247,1488506002.1361179352,        0.6782226562,        0.1679687500,       -0.2216796875,        7.3699951172,      -17.2271728516,      -53.4820556641
1488506002.1363990307,1488506002.1386849880,        0.6782226562,        0.1679687500,       -0.2216796875,        2.7770996094,      -15.3503417969,      -49.1638183594
1488506002.1389660835,1488506002.1412620544,        0.6782226562,        0.1679687500,       -0.2216796875,        2.7770996094,      -15.3503417969,      -49.1638183594
1488506002.1415410042,1488506002.1438419819,        0.6372070312,        0.0361328125,       -0.1713867188,        0.3204345703,      -14.6179199219,      -44.7998046875
1488506002.1441240311,1488506002.1464099884,        0.6372070312,        0.0361328125,       -0.1713867188,        0.3204345703,      -14.6179199219,      -44.7998046875
1488506002.1466920376,1488506002.1489849091,        0.6372070312,        0.0361328125,       -0.1713867188,        3.1890869141,      -16.4489746094,      -42.8924560547
1488506002.1492679119,1488506002.1515529156,        0.6372070312,        0.0361328125,       -0.1713867188,        3.1890869141,      -16.4489746094,      -42.8924560547
1488506002.1518340111,1488506002.1541249752,        0.6010742188,        0.0292968750,       -0.1699218750,        6.1492919922,      -18.5852050781,      -42.1752929688
1488506002.1544060707,1488506002.1566920280,        0.6010742188,        0.0292968750,       -0.1699218750,        6.1492919922,      -18.5852050781,      -42.1752929688
1488506002.1569740772,1488506002.1592550278,        0.6010742188,        0.0292968750,       -0.1699218750,        4.3640136719,      -18.4936523438,      -39.2303466797
1488506002.1595380306,1488506002.1618309021,        0.6010742188,        0.0292968750,       -0.1699218750,        4.3640136719,      -18.4936523438,      -39.2303466797
1488506002.1621129513,1488506002.1644060612,        0.6479492188,        0.0883789062,       -0.1596679688,       -3.4484863281,      -17.6696777344,      -36.0412597656
1488506002.1646869183,1488506002.1669790745,        0.6479492188,        0.0883789062,       -0.1596679688,       -0.2288818359,      -17.6696777344,      -36.0412597656
1488506002.1672599316,1488506002.1695570946,        0.6479492188,        0.0883789062,       -0.1596679688,       -0.2288818359,      -17.6696777344,      -32.1655273438
1488506002.1698379517,1488506002.1722500324,        0.6479492188,        0.0883789062,       -0.1372070312,       -3.4637451172,      -16.9677734375,      -32.1655273438
1488506002.1726849079,1488506002.1749849319,        0.6337890625,        0.0737304688,       -0.1372070312,       -3.4637451172,      -16.9677734375,      -29.6783447266
1488506002.1752669811,1488506002.1775569916,        0.6337890625,        0.0737304688,       -0.1372070312,       -5.9204101562,      -18.7530517578,      -29.6783447266
1488506002.1778380871,1488506002.1801259518,        0.6337890625,        0.0737304688,       -0.1372070312,       -5.9204101562,      -18.7530517578,      -27.0233154297
1488506002.1804080009,1488506002.1828420162,        0.6337890625,        0.0395507812,       -0.1538085938,       -8.1939697266,      -18.6157226562,      -27.0233154297
1488506002.1831269264,1488506002.1854169369,        0.6406250000,        0.0395507812,       -0.1538085938,       -8.1939697266,      -18.6157226562,      -27.0233154297
1488506002.1856999397,1488506002.1879930496,        0.6406250000,        0.0395507812,       -0.1538085938,      -10.0860595703,      -18.2189941406,      -24.1241455078
1488506002.1882779598,1488506002.1905729771,        0.6406250000,        0.0395507812,       -0.1538085938,      -10.0860595703,      -18.2189941406,      -24.1241455078
1488506002.1908569336,1488506002.1932420731,        0.6406250000,        0.0180664062,       -0.1733398438,      -11.9628906250,      -18.2647705078,      -21.8963623047
1488506002.1935338974,1488506002.1959559917,        0.6459960938,        0.0180664062,       -0.1733398438,      -11.9628906250,      -18.2647705078,      -21.8963623047
1488506002.1962490082,1488506002.1986639500,        0.6459960938,        0.0180664062,       -0.1733398438,      -14.8162841797,      -18.1579589844,      -20.1416015625
1488506002.1989560127,1488506002.2013700008,        0.6459960938,        0.0180664062,       -0.1733398438,      -14.8162841797,      -18.1579589844,      -20.1416015625
1488506002.2017030716,1488506002.2042241096,        0.6284179688,        0.0053710938,       -0.1538085938,      -16.0827636719,      -18.2647705078,      -18.4631347656
1488506002.2045109272,1488506002.2068068981,        0.6284179688,        0.0053710938,       -0.1538085938,      -16.0827636719,      -18.2647705078,      -18.4631347656
1488506002.2070920467,1488506002.2093870640,        0.6284179688,        0.0053710938,       -0.1538085938,      -15.1519775391,      -19.2413330078,      -17.7307128906
1488506002.2096738815,1488506002.2120640278,        0.6284179688,        0.0053710938,       -0.1538085938,      -15.1519775391,      -19.2413330078,      -17.7307128906
1488506002.2123570442,1488506002.2147450447,        0.6176757812,       -0.0039062500,       -0.1699218750,      -13.7786865234,      -19.8364257812,      -17.1203613281
1488506002.2150359154,1488506002.2175219059,        0.6176757812,       -0.0039062500,       -0.1699218750,      -13.7786865234,      -19.8364257812,      -17.1203613281
1488506002.2178289890,1488506002.2202410698,        0.6176757812,       -0.0039062500,       -0.1699218750,      -12.7563476562,      -19.8516845703,      -16.5863037109
1488506002.2205379009,1488506002.2229659557,        0.6176757812,       -0.0039062500,       -0.1953125000,      -12.7563476562,      -19.8516845703,      -16.5863037109
1488506002.2232589722,1488506002.2260088921,        0.6093750000,       -0.0117187500,       -0.1953125000,      -11.7034912109,      -19.8364257812,      -15.8843994141
1488506002.2263031006,1488506002.2287209034,        0.6093750000,       -0.0117187500,       -0.1953125000,      -11.7034912109,      -19.8364257812,      -15.8843994141
1488506002.2290129662,1488506002.2314279079,        0.6093750000,       -0.0117187500,       -0.1953125000,      -12.4816894531,      -19.5159912109,      -15.2893066406
1488506002.2317309380,1488506002.2340199947,        0.5937500000,       -0.0263671875,       -0.2065429688,      -12.4816894531,      -19.5159912109,      -15.2893066406
1488506002.2343060970,1488506002.2366011143,        0.5937500000,       -0.0263671875,       -0.2065429688,      -12.4816894531,      -19.3481445312,      -14.8925781250
1488506002.2369999886,1488506002.2392959595,        0.5937500000,       -0.0263671875,       -0.2065429688,      -12.4816894531,      -19.3481445312,      -14.8925781250
1488506002.2395789623,1488506002.2419459820,        0.5937500000,       -0.0263671875,       -0.2065429688,      -11.9781494141,      -19.1192626953,      -14.4500732422
1488506002.2422389984,1488506002.2446539402,        0.5932617188,       -0.0263671875,       -0.2202148438,      -11.9781494141,      -19.1192626953,      -14.4500732422
1488506002.2449460030,1488506002.2473640442,        0.5932617188,       -0.0263671875,       -0.2202148438,      -11.5203857422,      -19.3328857422,      -14.6636962891
1488506002.2476549149,1488506002.2500720024,        0.5932617188,       -0.0263671875,       -0.2202148438,      -11.5203857422,      -19.3328857422,      -14.6636962891
1488506002.2503659725,1488506002.2527420521,        0.5932617188,       -0.0263671875,       -0.2202148438,      -12.9547119141,      -18.9514160156,      -13.6566162109
1488506002.2530269623,1488506002.2553210258,        0.5922851562,        0.0014648438,       -0.2387695312,      -12.9547119141,      -18.9514160156,      -13.6566162109
1488506002.2556068897,1488506002.2578969002,        0.5922851562,        0.0014648438,       -0.2387695312,      -18.0206298828,      -17.0593261719,      -12.1459960938
1488506002.2581830025,1488506002.2604770660,        0.5922851562,        0.0014648438,       -0.2387695312,      -18.0206298828,      -17.0593261719,      -12.1459960938
1488506002.2607619762,1488506002.2631859779,        0.5922851562,        0.0014648438,       -0.2382812500,      -24.6429443359,      -15.3503417969,      -11.0168457031
1488506002.2634708881,1488506002.2657639980,        0.6210937500,       -0.0268554688,       -0.2382812500,      -24.6429443359,      -15.3503417969,      -11.0168457031
1488506002.2660479546,1488506002.2683451176,        0.6210937500,       -0.0268554688,       -0.2382812500,      -28.3966064453,      -14.1601562500,      -10.2539062500
1488506002.2686300278,1488506002.2709259987,        0.6210937500,       -0.0268554688,       -0.2382812500,      -28.3966064453,      -14.1601562500,      -10.2539062500
1488506002.2712109089,1488506002.2737450600,        0.6210937500,       -0.0268554688,       -0.2163085938,      -29.1442871094,      -13.6413574219,      -10.2386474609
1488506002.2740399837,1488506002.2764649391,        0.6025390625,       -0.0307617188,       -0.2163085938,      -29.1442871094,      -13.6413574219,      -10.2386474609
1488506002.2767570019,1488506002.2791779041,        0.6025390625,       -0.0307617188,       -0.2163085938,      -29.1442871094,      -13.3056640625,      -11.1083984375
1488506002.2794699669,1488506002.2819159031,        0.6025390625,       -0.0307617188,       -0.2163085938,      -29.1442871094,      -13.3056640625,      -11.1083984375
1488506002.2822020054,1488506002.2844929695,        0.6025390625,       -0.0034179688,       -0.2172851562,      -28.6865234375,      -13.4887695312,      -11.6271972656
1488506002.2847790718,1488506002.2870678902,        0.6025390625,       -0.0034179688,       -0.2172851562,      -28.6865234375,      -13.4887695312,      -11.6271972656
1488506002.2873539925,1488506002.2896440029,        0.6025390625,       -0.0034179688,       -0.2172851562,      -28.6865234375,      -13.5498046875,      -11.8560791016
1488506002.2899301052,1488506002.2923030853,        0.6025390625,       -0.0034179688,       -0.2172851562,      -28.2897949219,      -13.5498046875,      -11.8560791016
1488506002.2925961018,1488506002.2950088978,        0.5917968750,        0.0078125000,       -0.2172851562,      -28.2897949219,      -12.8479003906,      -13.2904052734
1488506002.2953019142,1488506002.2977240086,        0.5917968750,        0.0078125000,       -0.2172851562,      -28.7780761719,      -12.8479003906,      -13.2904052734
1488506002.2980170250,1488506002.3004341125,        0.5917968750,        0.0078125000,       -0.2172851562,      -28.7780761719,      -12.8021240234,      -13.3972167969
1488506002.3008348942,1488506002.3033030033,        0.5917968750,        0.0078125000,       -0.2172851562,      -29.4494628906,      -12.8021240234,      -13.3972167969
1488506002.3035960197,1488506002.3060119152,        0.6064453125,       -0.0151367188,       -0.2153320312,      -29.4494628906,      -12.7868652344,      -13.6260986328
1488506002.3063039780,1488506002.3087220192,        0.6064453125,       -0.0151367188,       -0.2153320312,      -29.9072265625,      -12.7868652344,      -13.6260986328
1488506002.3090140820,1488506002.3114318848,        0.6064453125,       -0.0151367188,       -0.2153320312,      -29.9072265625,      -12.2070312500,      -14.9536132812
1488506002.3117339611,1488506002.3141539097,        0.6064453125,       -0.0068359375,       -0.2138671875,      -30.9448242188,      -12.2070312500,      -14.9536132812
1488506002.3144469261,1488506002.3168640137,        0.5932617188,       -0.0068359375,       -0.2138671875,      -30.9448242188,      -11.9171142578,      -15.7165527344
1488506002.3171570301,1488506002.3195800781,        0.5932617188,       -0.0068359375,       -0.2138671875,      -32.0739746094,      -11.9171142578,      -15.7165527344
1488506002.3198730946,1488506002.3222749233,        0.5932617188,       -0.0068359375,       -0.2138671875,      -32.0739746094,      -11.7645263672,      -16.1895751953
1488506002.3225600719,1488506002.3248510361,        0.5996093750,       -0.0034179688,       -0.2158203125,      -31.9061279297,      -11.7645263672,      -16.1895751953
1488506002.3251359463,1488506002.3274281025,        0.5996093750,       -0.0034179688,       -0.2158203125,      -31.9061279297,      -11.7645263672,      -16.2811279297
1488506002.3279430866,1488506002.3302369118,        0.5996093750,       -0.0034179688,       -0.2158203125,      -29.8767089844,      -11.9781494141,      -16.2811279297
1488506002.3305239677,1488506002.3328609467,        0.5996093750,       -0.0034179688,       -0.2158203125,      -29.8767089844,      -11.9781494141,      -16.8457031250
1488506002.3331470490,1488506002.3354370594,        0.6010742188,        0.0068359375,       -0.2114257812,      -26.9927978516,      -12.1307373047,      -16.8457031250
1488506002.3357250690,1488506002.3381259441,        0.6010742188,        0.0068359375,       -0.2114257812,      -26.9927978516,      -12.1307373047,      -17.2119140625
1488506002.3384320736,1488506002.3407359123,        0.6010742188,        0.0068359375,       -0.2114257812,      -24.8260498047,      -12.1154785156,      -17.2119140625
1488506002.3410210609,1488506002.3433868885,        0.6010742188,        0.0068359375,       -0.2114257812,      -24.8260498047,      -12.1154785156,      -17.2119140625
1488506002.3436799049,1488506002.3460690975,        0.5947265625,        0.0014648438,       -0.2192382812,      -23.7731933594,      -11.4898681641,      -18.2189941406
1488506002.3463621140,1488506002.3487849236,        0.5947265625,        0.0014648438,       -0.2192382812,      -23.7731933594,      -11.4898681641,      -18.2189941406
1488506002.3490779400,1488506002.3514928818,        0.5947265625,        0.0014648438,       -0.2192382812,      -23.5748291016,      -11.4288330078,      -18.8140869141
1488506002.3517971039,1488506002.3542170525,        0.5947265625,        0.0014648438,       -0.2280273438,      -23.5748291016,      -11.4288330078,      -18.8140869141
1488506002.3545091152,1488506002.3569240570,        0.6098632812,       -0.0439453125,       -0.2280273438,      -22.7508544922,      -11.3372802734,      -19.0429687500
1488506002.3572170734,1488506002.3596420288,        0.6098632812,       -0.0439453125,       -0.2280273438,      -22.7508544922,      -11.3372802734,      -22.9492187500
1488506002.3599328995,1488506002.3623359203,        0.6098632812,       -0.0439453125,       -0.2280273438,      -21.1029052734,      -11.1999511719,      -19.8364257812
1488506002.3626210690,1488506002.3649098873,        0.6098632812,       -0.0034179688,       -0.2431640625,      -21.1029052734,      -11.1999511719,      -19.8364257812
1488506002.3653039932,1488506002.3676049709,        0.5805664062,       -0.0034179688,       -0.2431640625,      -20.6146240234,      -11.3220214844,      -21.1944580078
1488506002.3678920269,1488506002.3701820374,        0.5805664062,       -0.0034179688,       -0.2431640625,      -20.6146240234,      -11.3220214844,      -21.1944580078
1488506002.3704669476,1488506002.3728680611,        0.5805664062,       -0.0034179688,       -0.2431640625,      -21.4385986328,      -11.4593505859,      -21.9268798828
1488506002.3731520176,1488506002.3754479885,        0.5756835938,        0.0327148438,       -0.2373046875,      -21.4385986328,      -11.4593505859,      -21.9268798828
1488506002.3757328987,1488506002.3780250549,        0.5756835938,        0.0327148438,       -0.2373046875,      -23.5443115234,      -10.9100341797,      -22.4304199219
1488506002.3783099651,1488506002.3806080818,        0.5756835938,        0.0327148438,       -0.2373046875,      -23.5443115234,      -10.9100341797,      -22.4304199219
1488506002.3808920383,1488506002.3833420277,        0.5756835938,        0.0327148438,       -0.2373046875,      -24.5819091797,      -10.0250244141,      -22.5219726562
1488506002.3836259842,1488506002.3859200478,        0.6054687500,        0.0107421875,       -0.2202148438,      -24.5819091797,      -10.0250244141,      -22.5219726562
1488506002.3862040043,1488506002.3885059357,        0.6054687500,        0.0107421875,       -0.2202148438,      -23.7579345703,       -9.5062255859,      -22.1252441406
1488506002.3887889385,1488506002.3910830021,        0.6054687500,        0.0107421875,       -0.2202148438,      -23.7579345703,       -9.5062255859,      -22.1252441406
1488506002.3913650513,1488506002.3937780857,        0.6054687500,        0.0107421875,       -0.2202148438,      -21.9421386719,       -9.0789794922,      -21.5911865234
1488506002.3940689564,1488506002.3964900970,        0.6069335938,        0.0253906250,       -0.2148437500,      -21.9421386719,       -9.0789794922,      -21.5911865234
1488506002.3967819214,1488506002.3991940022,        0.6069335938,        0.0253906250,       -0.2148437500,      -20.2789306641,       -8.0566406250,      -22.2167968750
1488506002.3994839191,1488506002.4019110203,        0.6069335938,        0.0253906250,       -0.2148437500,      -20.2789306641,       -8.0566406250,      -22.2167968750
1488506002.4021999836,1488506002.4046170712,        0.6069335938,        0.0253906250,       -0.2114257812,      -19.5007324219,       -7.3852539062,      -21.8505859375
1488506002.4049050808,1488506002.4073200226,        0.6093750000,        0.0371093750,       -0.2114257812,      -19.5007324219,       -7.3852539062,      -21.8505859375
1488506002.4076108932,1488506002.4100968838,        0.6093750000,        0.0371093750,       -0.2114257812,      -19.3328857422,       -7.1258544922,      -21.8658447266
1488506002.4103798866,1488506002.4128530025,        0.6093750000,        0.0371093750,       -0.2114257812,      -19.3328857422,       -7.1258544922,      -21.8658447266
1488506002.4131429195,1488506002.4155230522,        0.6035156250,        0.0361328125,       -0.2182617188,      -19.5312500000,       -6.7596435547,      -22.6593017578
1488506002.4158101082,1488506002.4182829857,        0.6035156250,        0.0361328125,       -0.2182617188,      -19.5312500000,       -6.7596435547,      -22.6593017578
1488506002.4185709953,1488506002.4209530354,        0.6035156250,        0.0361328125,       -0.2182617188,      -18.5852050781,       -6.4392089844,      -23.1933593750
1488506002.4226400852,1488506002.4257209301,        0.6035156250,        0.0361328125,       -0.2231445312,      -18.5852050781,       -6.0119628906,      -23.8494873047
1488506002.4260079861,1488506002.4282929897,        0.5952148438,        0.0288085938,       -0.2231445312,      -18.2342529297,       -6.0119628906,      -23.8494873047
1488506002.4285740852,1488506002.4308669567,        0.5952148438,        0.0288085938,       -0.2231445312,      -18.2342529297,       -6.0119628906,      -23.4985351562
1488506002.4312579632,1488506002.4336240292,        0.5952148438,        0.0288085938,       -0.2231445312,      -17.3339843750,       -5.8746337891,      -23.4985351562
1488506002.4339060783,1488506002.4361979961,        0.5888671875,        0.0346679688,       -0.2163085938,      -17.3339843750,       -5.8746337891,      -24.7650146484
1488506002.4364790916,1488506002.4387719631,        0.5888671875,        0.0346679688,       -0.2163085938,      -17.3034667969,       -5.5236816406,      -24.7650146484
1488506002.4390521049,1488506002.4413390160,        0.5888671875,        0.0346679688,       -0.2163085938,      -17.3034667969,       -5.5236816406,      -24.7650146484
1488506002.4416210651,1488506002.4439220428,        0.5888671875,        0.0346679688,       -0.2163085938,      -17.4713134766,       -5.0659179688,      -24.8107910156
1488506002.4442050457,1488506002.4464900494,        0.6108398438,        0.0356445312,       -0.2319335938,      -17.4713134766,       -5.0659179688,      -24.8107910156
1488506002.4467730522,1488506002.4490590096,        0.6108398438,        0.0356445312,       -0.2319335938,      -16.9830322266,       -4.7607421875,      -24.4293212891
1488506002.4493429661,1488506002.4516339302,        0.6108398438,        0.0356445312,       -0.2319335938,      -16.9830322266,       -4.7607421875,      -24.4293212891
1488506002.4519739151,1488506002.4542679787,        0.6108398438,        0.0356445312,       -0.2319335938,      -16.7846679688,       -4.2114257812,      -24.8870849609
1488506002.4545490742,1488506002.4568359852,        0.5908203125,        0.0375976562,       -0.2280273438,      -16.7846679688,       -4.2114257812,      -24.8870849609
1488506002.4571158886,1488506002.4594140053,        0.5908203125,        0.0375976562,       -0.2280273438,      -16.0217285156,       -4.2419433594,      -24.7802734375
1488506002.4596960545,1488506002.4619901180,        0.5908203125,        0.0375976562,       -0.2280273438,      -16.0217285156,       -4.2419433594,      -24.7802734375
1488506002.4622719288,1488506002.4645709991,        0.5908203125,        0.0375976562,       -0.2280273438,      -15.8233642578,       -4.1351318359,      -24.8260498047
1488506002.4648520947,1488506002.4671421051,        0.5937500000,        0.0571289062,       -0.2270507812,      -15.8233642578,       -4.1351318359,      -24.8260498047
1488506002.4674229622,1488506002.4697129726,        0.5937500000,        0.0571289062,       -0.2270507812,      -15.4724121094,       -4.0893554688,      -24.5819091797
1488506002.4699950218,1488506002.4724450111,        0.5937500000,        0.0571289062,       -0.2270507812,      -15.4724121094,       -4.0893554688,      -24.5819091797
1488506002.4727289677,1488506002.4750220776,        0.5937500000,        0.0571289062,       -0.2270507812,      -16.7083740234,       -3.7384033203,      -24.8413085938
1488506002.4753029346,1488506002.4775960445,        0.5913085938,        0.0605468750,       -0.2275390625,      -16.7083740234,       -3.7384033203,      -24.8413085938
1488506002.4778780937,1488506002.4801740646,        0.5913085938,        0.0605468750,       -0.2275390625,      -16.7083740234,       -3.2501220703,      -25.4974365234
1488506002.4804561138,1488506002.4828660488,        0.5913085938,        0.0605468750,       -0.2275390625,      -17.2729492188,       -3.2501220703,      -25.4974365234
1488506002.4831480980,1488506002.4854478836,        0.5913085938,        0.0605468750,       -0.2138671875,      -17.2729492188,       -2.8839111328,      -26.0467529297
1488506002.4857299328,1488506002.4880230427,        0.5942382812,        0.0473632812,       -0.2138671875,      -17.7307128906,       -2.8839111328,      -26.0467529297
1488506002.4883050919,1488506002.4905979633,        0.5942382812,        0.0473632812,       -0.2138671875,      -17.7307128906,       -2.8839111328,      -26.0162353516
1488506002.4908790588,1488506002.4933071136,        0.5942382812,        0.0473632812,       -0.2138671875,      -17.6849365234,       -2.9144287109,      -26.0162353516
1488506002.4935970306,1488506002.4960129261,        0.5942382812,        0.0541992188,       -0.2226562500,      -17.6849365234,       -2.9144287109,      -26.4129638672
1488506002.4964089394,1488506002.4988269806,        0.5854492188,        0.0541992188,       -0.2226562500,      -18.0816650391,       -2.8839111328,      -26.4129638672
1488506002.4991168976,1488506002.5015358925,        0.5854492188,        0.0541992188,       -0.2226562500,      -18.0816650391,       -2.8839111328,      -27.3742675781
1488506002.5018351078,1488506002.5042591095,        0.5854492188,        0.0541992188,       -0.2226562500,      -18.2800292969,       -3.1127929688,      -27.3742675781
1488506002.5045471191,1488506002.5069661140,        0.5976562500,        0.0551757812,       -0.2285156250,      -18.2800292969,       -3.1127929688,      -27.6641845703
1488506002.5072538853,1488506002.5096681118,        0.5976562500,        0.0551757812,       -0.2285156250,      -18.0969238281,       -3.7231445312,      -27.6641845703
1488506002.5099570751,1488506002.5123889446,        0.5976562500,        0.0551757812,       -0.2285156250,      -18.0969238281,       -3.7231445312,      -27.1759033203
1488506002.5126779079,1488506002.5151000023,        0.5976562500,        0.0551757812,       -0.2285156250,      -17.9138183594,       -3.2196044922,      -27.1759033203
1488506002.5153889656,1488506002.5178060532,        0.6113281250,        0.0458984375,       -0.2114257812,      -17.9138183594,       -3.2196044922,      -27.5421142578
1488506002.5180950165,1488506002.5205121040,        0.6113281250,        0.0458984375,       -0.2114257812,      -16.7846679688,       -2.7313232422,      -27.5421142578
1488506002.5208010674,1488506002.5232329369,        0.6113281250,        0.0458984375,       -0.2114257812,      -16.7846679688,       -2.7313232422,      -28.4118652344
1488506002.5235230923,1488506002.5259399414,        0.6113281250,        0.0458984375,       -0.2148437500,      -15.6402587891,       -2.8991699219,      -28.4118652344
1488506002.5262310505,1488506002.5286519527,        0.6064453125,        0.0571289062,       -0.2148437500,      -15.6402587891,       -2.8991699219,      -28.6712646484
1488506002.5289409161,1488506002.5313611031,        0.6064453125,        0.0571289062,       -0.2148437500,      -14.7552490234,       -2.8228759766,      -28.6712646484
1488506002.5316519737,1488506002.5339980125,        0.6064453125,        0.0571289062,       -0.2148437500,      -14.7552490234,       -2.8228759766,      -28.8238525391
1488506002.5342791080,1488506002.5365779400,        0.6064453125,        0.0678710938,       -0.2094726562,      -14.0075683594,       -2.9449462891,      -28.8238525391
1488506002.5368590355,1488506002.5392129421,        0.5937500000,        0.0678710938,       -0.2094726562,      -14.0075683594,       -2.9449462891,      -28.8238525391
1488506002.5394968987,1488506002.5421369076,        0.5937500000,        0.0678710938,       -0.2094726562,      -13.4887695312,       -2.6855468750,      -29.4647216797
1488506002.5424311161,1488506002.5448551178,        0.5937500000,        0.0678710938,       -0.2094726562,      -13.4887695312,       -2.6855468750,      -29.3731689453
1488506002.5451469421,1488506002.5475609303,        0.6054687500,        0.0834960938,       -0.2304687500,      -12.6190185547,       -2.7160644531,      -29.3731689453
1488506002.5478529930,1488506002.5502750874,        0.6054687500,        0.0834960938,       -0.2304687500,      -12.6190185547,       -2.7160644531,      -29.3731689453
1488506002.5505640507,1488506002.5529930592,        0.6054687500,        0.0834960938,       -0.2304687500,      -12.4969482422,       -2.7618408203,      -28.7780761719
1488506002.5532820225,1488506002.5556941032,        0.6054687500,        0.0834960938,       -0.2304687500,      -12.4969482422,       -2.7618408203,      -28.7780761719
1488506002.5559840202,1488506002.5584049225,        0.5947265625,        0.0854492188,       -0.2280273438,      -12.7258300781,       -2.6550292969,      -28.8238525391
1488506002.5586938858,1488506002.5611069202,        0.5947265625,        0.0854492188,       -0.2280273438,      -12.7258300781,       -2.6550292969,      -28.8238525391
1488506002.5615029335,1488506002.5639309883,        0.5947265625,        0.0854492188,       -0.2280273438,      -13.5650634766,       -2.7465820312,      -29.0222167969
1488506002.5642209053,1488506002.5666439533,        0.5947265625,        0.0903320312,       -0.2275390625,      -13.5650634766,       -2.7465820312,      -28.7322998047
1488506002.5669341087,1488506002.5693480968,        0.6005859375,        0.0903320312,       -0.2275390625,      -14.0686035156,       -2.8228759766,      -28.7322998047
1488506002.5696370602,1488506002.5720880032,        0.6005859375,        0.0903320312,       -0.2275390625,      -14.0686035156,       -2.8228759766,      -28.7322998047
1488506002.5723741055,1488506002.5746619701,        0.6005859375,        0.0903320312,       -0.2275390625,      -14.2822265625,       -2.9907226562,      -28.7322998047
1488506002.5749449730,1488506002.5772299767,        0.5981445312,        0.0913085938,       -0.2231445312,      -14.2822265625,       -2.9907226562,      -28.7322998047
1488506002.5775120258,1488506002.5798110962,        0.5981445312,        0.0913085938,       -0.2231445312,      -14.5721435547,       -2.7923583984,      -28.7780761719
1488506002.5800919533,1488506002.5823910236,        0.5981445312,        0.0913085938,       -0.2231445312,      -14.5721435547,       -2.7923583984,      -28.7780761719
1488506002.5826740265,1488506002.5849699974,        0.5981445312,        0.0913085938,       -0.2231445312,      -14.8010253906,       -2.7465820312,      -28.5949707031
1488506002.5852530003,1488506002.5875439644,        0.6049804688,        0.0961914062,       -0.2299804688,      -14.8010253906,       -2.7465820312,      -28.5949707031
1488506002.5878260136,1488506002.5901200771,        0.6049804688,        0.0961914062,       -0.2299804688,      -15.1214599609,       -1.9989013672,      -28.8238525391
1488506002.5904018879,1488506002.5927960873,        0.6049804688,        0.0961914062,       -0.2299804688,      -15.1214599609,       -1.9989013672,      -28.8238525391
1488506002.5930790901,1488506002.5953810215,        0.6049804688,        0.0961914062,       -0.2299804688,      -15.5792236328,       -1.8920898438,      -29.3121337891
1488506002.5956640244,1488506002.5979568958,        0.6079101562,        0.0908203125,       -0.2329101562,      -15.5792236328,       -1.8920898438,      -29.3121337891
1488506002.5982410908,1488506002.6005389690,        0.6079101562,        0.0908203125,       -0.2329101562,      -15.8386230469,       -1.7395019531,      -29.4952392578
1488506002.6008229256,1488506002.6033120155,        0.6079101562,        0.0908203125,       -0.2329101562,      -15.8386230469,       -1.7395019531,      -29.4952392578
1488506002.6036019325,1488506002.6060259342,        0.6079101562,        0.0908203125,       -0.2329101562,      -15.8538818359,       -1.6937255859,      -29.5562744141
1488506002.6063148975,1488506002.6087279320,        0.5996093750,        0.0883789062,       -0.2524414062,      -15.8538818359,       -1.6937255859,      -29.5562744141
1488506002.6090180874,1488506002.6114308834,        0.5996093750,        0.0883789062,       -0.2524414062,      -15.9912109375,       -1.9989013672,      -30.3039550781
1488506002.6117300987,1488506002.6141490936,        0.5996093750,        0.0883789062,       -0.2524414062,      -15.9912109375,       -1.9989013672,      -30.3039550781
1488506002.6144390106,1488506002.6168560982,        0.5996093750,        0.0883789062,       -0.2270507812,      -16.3726806641,       -1.6479492188,      -30.8685302734
1488506002.6171441078,1488506002.6195580959,        0.6083984375,        0.0844726562,       -0.2270507812,      -16.3726806641,       -1.6479492188,      -30.8685302734
1488506002.6198470592,1488506002.6223158836,        0.6083984375,        0.0844726562,       -0.2270507812,      -15.8538818359,       -1.8920898438,      -32.1350097656
1488506002.6226050854,1488506002.6250209808,        0.6083984375,        0.0844726562,       -0.2270507812,      -15.8538818359,       -1.8920898438,      -32.1350097656
1488506002.6254160404,1488506002.6278429031,        0.6059570312,        0.0908203125,       -0.2260742188,      -15.4876708984,       -1.6174316406,      -32.7911376953
1488506002.6281340122,1488506002.6305530071,        0.6059570312,        0.0908203125,       -0.2260742188,      -15.4876708984,       -1.6174316406,      -32.7911376953
1488506002.6308419704,1488506002.6332190037,        0.6059570312,        0.0908203125,       -0.2260742188,      -15.1214599609,       -1.1138916016,      -33.5540771484
1488506002.6335020065,1488506002.6358020306,        0.6059570312,        0.0908203125,       -0.2260742188,      -15.1214599609,       -1.1138916016,      -33.5540771484
1488506002.6360840797,1488506002.6383750439,        0.6132812500,        0.0844726562,       -0.2202148438,      -13.7634277344,       -0.6866455078,      -34.1339111328
1488506002.6386570930,1488506002.6409509182,        0.6132812500,        0.0844726562,       -0.2202148438,      -13.7634277344,       -0.6866455078,      -34.1339111328
1488506002.6412351131,1488506002.6436469555,        0.6132812500,        0.0844726562,       -0.2202148438,      -13.7634277344,       -0.7171630859,      -34.8052978516
1488506002.6439371109,1488506002.6463499069,        0.6132812500,        0.0844726562,       -0.2202148438,      -13.1225585938,       -0.7171630859,      -34.8052978516
1488506002.6466391087,1488506002.6490659714,        0.6059570312,        0.1171875000,       -0.2329101562,      -13.1225585938,       -0.7171630859,      -34.4848632812
1488506002.6493558884,1488506002.6517779827,        0.6059570312,        0.1171875000,       -0.2329101562,      -13.3361816406,       -0.7171630859,      -34.4848632812
1488506002.6520659924,1488506002.6544799805,        0.6059570312,        0.1171875000,       -0.2329101562,      -13.3361816406,       -1.0375976562,      -34.1644287109
1488506002.6547710896,1488506002.6571900845,        0.6059570312,        0.1171875000,       -0.2319335938,      -14.0991210938,       -1.0375976562,      -34.1644287109
1488506002.6574800014,1488506002.6599380970,        0.5903320312,        0.1562500000,       -0.2319335938,      -14.0991210938,       -1.2054443359,      -34.3017578125
1488506002.6602289677,1488506002.6629540920,        0.5903320312,        0.1562500000,       -0.2319335938,      -14.7399902344,       -1.2054443359,      -34.3017578125
1488506002.6632440090,1488506002.6656610966,        0.5903320312,        0.1562500000,       -0.2319335938,      -14.8773193359,       -1.3885498047,      -34.3322753906
1488506002.6659500599,1488506002.6683700085,        0.5854492188,        0.1562500000,       -0.2011718750,      -14.8773193359,       -1.3885498047,      -34.3322753906
1488506002.6686589718,1488506002.6710801125,        0.5854492188,        0.1562500000,       -0.2011718750,      -15.0909423828,       -1.4038085938,      -34.0423583984
1488506002.6713678837,1488506002.6737959385,        0.5854492188,        0.1562500000,       -0.2011718750,      -15.0909423828,       -1.4038085938,      -34.0423583984
1488506002.6740870476,1488506002.6765010357,        0.5854492188,        0.1562500000,       -0.2011718750,      -14.9078369141,       -1.2207031250,      -33.6608886719
1488506002.6767909527,1488506002.6792180538,        0.5864257812,        0.1572265625,       -0.2192382812,      -14.9078369141,       -1.2207031250,      -33.6608886719
1488506002.6795079708,1488506002.6819360256,        0.5864257812,        0.1572265625,       -0.2192382812,      -15.0604248047,       -1.3275146484,      -33.7219238281
1488506002.6822249889,1488506002.6846508980,        0.5864257812,        0.1572265625,       -0.2192382812,      -15.0604248047,       -1.3275146484,      -33.7219238281
1488506002.6849370003,1488506002.6873569489,        0.5864257812,        0.1572265625,       -0.2192382812,      -15.1062011719,       -1.5258789062,      -33.3709716797
1488506002.6876471043,1488506002.6900599003,        0.5776367188,        0.1596679688,       -0.2294921875,      -15.1062011719,       -1.5258789062,      -33.3709716797
1488506002.6904590130,1488506002.6928689480,        0.5776367188,        0.1596679688,       -0.2294921875,      -15.6250000000,       -1.3732910156,      -33.1115722656
1488506002.6931500435,1488506002.6954441071,        0.5776367188,        0.1596679688,       -0.2294921875,      -15.6250000000,       -1.3732910156,      -33.1115722656
1488506002.6957240105,1488506002.6980140209,        0.5776367188,        0.1450195312,       -0.2304687500,      -19.5312500000,       -1.0070800781,      -32.9284667969
1488506002.6982951164,1488506002.7005949020,        0.5820312500,        0.1450195312,       -0.2304687500,      -15.8233642578,       -1.0070800781,      -32.9284667969
1488506002.7008769512,1488506002.7032220364,        0.5820312500,        0.1450195312,       -0.2304687500,      -15.8233642578,       -0.8239746094,      -32.9284667969
1488506002.7035019398,1488506002.7058019638,        0.5820312500,        0.1450195312,       -0.2304687500,      -16.2963867188,       -0.8239746094,      -32.9284667969
1488506002.7060840130,1488506002.7083768845,        0.5820312500,        0.1430664062,       -0.2329101562,      -16.2963867188,       -0.8239746094,      -33.1420898438
1488506002.7086589336,1488506002.7109539509,        0.5922851562,        0.1430664062,       -0.2329101562,      -15.7470703125,       -0.9918212891,      -33.1420898438
1488506002.7112369537,1488506002.7135720253,        0.5922851562,        0.1430664062,       -0.2329101562,      -15.7470703125,       -0.9918212891,      -33.8287353516
1488506002.7138540745,1488506002.7161459923,        0.5922851562,        0.1430664062,       -0.2329101562,      -16.0980224609,       -0.9765625000,      -33.8287353516
1488506002.7164280415,1488506002.7187221050,        0.5908203125,        0.1542968750,       -0.2290039062,      -16.0980224609,       -0.9765625000,      -33.8287353516
1488506002.7190039158,1488506002.7213010788,        0.5908203125,        0.1542968750,       -0.2290039062,      -16.6625976562,       -0.6103515625,      -34.0576171875
1488506002.7215828896,1488506002.7240788937,        0.5908203125,        0.1542968750,       -0.2290039062,      -16.6625976562,       -0.6103515625,      -34.0576171875
1488506002.7243690491,1488506002.7267909050,        0.5908203125,        0.1542968750,       -0.2290039062,      -17.2424316406,       -0.4119873047,      -34.1033935547
1488506002.7270801067,1488506002.7294969559,        0.5922851562,        0.1474609375,       -0.2275390625,      -17.2424316406,       -0.4119873047,      -34.1033935547
1488506002.7297871113,1488506002.7321960926,        0.5922851562,        0.1474609375,       -0.2275390625,      -17.7764892578,       -0.5950927734,      -34.5458984375
1488506002.7324800491,1488506002.7347760201,        0.5922851562,        0.1474609375,       -0.2275390625,      -17.7764892578,       -0.5950927734,      -34.5458984375
1488506002.7350571156,1488506002.7373480797,        0.5922851562,        0.1474609375,       -0.2275390625,      -18.1732177734,       -0.8239746094,      -35.0189208984
1488506002.7376289368,1488506002.7399199009,        0.5952148438,        0.1547851562,       -0.2192382812,      -18.1732177734,       -0.8239746094,      -35.0189208984
1488506002.7402000427,1488506002.7425320148,        0.5952148438,        0.1547851562,       -0.2192382812,      -18.0053710938,       -0.6866455078,      -35.4919433594
1488506002.7428131104,1488506002.7451028824,        0.5952148438,        0.1547851562,       -0.2192382812,      -18.0053710938,       -0.6866455078,      -35.4919433594
1488506002.7453849316,1488506002.7476789951,        0.5952148438,        0.1547851562,       -0.2192382812,      -17.7154541016,       -0.6561279297,      -35.9954833984
1488506002.7479610443,1488506002.7502489090,        0.6020507812,        0.1699218750,       -0.2138671875,      -17.7154541016,       -0.6561279297,      -35.9954833984
1488506002.7505309582,1488506002.7528901100,        0.6020507812,        0.1699218750,       -0.2138671875,      -18.4020996094,       -0.4730224609,      -36.4685058594
1488506002.7532811165,1488506002.7555820942,        0.6020507812,        0.1699218750,       -0.2138671875,      -18.4020996094,       -0.4730224609,      -36.4685058594
1488506002.7558660507,1488506002.7581529617,        0.6020507812,        0.1699218750,       -0.2202148438,      -18.9971923828,       -0.2288818359,      -36.6058349609
1488506002.7584369183,1488506002.7607259750,        0.5869140625,        0.1816406250,       -0.2202148438,      -18.9971923828,       -0.2288818359,      -36.6058349609
1488506002.7610089779,1488506002.7633059025,        0.5869140625,        0.1816406250,       -0.2202148438,      -18.9971923828,       -0.0610351562,      -36.7431640625
1488506002.7635910511,1488506002.7658779621,        0.5869140625,        0.1816406250,       -0.2202148438,      -18.9514160156,       -0.0610351562,      -36.7431640625
1488506002.7661600113,1488506002.7684528828,        0.5869140625,        0.1816406250,       -0.2153320312,      -18.9514160156,       -0.0610351562,      -37.2314453125
1488506002.7687339783,1488506002.7710249424,        0.5864257812,        0.1918945312,       -0.2153320312,      -19.2260742188,       -0.0610351562,      -37.2314453125
1488506002.7713069916,1488506002.7736639977,        0.5864257812,        0.1918945312,       -0.2153320312,      -19.2260742188,       -0.0610351562,      -37.4755859375
1488506002.7739450932,1488506002.7762401104,        0.5864257812,        0.1918945312,       -0.2153320312,      -19.5770263672,       -0.4577636719,      -37.4755859375
1488506002.7765209675,1488506002.7789330482,        0.5864257812,        0.1923828125,       -0.2187500000,      -19.5770263672,       -0.4577636719,      -37.5671386719
1488506002.7792160511,1488506002.7815060616,        0.6040039062,        0.1923828125,       -0.2187500000,      -19.0124511719,       -0.0305175781,      -37.5671386719
1488506002.7821760178,1488506002.7844679356,        0.6040039062,        0.1923828125,       -0.2187500000,      -19.0124511719,       -0.0305175781,      -38.2537841797
1488506002.7847530842,1488506002.7870469093,        0.6040039062,        0.1923828125,       -0.2187500000,      -18.2342529297,        0.3509521484,      -38.2537841797
1488506002.7873299122,1488506002.7896320820,        0.5942382812,        0.1835937500,       -0.2099609375,      -18.2342529297,        0.3509521484,      -38.2537841797
1488506002.7899150848,1488506002.7922499180,        0.5942382812,        0.1835937500,       -0.2099609375,      -16.8151855469,        0.7171630859,      -38.8488769531
1488506002.7925379276,1488506002.7949650288,        0.5942382812,        0.1835937500,       -0.2099609375,      -16.8151855469,        0.7171630859,      -38.8488769531
1488506002.7952530384,1488506002.7976679802,        0.5942382812,        0.1835937500,       -0.2099609375,      -15.6707763672,        0.6866455078,      -39.2913818359
1488506002.7979590893,1488506002.8003730774,        0.6035156250,        0.1850585938,       -0.2109375000,      -15.6707763672,        0.6866455078,      -39.2913818359
1488506002.8006629944,1488506002.8031249046,        0.6035156250,        0.1850585938,       -0.2109375000,      -14.7857666016,        0.5340576172,      -39.9475097656
1488506002.8034150600,1488506002.8058269024,        0.6035156250,        0.1850585938,       -0.2109375000,      -14.7857666016,        0.5340576172,      -39.9475097656
1488506002.8061161041,1488506002.8085289001,        0.6035156250,        0.1850585938,       -0.2109375000,      -14.4500732422,        0.7476806641,      -40.1458740234
1488506002.8088181019,1488506002.8112370968,        0.6025390625,        0.1962890625,       -0.2265625000,      -14.4500732422,        0.7476806641,      -40.1458740234
1488506002.8115289211,1488506002.8138439655,        0.6025390625,        0.1962890625,       -0.2265625000,      -14.8773193359,        0.7476806641,      -40.3442382812
1488506002.8141269684,1488506002.8164250851,        0.6025390625,        0.1962890625,       -0.2265625000,      -14.8773193359,        0.7476806641,      -40.3442382812
1488506002.8168139458,1488506002.8191120625,        0.6025390625,        0.1962890625,       -0.2363281250,      -15.3961181641,        0.7934570312,      -40.2221679688
1488506002.8193929195,1488506002.8217279911,        0.6103515625,        0.2143554688,       -0.2363281250,      -15.3961181641,        0.7934570312,      -40.2221679688
1488506002.8220109940,1488506002.8243110180,        0.6103515625,        0.2143554688,       -0.2363281250,      -16.7388916016,        0.9460449219,      -40.1916503906
1488506002.8245949745,1488506002.8268880844,        0.6103515625,        0.2143554688,       -0.2363281250,      -16.7388916016,        0.9460449219,      -40.1916503906
1488506002.8271689415,1488506002.8304760456,        0.6103515625,        0.2094726562,       -0.2143554688,      -17.6086425781,        1.3427734375,      -40.3747558594
1488506002.8307609558,1488506002.8331060410,        0.6147460938,        0.2094726562,       -0.2143554688,      -17.6086425781,        1.3427734375,      -40.3747558594
1488506002.8333890438,1488506002.8356809616,        0.6147460938,        0.2094726562,       -0.2143554688,      -18.0969238281,        1.7242431641,      -40.5731201172
1488506002.8359630108,1488506002.8382558823,        0.6147460938,        0.2094726562,       -0.2143554688,      -18.0969238281,        1.7242431641,      -40.5731201172
1488506002.8385388851,1488506002.8408288956,        0.6118164062,        0.2094726562,       -0.2226562500,      -17.7459716797,        1.9683837891,      -40.8172607422
1488506002.8411099911,1488506002.8434638977,        0.6118164062,        0.2094726562,       -0.2226562500,      -17.7459716797,        1.9683837891,      -40.8172607422
1488506002.8437459469,1488506002.8460359573,        0.6118164062,        0.2094726562,       -0.2226562500,      -17.7001953125,        2.2277832031,      -42.1295166016
1488506002.8463170528,1488506002.8486020565,        0.6118164062,        0.2094726562,       -0.2226562500,      -17.7001953125,        2.2277832031,      -42.1295166016
1488506002.8488841057,1488506002.8511769772,        0.6093750000,        0.2187500000,       -0.2084960938,      -17.9443359375,        2.4414062500,      -42.6330566406
1488506002.8514599800,1488506002.8538029194,        0.6093750000,        0.2187500000,       -0.2084960938,      -17.9443359375,        2.4414062500,      -42.6330566406
1488506002.8540840149,1488506002.8563721180,        0.6093750000,        0.2187500000,       -0.2084960938,      -17.9748535156,        2.6702880859,      -42.7398681641
1488506002.8566539288,1488506002.8589479923,        0.6093750000,        0.2187500000,       -0.2084960938,      -17.9748535156,        2.6702880859,      -42.7398681641
1488506002.8592278957,1488506002.8615159988,        0.6054687500,        0.2221679688,       -0.2021484375,      -18.3105468750,        2.5634765625,      -43.1518554688
1488506002.8617908955,1488506002.8640809059,        0.6054687500,        0.2221679688,       -0.2021484375,      -18.3105468750,        2.5634765625,      -43.1518554688
1488506002.8643629551,1488506002.8666551113,        0.6054687500,        0.2221679688,       -0.2021484375,      -18.3105468750,        2.5939941406,      -43.4417724609
1488506002.8669340611,1488506002.8692209721,        0.6054687500,        0.2221679688,       -0.1997070312,      -18.2800292969,        2.5939941406,      -43.4417724609
1488506002.8695020676,1488506002.8718740940,        0.6015625000,        0.2294921875,       -0.1997070312,      -18.2800292969,        2.5939941406,      -44.4488525391
1488506002.8721768856,1488506002.8744800091,        0.6015625000,        0.2294921875,       -0.1997070312,      -17.8527832031,        2.9296875000,      -44.4488525391
1488506002.8747639656,1488506002.8770558834,        0.6015625000,        0.2294921875,       -0.1997070312,      -17.8527832031,        2.9296875000,      -45.3796386719
1488506002.8773400784,1488506002.8796329498,        0.6015625000,        0.2294921875,       -0.2109375000,      -17.3187255859,        3.7689208984,      -45.3796386719
1488506002.8800270557,1488506002.8824200630,        0.6127929688,        0.2158203125,       -0.2109375000,      -17.3187255859,        3.7689208984,      -46.1425781250
1488506002.8827030659,1488506002.8849959373,        0.6127929688,        0.2158203125,       -0.2109375000,      -17.3492431641,        4.6691894531,      -46.1425781250
1488506002.8852770329,1488506002.8875739574,        0.6127929688,        0.2158203125,       -0.2109375000,      -17.3492431641,        4.6691894531,      -50.0488281250
1488506002.8878550529,1488506002.8901460171,        0.7377929688,        0.2250976562,       -0.2270507812,      -16.8457031250,        5.1879882812,      -47.4548339844
1488506002.8904249668,1488506002.8927919865,        0.6313476562,        0.2250976562,       -0.2270507812,      -16.8457031250,        5.1879882812,      -47.4548339844
1488506002.8930799961,1488506002.8954980373,        0.6313476562,        0.2250976562,       -0.2270507812,      -17.1203613281,        5.7830810547,      -48.1109619141
1488506002.8957901001,1488506002.8982079029,        0.6313476562,        0.2250976562,       -0.2270507812,      -17.1203613281,        5.7830810547,      -48.1109619141
1488506002.8984971046,1488506002.9009160995,        0.6572265625,        0.2158203125,       -0.2416992188,      -17.2424316406,        6.8969726562,      -49.7741699219
1488506002.9012041092,1488506002.9036290646,        0.6572265625,        0.2158203125,       -0.2416992188,      -17.2424316406,        6.8969726562,      -49.7741699219
1488506002.9039158821,1488506002.9063329697,        0.6572265625,        0.2158203125,       -0.2416992188,      -17.7917480469,        7.5836181641,      -51.0864257812
1488506002.9066219330,1488506002.9090330601,        0.6572265625,        0.2158203125,       -0.2416992188,      -17.7917480469,        7.5836181641,      -51.0864257812
1488506002.9093248844,1488506002.9117519855,        0.6772460938,        0.2089843750,       -0.2631835938,      -19.0582275391,        8.4381103516,      -52.4902343750
1488506002.9120330811,1488506002.9143240452,        0.6772460938,        0.2089843750,       -0.2631835938,      -19.0582275391,        8.4381103516,      -52.4902343750
1488506002.9146070480,1488506002.9168999195,        0.6772460938,        0.2089843750,       -0.2631835938,      -19.9127197266,        8.4381103516,      -53.9398193359
1488506002.9171810150,1488506002.9194769859,        0.6772460938,        0.2089843750,       -0.2631835938,      -19.9127197266,        8.4381103516,      -53.9398193359
1488506002.9197568893,1488506002.9221351147,        0.6860351562,        0.2133789062,       -0.2612304688,      -21.4691162109,        7.6599121094,      -54.9163818359
1488506002.9224240780,1488506002.9248468876,        0.6860351562,        0.2133789062,       -0.2612304688,      -21.4691162109,        7.6599121094,      -54.9163818359
1488506002.9251348972,1488506002.9275500774,        0.6860351562,        0.2133789062,       -0.2612304688,      -23.8342285156,        7.9956054688,      -56.5185546875
1488506002.9278390408,1488506002.9302539825,        0.6860351562,        0.2133789062,       -0.2373046875,      -23.8342285156,        7.9956054688,      -56.5185546875
1488506002.9305450916,1488506002.9329130650,        0.6982421875,        0.2197265625,       -0.2373046875,      -26.0772705078,        7.9956054688,      -57.9833984375
1488506002.9331939220,1488506002.9354898930,        0.6982421875,        0.2197265625,       -0.2373046875,      -26.0772705078,        7.9956054688,      -57.9833984375
1488506002.9357709885,1488506002.9382600784,        0.6982421875,        0.2197265625,       -0.2373046875,      -27.8930664062,        7.7514648438,      -59.8297119141
1488506002.9385430813,1488506002.9408390522,        0.6982421875,        0.1948242188,       -0.2260742188,      -27.8930664062,        7.7514648438,      -59.8297119141
1488506002.9411220551,1488506002.9437780380,        0.7377929688,        0.1948242188,       -0.2260742188,      -28.7322998047,        8.0718994141,      -61.4166259766
1488506002.9441750050,1488506002.9465780258,        0.7377929688,        0.1948242188,       -0.2260742188,      -28.7322998047,        8.0718994141,      -61.4166259766
1488506002.9468679428,1488506002.9492740631,        0.7377929688,        0.1948242188,       -0.2260742188,      -28.6712646484,        7.6293945312,      -63.6291503906
1488506002.9495620728,1488506002.9519710541,        0.7641601562,        0.1845703125,       -0.2094726562,      -28.6712646484,        7.6293945312,      -63.6291503906
1488506002.9522569180,1488506002.9546399117,        0.7641601562,        0.1845703125,       -0.2094726562,      -28.3966064453,        6.9427490234,      -65.7806396484
1488506002.9549260139,1488506002.9573059082,        0.7641601562,        0.1845703125,       -0.2094726562,      -28.3966064453,        6.9427490234,      -65.7806396484
1488506002.9575901031,1488506002.9599730968,        0.7641601562,        0.1845703125,       -0.2094726562,      -28.9154052734,        6.0272216797,      -67.5201416016
1488506002.9602599144,1488506002.9627408981,        0.8012695312,        0.1923828125,       -0.1948242188,      -28.9154052734,        6.0272216797,      -67.5201416016
1488506002.9630320072,1488506002.9654550552,        0.8012695312,        0.1923828125,       -0.1948242188,      -29.7851562500,        4.8217773438,      -69.3664550781
1488506002.9657449722,1488506002.9681639671,        0.8012695312,        0.1923828125,       -0.1948242188,      -29.7851562500,        4.8217773438,      -69.3664550781
1488506002.9684529305,1488506002.9708690643,        0.8012695312,        0.2021484375,       -0.1831054688,      -31.5551757812,        3.8909912109,      -71.2280273438
1488506002.9711589813,1488506002.9734981060,        0.8090820312,        0.2021484375,       -0.1831054688,      -31.5551757812,        3.8909912109,      -71.2280273438
1488506002.9737789631,1488506002.9760739803,        0.8090820312,        0.2021484375,       -0.1831054688,      -32.8216552734,        2.9907226562,      -73.0895996094
1488506002.9763550758,1488506002.9786469936,        0.8090820312,        0.2021484375,       -0.1831054688,      -32.8216552734,        2.9907226562,      -73.0895996094
1488506002.9789290428,1488506002.9812200069,        0.8090820312,        0.1723632812,       -0.1816406250,      -33.5388183594,        1.9531250000,      -74.2645263672
1488506002.9815020561,1488506002.9838418961,        0.8437500000,        0.1723632812,       -0.1816406250,      -33.5388183594,        1.9531250000,      -74.2645263672
1488506002.9841248989,1488506002.9864161015,        0.8437500000,        0.1723632812,       -0.1816406250,      -33.5388183594,        0.5950927734,      -75.6683349609
1488506002.9866979122,1488506002.9889879227,        0.8437500000,        0.1723632812,       -0.1816406250,      -33.9050292969,        0.5950927734,      -75.6683349609
1488506002.9892709255,1488506002.9915599823,        0.8681640625,        0.1596679688,       -0.1733398438,      -33.9050292969,       -3.3111572266,      -77.1026611328
1488506002.9918630123,1488506002.9941740036,        0.8681640625,        0.1596679688,       -0.1733398438,      -34.9426269531,       -0.2746582031,      -77.1026611328
1488506002.9944589138,1488506002.9967479706,        0.8681640625,        0.1596679688,       -0.1733398438,      -34.9426269531,       -0.2746582031,      -79.3151855469
1488506002.9970309734,1488506002.9993259907,        0.8681640625,        0.1596679688,       -0.1733398438,      -34.1949462891,       -0.8392333984,      -79.3151855469
1488506002.9996089935,1488506003.0020499229,        0.8842773438,        0.1538085938,       -0.1660156250,      -34.1949462891,       -0.8392333984,      -79.3151855469
1488506003.0023400784,1488506003.0047590733,        0.8842773438,        0.1538085938,       -0.1660156250,      -34.1186523438,       -1.4343261719,      -81.0852050781
1488506003.0050489902,1488506003.0074679852,        0.8842773438,        0.1538085938,       -0.1660156250,      -34.1186523438,       -1.4343261719,      -84.9914550781
1488506003.0078709126,1488506003.0102880001,        0.8842773438,        0.1538085938,       -0.1660156250,      -37.3535156250,       -0.9765625000,      -82.2296142578
1488506003.0105779171,1488506003.0130031109,        0.8798828125,        0.1684570312,       -0.1967773438,      -37.3535156250,       -0.9765625000,      -83.0688476562
1488506003.0132920742,1488506003.0157079697,        0.8798828125,        0.1684570312,       -0.1967773438,      -40.4357910156,       -0.6866455078,      -83.0688476562
1488506003.0159959793,1488506003.0184099674,        0.8798828125,        0.1684570312,       -0.1967773438,      -40.4357910156,       -0.6866455078,      -83.5571289062
1488506003.0186998844,1488506003.0211129189,        0.8798828125,        0.1684570312,       -0.2187500000,      -41.3513183594,       -3.0670166016,      -83.5571289062
1488506003.0214030743,1488506003.0238249302,        0.8310546875,        0.1499023438,       -0.2187500000,      -41.3513183594,       -3.0670166016,      -83.5571289062
1488506003.0241138935,1488506003.0265309811,        0.8310546875,        0.1499023438,       -0.2187500000,      -43.8537597656,       -5.2185058594,      -83.5876464844
1488506003.0268189907,1488506003.0292360783,        0.8310546875,        0.1499023438,       -0.2187500000,      -43.8537597656,       -5.2185058594,      -83.5876464844
1488506003.0295228958,1488506003.0319418907,        0.8266601562,        0.1894531250,       -0.2416992188,      -48.6602783203,       -6.8664550781,      -84.5031738281
1488506003.0322248936,1488506003.0345160961,        0.8266601562,        0.1894531250,       -0.2416992188,      -48.6602783203,       -6.8664550781,      -84.5031738281
1488506003.0347990990,1488506003.0370869637,        0.8266601562,        0.1894531250,       -0.2416992188,      -54.2144775391,       -8.1634521484,      -82.8247070312
1488506003.0373699665,1488506003.0396618843,        0.8266601562,        0.1894531250,       -0.2416992188,      -54.2144775391,       -8.1634521484,      -82.8247070312
1488506003.0399429798,1488506003.0423328876,        0.8315429688,        0.1713867188,       -0.2236328125,      -58.8836669922,       -9.4604492188,      -82.0617675781
1488506003.0426220894,1488506003.0450420380,        0.8315429688,        0.1713867188,       -0.2236328125,      -58.8836669922,       -9.4604492188,      -82.0617675781
1488506003.0453310013,1488506003.0477459431,        0.8315429688,        0.1713867188,       -0.2236328125,      -64.0563964844,      -10.9252929688,      -81.3903808594
1488506003.0480370522,1488506003.0504589081,        0.8315429688,        0.1713867188,       -0.2236328125,      -64.0563964844,      -10.9252929688,      -81.3903808594
1488506003.0507509708,1488506003.0531790257,        0.7856445312,        0.2001953125,       -0.2465820312,      -69.5648193359,      -12.6953125000,      -79.4677734375
1488506003.0534710884,1488506003.0558910370,        0.7856445312,        0.2001953125,       -0.2465820312,      -69.5648193359,      -12.6953125000,      -79.4677734375
1488506003.0561819077,1488506003.0588669777,        0.7856445312,        0.2001953125,       -0.2465820312,      -76.2481689453,      -12.9394531250,      -78.5980224609
1488506003.0591599941,1488506003.0615720749,        0.7856445312,        0.2001953125,       -0.2797851562,      -76.2481689453,      -12.9394531250,      -78.5980224609
1488506003.0623168945,1488506003.0647380352,        0.7768554688,        0.2065429688,       -0.2797851562,      -82.8094482422,      -11.6424560547,      -76.1718750000
1488506003.0650289059,1488506003.0674459934,        0.7768554688,        0.2065429688,       -0.2797851562,      -82.8094482422,      -11.6424560547,      -74.8901367188
1488506003.0677380562,1488506003.0701580048,        0.7768554688,        0.2065429688,       -0.2797851562,      -79.9407958984,      -10.9100341797,      -74.8901367188
1488506003.0704510212,1488506003.0728509426,        0.7480468750,        0.1118164062,       -0.3120117188,      -79.9407958984,      -10.9100341797,      -74.1882324219
1488506003.0732469559,1488506003.0755369663,        0.7480468750,        0.1118164062,       -0.3120117188,      -66.3452148438,      -11.5356445312,      -74.1882324219
1488506003.0758240223,1488506003.0781190395,        0.7480468750,        0.1118164062,       -0.3120117188,      -66.3452148438,      -11.5356445312,      -74.1882324219
1488506003.0784029961,1488506003.0806961060,        0.7480468750,        0.1118164062,       -0.3120117188,      -45.4254150391,      -10.9100341797,      -73.8525390625
1488506003.0809829235,1488506003.0833749771,        0.7597656250,        0.0385742188,       -0.3012695312,      -45.4254150391,      -10.9100341797,      -73.8525390625
1488506003.0836670399,1488506003.0860829353,        0.7597656250,        0.0385742188,       -0.3012695312,      -25.7873535156,       -9.7656250000,      -73.5473632812
1488506003.0863749981,1488506003.0887880325,        0.7597656250,        0.0385742188,       -0.3012695312,      -25.7873535156,       -9.7656250000,      -73.5473632812
1488506003.0890789032,1488506003.0914959908,        0.7597656250,        0.0385742188,       -0.3012695312,      -14.2211914062,       -7.9345703125,      -74.4781494141
1488506003.0917971134,1488506003.0940890312,        0.6704101562,        0.2329101562,       -0.2587890625,      -14.2211914062,       -7.9345703125,      -74.4781494141
1488506003.0943720341,1488506003.0966620445,        0.6704101562,        0.2329101562,       -0.2587890625,      -15.7318115234,       -5.6610107422,      -75.8056640625
1488506003.0969450474,1488506003.0992369652,        0.6704101562,        0.2329101562,       -0.2587890625,      -15.7318115234,       -5.6610107422,      -75.8056640625
1488506003.0995159149,1488506003.1018130779,        0.6704101562,        0.2329101562,       -0.2744140625,      -26.4587402344,       -5.3710937500,      -76.2481689453
1488506003.1020939350,1488506003.1043920517,        0.5805664062,        0.4218750000,       -0.2744140625,      -26.4587402344,       -5.3710937500,      -76.2481689453
1488506003.1046729088,1488506003.1069660187,        0.5805664062,        0.4218750000,       -0.2744140625,      -39.8101806641,       -7.5073242188,      -76.4770507812
1488506003.1072480679,1488506003.1095440388,        0.5805664062,        0.4218750000,       -0.2744140625,      -39.8101806641,       -7.5073242188,      -76.4770507812
1488506003.1098260880,1488506003.1122488976,        0.5805664062,        0.4218750000,       -0.3632812500,      -49.5605468750,      -10.2539062500,      -77.7740478516
1488506003.1125359535,1488506003.1148290634,        0.6010742188,        0.4160156250,       -0.3632812500,      -49.5605468750,      -10.2539062500,      -77.7740478516
1488506003.1151139736,1488506003.1174089909,        0.6010742188,        0.4160156250,       -0.3632812500,      -51.6052246094,      -13.5955810547,      -78.7200927734
1488506003.1176929474,1488506003.1199889183,        0.6010742188,        0.4160156250,       -0.3632812500,      -51.6052246094,      -13.5955810547,      -78.7200927734
1488506003.1202731133,1488506003.1227509975,        0.4760742188,        0.2968750000,       -0.4399414062,      -51.6052246094,      -17.1356201172,      -76.2023925781
1488506003.1230390072,1488506003.1253340244,        0.4580078125,        0.2968750000,       -0.4399414062,      -53.2836914062,      -17.1356201172,      -76.2023925781
1488506003.1256189346,1488506003.1279180050,        0.4580078125,        0.2968750000,       -0.4399414062,      -61.0961914062,      -17.5933837891,      -69.2749023438
1488506003.1282029152,1488506003.1304929256,        0.4580078125,        0.2968750000,       -0.4399414062,      -61.2640380859,      -17.5933837891,      -69.2749023438
1488506003.1307759285,1488506003.1332468987,        0.2656250000,        0.2431640625,       -0.4013671875,      -61.2640380859,      -15.1672363281,      -57.9376220703
1488506003.1335399151,1488506003.1360909939,        0.2656250000,        0.2431640625,       -0.4013671875,      -76.6754150391,      -15.1672363281,      -57.9376220703
1488506003.1364769936,1488506003.1387710571,        0.2656250000,        0.2431640625,       -0.4013671875,      -96.2066650391,      -12.3596191406,      -43.7011718750
1488506003.1390569210,1488506003.1413540840,        0.2656250000,        0.2431640625,       -0.4013671875,      -95.3063964844,      -12.3596191406,      -43.7011718750
1488506003.1416389942,1488506003.1442909241,        0.1977539062,        0.0888671875,       -0.3666992188,     -110.9313964844,       -9.3994140625,      -28.9306640625
1488506003.1445820332,1488506003.1469678879,        0.1977539062,        0.0888671875,       -0.3666992188,     -112.6708984375,       -9.3994140625,      -28.9306640625
1488506003.1478159428,1488506003.1501049995,        0.1977539062,        0.0888671875,       -0.3666992188,     -122.6501464844,       -8.1176757812,      -16.0675048828
1488506003.1503920555,1488506003.1527519226,        0.1977539062,       -0.0400390625,       -0.2875976562,     -122.6501464844,       -8.1176757812,      -16.0675048828
1488506003.1530370712,1488506003.1553299427,        0.2958984375,       -0.0400390625,       -0.2875976562,     -130.4626464844,       -9.8266601562,       -4.8370361328
1488506003.1556079388,1488506003.1578938961,        0.2958984375,       -0.0400390625,       -0.2875976562,     -130.4626464844,       -9.8266601562,       -4.8370361328
1488506003.1581730843,1488506003.1604709625,        0.2958984375,       -0.0400390625,       -0.2875976562,     -130.4626464844,       -9.4757080078,        2.9296875000
1488506003.1607520580,1488506003.1631009579,        0.2958984375,       -0.1855468750,       -0.2099609375,     -132.4768066406,       -9.4757080078,        2.9296875000
1488506003.1633799076,1488506003.1656711102,        0.2841796875,       -0.1855468750,       -0.2099609375,     -132.4768066406,       -5.5694580078,       11.6119384766
1488506003.1659529209,1488506003.1682488918,        0.2841796875,       -0.1855468750,       -0.2099609375,     -127.5939941406,       -7.2631835938,       11.6119384766
1488506003.1685290337,1488506003.1708159447,        0.2841796875,       -0.1855468750,       -0.2099609375,     -127.5939941406,       -7.2631835938,       19.0429687500
1488506003.1710979939,1488506003.1734468937,        0.2373046875,       -0.2607421875,       -0.1215820312,     -121.6735839844,       -7.1411132812,       19.0429687500
1488506003.1737279892,1488506003.1760249138,        0.2373046875,       -0.2607421875,       -0.1215820312,     -121.6735839844,       -7.1411132812,       19.0429687500
1488506003.1763069630,1488506003.1785950661,        0.2373046875,       -0.2607421875,       -0.1215820312,     -114.4866943359,       -7.8582763672,       24.8565673828
1488506003.1788780689,1488506003.1811730862,        0.2373046875,       -0.2607421875,       -0.1215820312,     -114.4866943359,       -7.8582763672,       24.8565673828
1488506003.1814529896,1488506003.1837980747,        0.2524414062,       -0.1928710938,       -0.0839843750,     -108.1085205078,       -8.4075927734,       30.5786132812
1488506003.1840829849,1488506003.1863689423,        0.2524414062,       -0.1928710938,       -0.0839843750,     -108.1085205078,       -8.4075927734,       30.5786132812
1488506003.1866528988,1488506003.1889450550,        0.2524414062,       -0.1928710938,       -0.0839843750,     -102.7679443359,       -9.2163085938,       36.9720458984
1488506003.1892290115,1488506003.1915149689,        0.2524414062,       -0.1928710938,       -0.0839843750,     -102.7679443359,       -9.2163085938,       36.9720458984
1488506003.1918530464,1488506003.1941540241,        0.2724609375,       -0.1264648438,       -0.0625000000,      -98.9532470703,       -8.9721679688,       44.1741943359
1488506003.1944370270,1488506003.1967360973,        0.2724609375,       -0.1264648438,       -0.0625000000,      -98.9532470703,       -8.9721679688,       44.1741943359
1488506003.1970169544,1488506003.1993141174,        0.2724609375,       -0.1264648438,       -0.0625000000,      -94.6960449219,       -7.3242187500,       51.5594482422
1488506003.1995949745,1488506003.2020440102,        0.2724609375,       -0.1264648438,       -0.0625000000,      -94.6960449219,       -7.3242187500,       51.5594482422
1488506003.2024428844,1488506003.2048659325,        0.2802734375,       -0.0805664062,       -0.0273437500,      -90.2557373047,       -6.5765380859,       57.6782226562
1488506003.2051570415,1488506003.2075710297,        0.2802734375,       -0.0805664062,       -0.0273437500,      -90.2557373047,       -6.5765380859,       57.6782226562
1488506003.2078599930,1488506003.2102789879,        0.2802734375,       -0.0805664062,       -0.0273437500,      -84.7778320312,       -6.8817138672,       63.3544921875
1488506003.2105689049,1488506003.2129390240,        0.2802734375,       -0.0805664062,       -0.0024414062,      -84.7778320312,       -6.8817138672,       63.3544921875
1488506003.2132229805,1488506003.2155230045,        0.2919921875,       -0.0708007812,       -0.0024414062,      -76.8585205078,       -7.8125000000,       69.2749023438
1488506003.2158060074,1488506003.2181100845,        0.2919921875,       -0.0708007812,       -0.0024414062,      -76.8585205078,       -7.8125000000,       69.2749023438
1488506003.2183930874,1488506003.2206869125,        0.2919921875,       -0.0708007812,       -0.0024414062,      -67.1539306641,       -8.0718994141,       74.1729736328
1488506003.2209689617,1488506003.2233619690,        0.2919921875,       -0.0708007812,        0.0048828125,      -67.1539306641,       -8.0718994141,       74.1729736328
1488506003.2236540318,1488506003.2260758877,        0.3066406250,       -0.0463867188,        0.0048828125,      -55.4351806641,       -8.5906982422,       79.4372558594
1488506003.2263669968,1488506003.2287859917,        0.3066406250,       -0.0463867188,        0.0048828125,      -57.4035644531,       -8.5906982422,       79.4372558594
1488506003.2290749550,1488506003.2314939499,        0.3066406250,       -0.0463867188,        0.0048828125,      -49.5910644531,      -10.1013183594,       84.5336914062
1488506003.2317979336,1488506003.2342150211,        0.3447265625,       -0.0429687500,        0.0019531250,      -46.9512939453,      -10.1013183594,       84.5336914062
1488506003.2345070839,1488506003.2369289398,        0.3447265625,       -0.0429687500,        0.0019531250,      -31.3262939453,      -11.2457275391,       88.9587402344
1488506003.2372219563,1488506003.2396469116,        0.3447265625,       -0.0429687500,        0.0019531250,      -34.5611572266,      -11.2457275391,       88.9587402344
1488506003.2399389744,1488506003.2423729897,        0.3447265625,       -0.0429687500,        0.0019531250,      -22.8424072266,      -13.1683349609,       92.7581787109
1488506003.2426640987,1488506003.2450909615,        0.3603515625,       -0.0307617188,        0.0092773438,      -21.9268798828,      -13.1683349609,       92.7581787109
1488506003.2453830242,1488506003.2478039265,        0.3603515625,       -0.0307617188,        0.0092773438,      -10.2081298828,      -15.0299072266,       96.2524414062
1488506003.2480969429,1488506003.2505140305,        0.3603515625,       -0.0307617188,        0.0092773438,       -9.1400146484,      -15.0299072266,       96.2524414062
1488506003.2508039474,1488506003.2532420158,        0.3603515625,       -0.0307617188,       -0.1157226562,        2.5787353516,      -16.0675048828,       99.5635986328
1488506003.2535309792,1488506003.2559530735,        0.3862304688,       -0.0014648438,       -0.0073242188,        3.4179687500,      -16.0675048828,       99.5635986328
1488506003.2562439442,1488506003.2587940693,        0.3862304688,       -0.0014648438,       -0.0073242188,       19.0429687500,      -17.8375244141,      101.7761230469
1488506003.2590899467,1488506003.2614979744,        0.3862304688,       -0.0014648438,       -0.0073242188,       17.1661376953,      -17.8375244141,      101.7761230469
1488506003.2621920109,1488506003.2644810677,        0.4165039062,        0.0444335938,       -0.0239257812,       30.0598144531,      -19.1650390625,      104.5074462891
1488506003.2647700310,1488506003.2670700550,        0.4165039062,        0.0444335938,       -0.0239257812,       30.0598144531,      -19.1650390625,      104.5074462891
1488506003.2674629688,1488506003.2697570324,        0.4165039062,        0.0444335938,       -0.0239257812,       38.9556884766,      -19.9279785156,      107.3760986328
1488506003.2700409889,1488506003.2723870277,        0.4165039062,        0.0444335938,       -0.0239257812,       38.9556884766,      -19.9279785156,      107.3760986328
1488506003.2726819515,1488506003.2751049995,        0.4560546875,        0.1093750000,       -0.0541992188,       46.7681884766,      -20.3704833984,      110.9466552734
1488506003.2753999233,1488506003.2778160572,        0.4560546875,        0.1093750000,       -0.0541992188,       45.9442138672,      -20.3704833984,      110.9466552734
1488506003.2781078815,1488506003.2805280685,        0.4560546875,        0.1093750000,       -0.0541992188,       53.7567138672,      -21.4996337891,      114.3341064453
1488506003.2808210850,1488506003.2832450867,        0.4560546875,        0.1093750000,       -0.0541992188,       51.5747070312,      -21.4996337891,      114.3341064453
1488506003.2835369110,1488506003.2859539986,        0.4755859375,        0.1420898438,       -0.0805664062,       55.4809570312,      -21.9573974609,      117.6910400391
1488506003.2862470150,1488506003.2886710167,        0.4755859375,        0.1420898438,       -0.0805664062,       56.1981201172,      -21.9573974609,      117.6910400391
1488506003.2889640331,1488506003.2913849354,        0.4755859375,        0.1420898438,       -0.0805664062,       60.1043701172,      -22.0184326172,      121.2463378906
1488506003.2916879654,1488506003.2939829826,        0.4755859375,        0.1420898438,       -0.0810546875,       59.0209960938,      -22.0184326172,      121.2463378906
1488506003.2942690849,1488506003.2965669632,        0.5166015625,        0.1728515625,       -0.0810546875,       59.0209960938,      -21.5606689453,      123.8708496094
1488506003.2968509197,1488506003.2991468906,        0.5166015625,        0.1728515625,       -0.0810546875,       61.4013671875,      -21.5606689453,      123.8708496094
1488506003.2994339466,1488506003.3017480373,        0.5166015625,        0.1728515625,       -0.0810546875,       61.4013671875,      -21.5606689453,      126.3122558594
1488506003.3020350933,1488506003.3043310642,        0.5166015625,        0.2270507812,       -0.1059570312,       61.8743896484,      -21.4691162109,      126.3122558594
1488506003.3046169281,1488506003.3069100380,        0.5747070312,        0.2270507812,       -0.1059570312,       61.8743896484,      -21.4691162109,      128.6315917969
1488506003.3071939945,1488506003.3094899654,        0.5747070312,        0.2270507812,       -0.1059570312,       60.8215332031,      -20.7519531250,      128.6315917969
1488506003.3097760677,1488506003.3122279644,        0.5747070312,        0.2270507812,       -0.1059570312,       60.8215332031,      -20.7519531250,      132.5378417969
1488506003.3125119209,1488506003.3148050308,        0.6123046875,        0.2700195312,       -0.1074218750,       58.4106445312,      -19.8516845703,      130.7525634766
1488506003.3150899410,1488506003.3173899651,        0.6123046875,        0.2700195312,       -0.1074218750,       58.4106445312,      -19.8516845703,      130.7525634766
1488506003.3176760674,1488506003.3199698925,        0.6123046875,        0.2700195312,       -0.1074218750,       56.3812255859,      -19.6533203125,      132.6141357422
1488506003.3202528954,1488506003.3227789402,        0.6123046875,        0.2700195312,       -0.1074218750,       56.3812255859,      -19.6533203125,      132.6141357422
1488506003.3230750561,1488506003.3254990578,        0.6381835938,        0.3002929688,       -0.1250000000,       53.7414550781,      -19.3634033203,      134.1552734375
1488506003.3257930279,1488506003.3282101154,        0.6381835938,        0.3002929688,       -0.1250000000,       53.7414550781,      -19.3634033203,      134.1552734375
1488506003.3285019398,1488506003.3309259415,        0.6381835938,        0.3002929688,       -0.1250000000,       50.4913330078,      -18.1579589844,      135.7574462891
1488506003.3313291073,1488506003.3337590694,        0.6381835938,        0.3002929688,       -0.1250000000,       50.4913330078,      -18.1579589844,      135.7574462891
1488506003.3340508938,1488506003.3364660740,        0.6640625000,        0.3256835938,       -0.1342773438,       46.8444824219,      -17.3187255859,      136.3220214844
1488506003.3367569447,1488506003.3391780853,        0.6640625000,        0.3256835938,       -0.1342773438,       46.8444824219,      -17.3187255859,      136.3220214844
1488506003.3394689560,1488506003.3418939114,        0.6640625000,        0.3256835938,       -0.1342773438,       43.9300537109,      -16.1285400391,      136.7034912109
1488506003.3421869278,1488506003.3446130753,        0.6640625000,        0.3256835938,       -0.1367187500,       43.9300537109,      -16.1285400391,      136.7034912109
1488506003.3449048996,1488506003.3473219872,        0.6782226562,        0.3286132812,       -0.1367187500,       40.8172607422,      -16.2048339844,      137.2528076172
1488506003.3476140499,1488506003.3500289917,        0.6782226562,        0.3286132812,       -0.1367187500,       40.8172607422,      -16.2048339844,      137.2528076172
1488506003.3503220081,1488506003.3527529240,        0.6782226562,        0.3286132812,       -0.1367187500,       38.5437011719,      -16.2200927734,      137.1917724609
1488506003.3530440331,1488506003.3554589748,        0.6826171875,        0.3300781250,       -0.1386718750,       38.5437011719,      -16.2200927734,      137.1917724609
1488506003.3557500839,1488506003.3581659794,        0.6826171875,        0.3300781250,       -0.1386718750,       36.6363525391,      -15.5181884766,      137.3748779297
1488506003.3584558964,1488506003.3608789444,        0.6826171875,        0.3300781250,       -0.1386718750,       36.6363525391,      -15.5181884766,      137.3748779297
1488506003.3611710072,1488506003.3635981083,        0.6826171875,        0.3300781250,       -0.1386718750,       35.5377197266,      -15.2587890625,      137.3748779297
1488506003.3638920784,1488506003.3663120270,        0.6806640625,        0.2988281250,       -0.1401367188,       35.5377197266,      -15.2587890625,      137.3748779297
1488506003.3666040897,1488506003.3690159321,        0.6806640625,        0.2988281250,       -0.1401367188,       35.8123779297,      -15.3656005859,      136.8103027344
1488506003.3693079948,1488506003.3717379570,        0.6806640625,        0.2988281250,       -0.1401367188,       35.8123779297,      -15.3656005859,      136.8103027344
1488506003.3720300198,1488506003.3744568825,        0.6806640625,        0.2988281250,       -0.1401367188,       37.1093750000,      -16.4794921875,      136.1236572266
1488506003.3747498989,1488506003.3771600723,        0.6860351562,        0.2851562500,       -0.1303710938,       37.1093750000,      -16.4794921875,      136.1236572266
1488506003.3774509430,1488506003.3800399303,        0.6860351562,        0.2851562500,       -0.1303710938,       39.4287109375,      -17.2882080078,      134.9639892578
1488506003.3803329468,1488506003.3831610680,        0.6860351562,        0.2851562500,       -0.1303710938,       39.4287109375,      -17.2882080078,      133.4228515625
1488506003.3834550381,1488506003.3858740330,        0.7011718750,        0.2685546875,       -0.1254882812,       43.0755615234,      -17.5323486328,      133.4228515625
1488506003.3861670494,1488506003.3885829449,        0.7011718750,        0.2685546875,       -0.1254882812,       43.0755615234,      -17.5323486328,      133.9874267578
1488506003.3888740540,1488506003.3912930489,        0.7011718750,        0.2685546875,       -0.1254882812,       46.4782714844,      -16.7541503906,      133.9874267578
1488506003.3915829659,1488506003.3940129280,        0.7011718750,        0.2685546875,       -0.1254882812,       46.4782714844,      -16.7541503906,      134.1247558594
1488506003.3943049908,1488506003.3967258930,        0.6791992188,        0.2861328125,       -0.1416015625,       48.1109619141,      -18.1121826172,      134.1247558594
1488506003.3971269131,1488506003.3995440006,        0.6791992188,        0.2861328125,       -0.1416015625,       48.1109619141,      -18.1121826172,      135.0097656250
1488506003.3998370171,1488506003.4023189545,        0.6791992188,        0.2861328125,       -0.1416015625,       47.2106933594,      -19.3939208984,      135.0097656250
1488506003.4026110172,1488506003.4050319195,        0.6791992188,        0.2861328125,       -0.1245117188,       47.2106933594,      -19.3939208984,      135.9405517578
1488506003.4053249359,1488506003.4077439308,        0.7172851562,        0.2875976562,       -0.1245117188,       47.6074218750,      -20.6451416016,      135.9405517578
1488506003.4080379009,1488506003.4104599953,        0.7172851562,        0.2875976562,       -0.1245117188,       47.6074218750,      -20.6451416016,      135.1776123047
1488506003.4107520580,1488506003.4131109715,        0.7172851562,        0.2875976562,       -0.1245117188,       49.4384765625,      -20.9045410156,      135.1776123047
1488506003.4133970737,1488506003.4156908989,        0.7172851562,        0.2807617188,       -0.1147460938,       49.4384765625,      -20.9045410156,      135.1776123047
1488506003.4159760475,1488506003.4182729721,        0.7133789062,        0.2807617188,       -0.1147460938,       49.8962402344,      -20.8892822266,      134.7961425781
1488506003.4185578823,1488506003.4208490849,        0.7133789062,        0.2807617188,       -0.1147460938,       49.8962402344,      -20.8892822266,      134.7961425781
1488506003.4211339951,1488506003.4234690666,        0.7133789062,        0.2807617188,       -0.1147460938,       51.2084960938,      -21.6064453125,      133.1939697266
1488506003.4237539768,1488506003.4260530472,        0.7255859375,        0.2412109375,       -0.1459960938,       51.2084960938,      -21.6064453125,      133.1939697266
1488506003.4263360500,1488506003.4286301136,        0.7255859375,        0.2412109375,       -0.1459960938,       54.1839599609,      -22.1862792969,      130.8288574219
1488506003.4289140701,1488506003.4312150478,        0.7255859375,        0.2412109375,       -0.1459960938,       54.1839599609,      -22.1862792969,      130.8288574219
1488506003.4314999580,1488506003.4339470863,        0.7255859375,        0.2412109375,       -0.1459960938,       57.1594238281,      -22.6440429688,      129.1809082031
1488506003.4342319965,1488506003.4365279675,        0.7387695312,        0.2226562500,       -0.1469726562,       57.1594238281,      -22.6440429688,      129.1809082031
1488506003.4368131161,1488506003.4391109943,        0.7387695312,        0.2226562500,       -0.1469726562,       58.0902099609,      -22.5524902344,      128.3416748047
1488506003.4393959045,1488506003.4418289661,        0.7387695312,        0.2226562500,       -0.1469726562,       58.0902099609,      -22.5524902344,      128.3416748047
1488506003.4421210289,1488506003.4445428848,        0.7387695312,        0.2226562500,       -0.1469726562,       59.4024658203,      -22.2625732422,      127.5024414062
1488506003.4448349476,1488506003.4472498894,        0.7343750000,        0.2109375000,       -0.1611328125,       59.4024658203,      -22.2625732422,      127.5024414062
1488506003.4475429058,1488506003.4499580860,        0.7343750000,        0.2109375000,       -0.1611328125,       61.6760253906,      -22.5677490234,      126.2207031250
1488506003.4502489567,1488506003.4527089596,        0.7343750000,        0.2109375000,       -0.1611328125,       61.6760253906,      -22.5677490234,      126.2207031250
1488506003.4530010223,1488506003.4554140568,        0.7343750000,        0.2109375000,       -0.1606445312,       64.7125244141,      -22.8576660156,      125.0305175781
1488506003.4557080269,1488506003.4581251144,        0.7353515625,        0.1928710938,       -0.1606445312,       64.7125244141,      -22.8576660156,      125.0305175781
1488506003.4584159851,1488506003.4608368874,        0.7353515625,        0.1928710938,       -0.1606445312,       67.9168701172,      -22.2015380859,      123.9013671875
1488506003.4612369537,1488506003.4636011124,        0.7353515625,        0.1928710938,       -0.1606445312,       67.9168701172,      -22.2015380859,      123.9013671875
1488506003.4638850689,1488506003.4661860466,        0.7353515625,        0.2138671875,       -0.1459960938,       69.9615478516,      -21.3928222656,      122.7264404297
1488506003.4664700031,1488506003.4687640667,        0.7216796875,        0.2138671875,       -0.1459960938,       69.9615478516,      -21.3928222656,      122.7264404297
1488506003.4690480232,1488506003.4713430405,        0.7216796875,        0.2138671875,       -0.1459960938,       70.5108642578,      -21.0876464844,      122.1923828125
1488506003.4716289043,1488506003.4740529060,        0.7216796875,        0.2138671875,       -0.1459960938,       70.5108642578,      -21.0876464844,      122.1923828125
1488506003.4743449688,1488506003.4767599106,        0.7094726562,        0.2124023438,       -0.1416015625,       69.2749023438,      -20.8282470703,      121.6430664062
1488506003.4770541191,1488506003.4794669151,        0.7094726562,        0.2124023438,       -0.1416015625,       69.2749023438,      -20.8282470703,      121.6430664062
1488506003.4797589779,1488506003.4821929932,        0.7094726562,        0.2124023438,       -0.1416015625,       68.1457519531,      -19.8669433594,      121.6735839844
1488506003.4824850559,1488506003.4848990440,        0.7094726562,        0.2124023438,       -0.1416015625,       68.1457519531,      -19.8669433594,      121.6735839844
1488506003.4851920605,1488506003.4876120090,        0.7041015625,        0.1684570312,       -0.1479492188,       67.2760009766,      -19.5007324219,      121.3836669922
1488506003.4879050255,1488506003.4903199673,        0.7041015625,        0.1684570312,       -0.1479492188,       67.2760009766,      -19.5007324219,      121.3836669922
1488506003.4906098843,1488506003.4929831028,        0.7041015625,        0.1684570312,       -0.1479492188,       67.0013427734,      -19.1802978516,      121.5362548828
1488506003.4932689667,1488506003.4955699444,        0.7041015625,        0.1684570312,       -0.1479492188,       67.0013427734,      -19.1802978516,      121.5362548828
1488506003.4958550930,1488506003.4982199669,        0.7163085938,        0.1337890625,       -0.1513671875,       67.0013427734,      -18.1427001953,      121.8109130859
1488506003.4985070229,1488506003.5008049011,        0.7163085938,        0.1337890625,       -0.1513671875,       67.1844482422,      -18.1427001953,      121.8109130859
1488506003.5010900497,1488506003.5038409233,        0.7163085938,        0.1337890625,       -0.1513671875,       67.5811767578,      -17.4560546875,      121.5972900391
1488506003.5041289330,1488506003.5064120293,        0.7163085938,        0.1181640625,       -0.1621093750,       67.5811767578,      -17.4560546875,      121.5972900391
1488506003.5066978931,1488506003.5089859962,        0.7177734375,        0.1181640625,       -0.1621093750,       67.5811767578,      -17.1508789062,      121.2615966797
1488506003.5092720985,1488506003.5115580559,        0.7177734375,        0.1181640625,       -0.1621093750,       67.5811767578,      -17.1508789062,      121.2615966797
1488506003.5118420124,1488506003.5141420364,        0.7177734375,        0.1181640625,       -0.1621093750,       67.5811767578,      -17.1508789062,      121.2615966797
1488506003.5144290924,1488506003.5167210102,        0.7177734375,        0.1220703125,       -0.1601562500,       66.8487548828,      -16.0827636719,      121.2615966797
1488506003.5170059204,1488506003.5192949772,        0.7290039062,        0.1220703125,       -0.1601562500,       66.8487548828,      -16.0827636719,      121.3989257812
1488506003.5195810795,1488506003.5219221115,        0.7290039062,        0.1220703125,       -0.1601562500,       65.5517578125,      -15.4876708984,      121.3989257812
1488506003.5222070217,1488506003.5244948864,        0.7290039062,        0.1220703125,       -0.1601562500,       65.5517578125,      -15.4876708984,      121.3989257812
1488506003.5248889923,1488506003.5271809101,        0.7377929688,        0.0917968750,       -0.1416015625,       64.7430419922,      -14.4042968750,      121.5667724609
1488506003.5274679661,1488506003.5297620296,        0.7377929688,        0.0917968750,       -0.1416015625,       64.7430419922,      -14.4042968750,      121.5667724609
1488506003.5300459862,1488506003.5323419571,        0.7377929688,        0.0917968750,       -0.1416015625,       64.0563964844,      -13.9617919922,      120.9411621094
1488506003.5326309204,1488506003.5349249840,        0.7377929688,        0.0917968750,       -0.1416015625,       64.0563964844,      -13.9617919922,      120.9411621094
1488506003.5352129936,1488506003.5375010967,        0.7465820312,        0.0708007812,       -0.1406250000,       63.8122558594,      -13.2446289062,      119.6441650391
1488506003.5377850533,1488506003.5400779247,        0.7465820312,        0.0708007812,       -0.1406250000,       63.8122558594,      -13.2446289062,      119.6441650391
1488506003.5403630733,1488506003.5427160263,        0.7465820312,        0.0708007812,       -0.1406250000,       63.8580322266,      -12.5427246094,      118.4234619141
1488506003.5429999828,1488506003.5452909470,        0.7465820312,        0.0708007812,       -0.1406250000,       63.8580322266,      -12.5427246094,      118.4234619141
1488506003.5455749035,1488506003.5478639603,        0.7553710938,        0.0566406250,       -0.1479492188,       63.7207031250,      -11.0168457031,      117.3553466797
1488506003.5481491089,1488506003.5504450798,        0.7553710938,        0.0566406250,       -0.1479492188,       63.7207031250,      -11.0168457031,      117.3553466797
1488506003.5507299900,1488506003.5531749725,        0.7553710938,        0.0566406250,       -0.1479492188,       63.0645751953,       -9.9334716797,      116.0278320312
1488506003.5534579754,1488506003.5557510853,        0.7553710938,        0.0566406250,       -0.1479492188,       63.0645751953,       -9.9334716797,      116.0278320312
1488506003.5560340881,1488506003.5583190918,        0.7495117188,        0.0297851562,       -0.1391601562,       62.6220703125,       -8.6212158203,      115.2038574219
1488506003.5586030483,1488506003.5608849525,        0.7495117188,        0.0297851562,       -0.1391601562,       62.6220703125,       -8.6212158203,      115.2038574219
1488506003.5611689091,1488506003.5636680126,        0.7495117188,        0.0297851562,       -0.1391601562,       63.1103515625,       -7.1563720703,      113.7847900391
1488506003.5639500618,1488506003.5662350655,        0.7495117188,        0.0297851562,       -0.1391601562,       63.1103515625,       -7.1563720703,      113.7847900391
1488506003.5665171146,1488506003.5688059330,        0.7539062500,        0.0444335938,       -0.1503906250,       63.1103515625,       -6.0424804688,      112.0300292969
1488506003.5690879822,1488506003.5713860989,        0.7539062500,        0.0444335938,       -0.1503906250,       63.1408691406,       -6.0424804688,      112.0300292969
1488506003.5717079639,1488506003.5739951134,        0.7539062500,        0.0444335938,       -0.1503906250,       63.1408691406,       -6.0424804688,      110.6719970703
1488506003.5742769241,1488506003.5765700340,        0.7539062500,        0.0444335938,       -0.1606445312,       62.9577636719,       -5.0506591797,      110.6719970703
1488506003.5768520832,1488506003.5791349411,        0.7563476562,        0.0620117188,       -0.1606445312,       62.9577636719,       -5.0506591797,      108.7951660156
1488506003.5794188976,1488506003.5817470551,        0.7563476562,        0.0620117188,       -0.1606445312,       61.8438720703,       -3.8299560547,      108.7951660156
1488506003.5820379257,1488506003.5844569206,        0.7563476562,        0.0620117188,       -0.1606445312,       61.8438720703,       -3.8299560547,      108.7951660156
1488506003.5847480297,1488506003.5871698856,        0.7563476562,        0.0620117188,       -0.1640625000,       62.4084472656,       -2.7160644531,      106.9183349609
1488506003.5875670910,1488506003.5899879932,        0.7465820312,        0.0771484375,       -0.1640625000,       62.4084472656,       -2.7160644531,      104.6752929688
1488506003.5902769566,1488506003.5927131176,        0.7465820312,        0.0771484375,       -0.1640625000,       62.9272460938,       -1.4190673828,      104.6752929688
1488506003.5930039883,1488506003.5954198837,        0.7465820312,        0.0771484375,       -0.1640625000,       62.9272460938,       -1.4190673828,      102.7374267578
1488506003.5957078934,1488506003.5981309414,        0.7407226562,        0.1035156250,       -0.1767578125,       62.9425048828,       -0.3662109375,      102.7374267578
1488506003.5984220505,1488506003.6008350849,        0.7407226562,        0.1035156250,       -0.1767578125,       62.9425048828,       -0.3662109375,       98.8311767578
1488506003.6011230946,1488506003.6034588814,        0.7407226562,        0.1035156250,       -0.1767578125,       61.4166259766,        0.6866455078,      100.7690429688
1488506003.6037399769,1488506003.6060349941,        0.7407226562,        0.1035156250,       -0.1767578125,       61.4166259766,        0.6866455078,      100.7690429688
1488506003.6063170433,1488506003.6086070538,        0.7333984375,        0.0908203125,       -0.1850585938,       59.2193603516,        1.9073486328,       97.9461669922
1488506003.6088891029,1488506003.6111829281,        0.7333984375,        0.0908203125,       -0.1850585938,       59.2193603516,        1.9073486328,       97.9461669922
1488506003.6114649773,1488506003.6138169765,        0.7333984375,        0.0908203125,       -0.1850585938,       57.3120117188,        2.2125244141,       94.5892333984
1488506003.6140999794,1488506003.6163949966,        0.7333984375,        0.0908203125,       -0.1850585938,       57.3120117188,        2.2125244141,       94.5892333984
1488506003.6166779995,1488506003.6191029549,        0.7202148438,        0.0683593750,       -0.1879882812,       56.1981201172,        2.2888183594,       91.9036865234
1488506003.6193859577,1488506003.6221089363,        0.7202148438,        0.0683593750,       -0.1879882812,       56.1981201172,        2.2888183594,       91.9036865234
1488506003.6224009991,1488506003.6248180866,        0.7202148438,        0.0683593750,       -0.1879882812,       55.8013916016,        2.5329589844,       89.0502929688
1488506003.6251099110,1488506003.6276121140,        0.7202148438,        0.0683593750,       -0.1972656250,       55.8013916016,        2.5329589844,       89.0502929688
1488506003.6279020309,1488506003.6303060055,        0.6997070312,        0.0747070312,       -0.1972656250,       54.2449951172,        2.6092529297,       85.7849121094
1488506003.6305949688,1488506003.6330049038,        0.6997070312,        0.0747070312,       -0.1972656250,       54.2449951172,        2.6092529297,       85.7849121094
1488506003.6332950592,1488506003.6356790066,        0.6997070312,        0.0747070312,       -0.1972656250,       52.6733398438,        2.6702880859,       82.6416015625
1488506003.6359660625,1488506003.6384410858,        0.6694335938,        0.0927734375,       -0.2011718750,       52.6733398438,        2.6702880859,       82.6416015625
1488506003.6387319565,1488506003.6411459446,        0.6694335938,        0.0927734375,       -0.2011718750,       51.0101318359,        2.2277832031,       79.0863037109
1488506003.6414349079,1488506003.6438601017,        0.6694335938,        0.0927734375,       -0.2011718750,       51.0101318359,        2.2277832031,       79.0863037109
1488506003.6441481113,1488506003.6465280056,        0.6694335938,        0.0927734375,       -0.2011718750,       48.4008789062,        1.7089843750,       75.6072998047
1488506003.6468150616,1488506003.6497600079,        0.6435546875,        0.1025390625,       -0.2031250000,       48.4008789062,        1.7089843750,       71.7010498047
1488506003.6507339478,1488506003.6530919075,        0.6435546875,        0.1025390625,       -0.2031250000,       46.5240478516,        1.6174316406,       72.0214843750
1488506003.6534869671,1488506003.6557838917,        0.6435546875,        0.1025390625,       -0.2031250000,       46.5240478516,        1.1444091797,       68.1915283203
1488506003.6560680866,1488506003.6583540440,        0.6196289062,        0.1142578125,       -0.1933593750,       43.6096191406,        1.1444091797,       68.1915283203
1488506003.6586380005,1488506003.6609239578,        0.6196289062,        0.1142578125,       -0.1933593750,       43.6096191406,        1.1444091797,       64.5599365234
1488506003.6612069607,1488506003.6634991169,        0.6196289062,        0.1142578125,       -0.1933593750,       40.0543212891,       -0.0915527344,       64.5599365234
1488506003.6637840271,1488506003.6660709381,        0.6196289062,        0.1142578125,       -0.1933593750,       40.0543212891,       -0.0915527344,       60.6536865234
1488506003.6663529873,1488506003.6686460972,        0.6108398438,        0.1157226562,       -0.2124023438,       36.1633300781,       -1.7242431641,       60.4400634766
1488506003.6689260006,1488506003.6712169647,        0.6108398438,        0.1157226562,       -0.2124023438,       36.1633300781,       -1.7242431641,       60.4400634766
1488506003.6714980602,1488506003.6738359928,        0.6108398438,        0.1157226562,       -0.2124023438,       33.3099365234,       -3.0975341797,       56.0913085938
1488506003.6741180420,1488506003.6764090061,        0.6108398438,        0.1157226562,       -0.2124023438,       33.3099365234,       -3.0975341797,       56.0913085938
1488506003.6766910553,1488506003.6789789200,        0.5869140625,        0.1225585938,       -0.2021484375,       31.7687988281,       -4.6691894531,       51.8341064453
1488506003.6792609692,1488506003.6815519333,        0.5869140625,        0.1225585938,       -0.2021484375,       31.7687988281,       -4.6691894531,       51.8341064453
1488506003.6818320751,1488506003.6841230392,        0.5869140625,        0.1225585938,       -0.2021484375,       29.5104980469,       -5.7220458984,       47.2869873047
1488506003.6844050884,1488506003.6867001057,        0.5869140625,        0.1225585938,       -0.2021484375,       29.5104980469,       -5.7220458984,       47.2869873047
1488506003.6869819164,1488506003.6892659664,        0.5615234375,        0.1342773438,       -0.2050781250,       26.6418457031,       -7.3242187500,       42.3736572266
1488506003.6895489693,1488506003.6920208931,        0.5615234375,        0.1342773438,       -0.2050781250,       26.6418457031,       -7.3242187500,       42.3736572266
1488506003.6923029423,1488506003.6946001053,        0.5615234375,        0.1342773438,       -0.2050781250,       23.7884521484,       -9.3841552734,       37.6281738281
1488506003.6948809624,1488506003.6971809864,        0.5615234375,        0.1342773438,       -0.2050781250,       23.7884521484,       -9.3841552734,       37.6281738281
1488506003.6974608898,1488506003.6997559071,        0.5527343750,        0.1665039062,       -0.2089843750,       20.2636718750,      -11.1999511719,       32.9589843750
1488506003.7000389099,1488506003.7024619579,        0.5527343750,        0.1665039062,       -0.2089843750,       20.2636718750,      -11.1999511719,       32.9589843750
1488506003.7027530670,1488506003.7051720619,        0.5527343750,        0.1665039062,       -0.2089843750,       16.9372558594,      -12.0849609375,       27.8320312500
1488506003.7054660320,1488506003.7078840733,        0.5527343750,        0.1665039062,       -0.2089843750,       16.9372558594,      -12.0849609375,       27.8320312500
1488506003.7081770897,1488506003.7105960846,        0.5527343750,        0.1782226562,       -0.2075195312,       14.1754150391,      -12.1917724609,       22.5982666016
1488506003.7108900547,1488506003.7132360935,        0.5527343750,        0.1782226562,       -0.2075195312,       14.1754150391,      -12.1917724609,       22.5982666016
1488506003.7135190964,1488506003.7158150673,        0.5527343750,        0.1782226562,       -0.2075195312,       14.1754150391,      -13.1530761719,       16.7083740234
1488506003.7162060738,1488506003.7185039520,        0.5527343750,        0.1762695312,       -0.1860351562,       11.8560791016,      -13.1530761719,       16.7083740234
1488506003.7187891006,1488506003.7210819721,        0.5795898438,        0.1762695312,       -0.1860351562,       11.8560791016,      -13.1530761719,        9.8419189453
1488506003.7213621140,1488506003.7237749100,        0.5795898438,        0.1762695312,       -0.1860351562,       11.4593505859,      -13.9923095703,        9.8419189453
1488506003.7240660191,1488506003.7264831066,        0.5795898438,        0.1762695312,       -0.1860351562,       11.4593505859,      -13.9923095703,        2.9907226562
1488506003.7267711163,1488506003.7291851044,        0.6088867188,        0.1850585938,       -0.1865234375,       11.7187500000,      -13.7481689453,        2.9907226562
1488506003.7294719219,1488506003.7318971157,        0.6088867188,        0.1850585938,       -0.1865234375,       11.7187500000,      -13.7481689453,       -3.6315917969
1488506003.7321839333,1488506003.7346069813,        0.6088867188,        0.1850585938,       -0.1865234375,       12.1002197266,      -12.8173828125,       -3.6315917969
1488506003.7348949909,1488506003.7373120785,        0.6088867188,        0.1850585938,       -0.1865234375,       12.1002197266,       -8.9111328125,      -11.3067626953
1488506003.7376019955,1488506003.7400200367,        0.6230468750,        0.1845703125,       -0.1547851562,       12.9699707031,      -11.5966796875,      -11.3067626953
1488506003.7403120995,1488506003.7427380085,        0.6230468750,        0.1845703125,       -0.1547851562,       12.9699707031,      -11.5966796875,      -18.4631347656
1488506003.7430291176,1488506003.7454481125,        0.6230468750,        0.1845703125,       -0.1547851562,       14.2059326172,      -10.3912353516,      -18.4631347656
1488506003.7457399368,1488506003.7481570244,        0.6230468750,        0.1845703125,       -0.1547851562,       14.2059326172,      -10.3912353516,      -25.6500244141
1488506003.7484490871,1488506003.7508609295,        0.6240234375,        0.1879882812,       -0.1308593750,       15.9301757812,       -9.0789794922,      -25.6500244141
1488506003.7511510849,1488506003.7535839081,        0.6240234375,        0.1879882812,       -0.1308593750,       15.9301757812,       -9.0789794922,      -32.5012207031
1488506003.7538731098,1488506003.7562899590,        0.6240234375,        0.1879882812,       -0.1308593750,       16.9677734375,       -7.8277587891,      -32.5012207031
1488506003.7565789223,1488506003.7592029572,        0.6240234375,        0.2294921875,       -0.1337890625,       16.9677734375,       -3.9215087891,      -39.4897460938
1488506003.7594919205,1488506003.7619030476,        0.6079101562,        0.2294921875,       -0.1337890625,       16.5252685547,       -6.5612792969,      -39.4897460938
1488506003.7625670433,1488506003.7648611069,        0.6079101562,        0.2294921875,       -0.1337890625,       12.6190185547,       -5.2490234375,      -46.2646484375
1488506003.7651441097,1488506003.7674410343,        0.6079101562,        0.2294921875,       -0.1337890625,       14.9688720703,       -5.2490234375,      -46.2646484375
1488506003.7677209377,1488506003.7700130939,        0.5971679688,        0.2373046875,       -0.1586914062,       14.9688720703,       -5.2490234375,      -52.5665283203
1488506003.7702939510,1488506003.7726459503,        0.5971679688,        0.2373046875,       -0.1586914062,       13.5498046875,       -4.6539306641,      -52.5665283203
1488506003.7729349136,1488506003.7753529549,        0.5971679688,        0.2373046875,       -0.1586914062,       13.5498046875,       -4.6539306641,      -58.6395263672
1488506003.7756409645,1488506003.7780559063,        0.5971679688,        0.2373046875,       -0.1586914062,       13.0310058594,       -4.9438476562,      -58.6395263672
1488506003.7783451080,1488506003.7807641029,        0.5976562500,        0.2524414062,       -0.2211914062,       13.0310058594,       -4.9438476562,      -64.5751953125
1488506003.7811601162,1488506003.7835819721,        0.5976562500,        0.2524414062,       -0.2211914062,       13.0310058594,       -5.8898925781,      -64.5751953125
1488506003.7838718891,1488506003.7862880230,        0.5976562500,        0.2524414062,       -0.2211914062,       13.0310058594,       -9.7961425781,      -65.2313232422
1488506003.7865769863,1488506003.7889959812,        0.5976562500,        0.2524414062,       -0.3867187500,       13.9160156250,       -9.1400146484,      -65.2313232422
1488506003.7892858982,1488506003.7917139530,        0.7216796875,        0.1689453125,       -0.3867187500,       13.9160156250,      -13.0462646484,      -74.4018554688
1488506003.7919979095,1488506003.7942860126,        0.7216796875,        0.1689453125,       -0.3867187500,       17.3797607422,      -13.4277343750,      -74.4018554688
1488506003.7945699692,1488506003.7968630791,        0.7216796875,        0.1689453125,       -0.3867187500,       17.3797607422,      -13.4277343750,      -83.5723876953
1488506003.7971448898,1488506003.7994389534,        0.7216796875,        0.2202148438,       -0.3115234375,       10.7879638672,      -12.2833251953,      -83.5723876953
1488506003.7997210026,1488506003.8020238876,        0.5625000000,        0.2202148438,       -0.3115234375,       10.7879638672,      -12.2833251953,      -83.5723876953
1488506003.8023090363,1488506003.8046030998,        0.5625000000,        0.2202148438,       -0.3115234375,        0.1831054688,       -8.1176757812,      -83.8775634766
1488506003.8048820496,1488506003.8071730137,        0.5625000000,        0.2202148438,       -0.3115234375,        0.1831054688,       -8.1176757812,      -83.8775634766
1488506003.8074519634,1488506003.8097469807,        0.6875000000,       -0.2416992188,       -0.1118164062,       -6.4544677734,       -2.6702880859,      -80.8868408203
1488506003.8100268841,1488506003.8124101162,        0.7480468750,       -0.2416992188,       -0.1118164062,       -6.4544677734,       -2.6702880859,      -80.8868408203
1488506003.8126909733,1488506003.8149809837,        0.7480468750,       -0.2416992188,       -0.1118164062,       -9.7656250000,        2.1514892578,      -79.3762207031
1488506003.8152599335,1488506003.8175590038,        0.7480468750,       -0.2416992188,       -0.1118164062,       -9.7656250000,        2.1514892578,      -79.3762207031
1488506003.8178379536,1488506003.8201360703,        0.8315429688,       -0.6972656250,        0.0859375000,       -4.7454833984,        3.8757324219,      -78.9947509766
1488506003.8204140663,1488506003.8228530884,        0.8315429688,       -0.6972656250,        0.0859375000,       -4.7454833984,        3.8757324219,      -78.9947509766
1488506003.8231389523,1488506003.8255410194,        0.8315429688,       -0.6972656250,        0.0859375000,       10.8337402344,        1.3427734375,      -83.3587646484
1488506003.8258290291,1488506003.8282310963,        0.8315429688,       -0.6972656250,        0.0859375000,       10.8337402344,        1.3427734375,      -83.3587646484
1488506003.8285179138,1488506003.8309218884,        0.7255859375,       -0.7148437500,        0.0126953125,       30.7922363281,       -3.9367675781,      -88.6688232422
1488506003.8312129974,1488506003.8336150646,        0.7255859375,       -0.7148437500,        0.0126953125,       30.7922363281,       -3.9367675781,      -88.6688232422
1488506003.8339040279,1488506003.8363039494,        0.7255859375,       -0.7148437500,        0.0126953125,       45.5932617188,       -8.3312988281,      -92.9718017578
1488506003.8365910053,1488506003.8389880657,        0.7255859375,       -0.7148437500,        0.0126953125,       45.5932617188,       -8.3312988281,      -92.9718017578
1488506003.8392748833,1488506003.8417079449,        0.6816406250,       -0.2602539062,       -0.1352539062,       49.8657226562,       -9.2468261719,      -97.1832275391
1488506003.8419969082,1488506003.8443999290,        0.6816406250,       -0.2602539062,       -0.1352539062,       49.8657226562,       -9.2468261719,      -97.1832275391
1488506003.8446900845,1488506003.8470931053,        0.6816406250,       -0.2602539062,       -0.1352539062,       44.0826416016,       -7.9498291016,     -101.3793945312
1488506003.8474891186,1488506003.8498930931,        0.6816406250,        0.0751953125,       -0.1850585938,       44.0826416016,       -7.9498291016,     -101.3793945312
1488506003.8501811028,1488506003.8525600433,        0.7597656250,        0.0751953125,       -0.1850585938,       33.9202880859,       -6.2713623047,     -102.7832031250
1488506003.8528420925,1488506003.8551321030,        0.7597656250,        0.0751953125,       -0.1850585938,       33.9202880859,       -6.2713623047,     -102.7832031250
1488506003.8554151058,1488506003.8577129841,        0.7597656250,        0.0751953125,       -0.1850585938,       25.1617431641,       -6.5155029297,     -100.5249023438
1488506003.8579959869,1488506003.8602919579,        0.6347656250,        0.0537109375,       -0.1494140625,       25.1617431641,       -6.5155029297,     -100.5249023438
1488506003.8605749607,1488506003.8630108833,        0.7343750000,        0.0537109375,       -0.1494140625,       19.9584960938,       -7.5073242188,     -100.4638671875
1488506003.8633038998,1488506003.8657169342,        0.7343750000,        0.0537109375,       -0.1494140625,       19.9584960938,       -7.5073242188,     -100.4638671875
1488506003.8660058975,1488506003.8684220314,        0.7343750000,        0.0537109375,       -0.1494140625,       16.0522460938,      -10.2233886719,     -100.3570556641
1488506003.8687140942,1488506003.8711318970,        0.6713867188,        0.0117187500,       -0.0722656250,       16.6931152344,      -10.2233886719,     -100.3570556641
1488506003.8714249134,1488506003.8738520145,        0.6713867188,        0.0117187500,       -0.0722656250,       12.7868652344,      -11.6424560547,      -97.6715087891
1488506003.8741459846,1488506003.8765649796,        0.6713867188,        0.0117187500,       -0.0722656250,       13.8397216797,      -11.6424560547,      -97.6715087891
1488506003.8768579960,1488506003.8794209957,        0.6713867188,        0.0117187500,       -0.0722656250,       10.9252929688,      -12.2680664062,      -94.6350097656
1488506003.8797159195,1488506003.8821280003,        0.6479492188,        0.0034179688,        0.0097656250,       10.9252929688,      -12.2680664062,      -94.6350097656
1488506003.8828520775,1488506003.8852720261,        0.6479492188,        0.0034179688,        0.0097656250,        8.6517333984,      -14.1448974609,      -90.5761718750
1488506003.8855640888,1488506003.8879849911,        0.6479492188,        0.0034179688,        0.0097656250,        8.6517333984,      -14.1448974609,      -90.5761718750
1488506003.8882761002,1488506003.8906929493,        0.5229492188,        0.0058593750,        0.0229492188,        7.9040527344,      -15.8233642578,      -86.6851806641
1488506003.8909840584,1488506003.8933320045,        0.6157226562,        0.0058593750,        0.0229492188,        7.9040527344,      -15.8233642578,      -86.6851806641
1488506003.8936140537,1488506003.8959100246,        0.6157226562,        0.0058593750,        0.0229492188,        6.4239501953,      -17.6849365234,      -83.4655761719
1488506003.8961930275,1488506003.8984830379,        0.6157226562,        0.0058593750,        0.0229492188,        6.4239501953,      -17.6849365234,      -83.4655761719
1488506003.8987629414,1488506003.9010519981,        0.5874023438,        0.0336914062,       -0.0043945312,        4.5928955078,      -18.9208984375,      -79.8339843750
1488506003.9013350010,1488506003.9036560059,        0.5874023438,        0.0336914062,       -0.0043945312,        4.5928955078,      -18.9208984375,      -79.8339843750
1488506003.9039409161,1488506003.9062321186,        0.5874023438,        0.0336914062,       -0.0043945312,        4.5928955078,      -19.1955566406,      -75.9887695312
1488506003.9065139294,1488506003.9088020325,        0.5874023438,        0.0336914062,       -0.0043945312,        3.1127929688,      -19.1955566406,      -75.9887695312
1488506003.9090828896,1488506003.9113729000,        0.5913085938,        0.0366210938,       -0.0571289062,        3.1127929688,      -19.1955566406,      -72.1740722656
1488506003.9118359089,1488506003.9141330719,        0.5913085938,        0.0366210938,       -0.0571289062,        2.8839111328,      -18.8140869141,      -72.1740722656
1488506003.9144170284,1488506003.9167029858,        0.5913085938,        0.0366210938,       -0.0571289062,        2.8839111328,      -18.8140869141,      -70.5413818359
1488506003.9169840813,1488506003.9192719460,        0.5913085938,        0.0366210938,       -0.0571289062,        3.4637451172,      -18.7072753906,      -70.5413818359
1488506003.9195530415,1488506003.9219000340,        0.6069335938,        0.0244140625,       -0.1596679688,        3.4637451172,      -18.7072753906,      -66.6351318359
1488506003.9221808910,1488506003.9244709015,        0.6069335938,        0.0244140625,       -0.1596679688,        4.4860839844,      -19.5007324219,      -68.2220458984
1488506003.9247519970,1488506003.9270401001,        0.6069335938,        0.0244140625,       -0.1596679688,        4.4860839844,      -19.5007324219,      -68.2220458984
