time_stamp before, time_stamp after, Acceleration x, Acceleration y, Acceleration z, Gyro x, Gyro y, Gyro z
1488505800.9765810966,1488505800.9854490757,        0.6840820312,        0.0419921875,       -0.1464843750,       36.0717773438,        0.0762939453,       78.7048339844
1488505800.9857668877,1488505800.9885759354,        0.6840820312,        0.0419921875,       -0.1464843750,       36.0717773438,        0.0762939453,       78.7048339844
1488505800.9888789654,1488505800.9911639690,        0.6777343750,        0.0522460938,       -0.1596679688,       35.1562500000,        0.3967285156,       77.5756835938
1488505800.9914450645,1488505800.9937820435,        0.6777343750,        0.0522460938,       -0.1596679688,       35.1562500000,        0.3967285156,       77.5756835938
1488505800.9940609932,1488505800.9963510036,        0.6777343750,        0.0522460938,       -0.1596679688,       33.9965820312,        0.9307861328,       75.6072998047
1488505800.9966299534,1488505800.9989130497,        0.6777343750,        0.0522460938,       -0.1596679688,       33.9965820312,        0.9307861328,       75.6072998047
1488505800.9992120266,1488505801.0020179749,        0.6831054688,        0.0737304688,       -0.1572265625,       33.1573486328,        1.4495849609,       73.7609863281
1488505801.0023019314,1488505801.0045890808,        0.6831054688,        0.0737304688,       -0.1572265625,       33.1573486328,        1.4495849609,       73.7609863281
1488505801.0048720837,1488505801.0071530342,        0.6831054688,        0.0737304688,       -0.1572265625,       32.9895019531,        1.3580322266,       72.1435546875
1488505801.0074350834,1488505801.0097239017,        0.6831054688,        0.0737304688,       -0.1572265625,       32.9895019531,        1.3580322266,       72.1435546875
1488505801.0100030899,1488505801.0123350620,        0.6791992188,        0.0751953125,       -0.1582031250,       32.1807861328,        1.7089843750,       70.5261230469
1488505801.0126149654,1488505801.0149021149,        0.6791992188,        0.0751953125,       -0.1582031250,       32.1807861328,        1.7089843750,       70.5261230469
1488505801.0151801109,1488505801.0174729824,        0.6791992188,        0.0751953125,       -0.1582031250,       30.7312011719,        2.0904541016,       67.6727294922
1488505801.0177528858,1488505801.0200340748,        0.6791992188,        0.0751953125,       -0.1582031250,       30.7312011719,        2.0904541016,       67.6727294922
1488505801.0203120708,1488505801.0226581097,        0.6762695312,        0.0859375000,       -0.1665039062,       28.2287597656,        2.2125244141,       65.3381347656
1488505801.0229721069,1488505801.0252740383,        0.6762695312,        0.0859375000,       -0.1665039062,       28.2287597656,        2.2125244141,       65.3381347656
1488505801.0255570412,1488505801.0278449059,        0.6762695312,        0.0859375000,       -0.1665039062,       25.8941650391,        1.9378662109,       64.0411376953
1488505801.0281279087,1488505801.0304179192,        0.6762695312,        0.0859375000,       -0.1665039062,       25.8941650391,        1.9378662109,       64.0411376953
1488505801.0307009220,1488505801.0330400467,        0.6513671875,        0.0634765625,       -0.1591796875,       21.9879150391,        1.5869140625,       62.1337890625
1488505801.0333230495,1488505801.0356109142,        0.6513671875,        0.0634765625,       -0.1591796875,       22.5219726562,        1.5869140625,       62.1337890625
1488505801.0358920097,1488505801.0381820202,        0.6513671875,        0.0634765625,       -0.1591796875,       22.5219726562,        1.5869140625,       60.6384277344
1488505801.0384650230,1488505801.0407540798,        0.6513671875,        0.0634765625,       -0.1660156250,       20.4467773438,        1.3732910156,       60.6384277344
1488505801.0410370827,1488505801.0434119701,        0.6459960938,        0.0434570312,       -0.1660156250,       20.4467773438,        1.3732910156,       58.3801269531
1488505801.0436971188,1488505801.0459840298,        0.6459960938,        0.0434570312,       -0.1660156250,       18.2800292969,        1.0833740234,       58.3801269531
1488505801.0464179516,1488505801.0487120152,        0.6459960938,        0.0434570312,       -0.1660156250,       18.2800292969,        1.0833740234,       58.3801269531
1488505801.0489940643,1488505801.0512869358,        0.6459960938,        0.0463867188,       -0.1855468750,       16.3116455078,        0.3814697266,       55.7861328125
1488505801.0515689850,1488505801.0551989079,        0.6250000000,        0.0463867188,       -0.1855468750,       16.3116455078,       -0.1220703125,       53.3142089844
1488505801.0555200577,1488505801.0585319996,        0.6250000000,        0.0463867188,       -0.1855468750,       14.5111083984,       -0.1220703125,       53.3142089844
1488505801.0588340759,1488505801.0612580776,        0.6250000000,        0.0463867188,       -0.1713867188,       12.2833251953,       -0.2288818359,       50.1403808594
1488505801.0615510941,1488505801.0638680458,        0.6269531250,        0.0585937500,       -0.1713867188,       12.2833251953,       -0.2288818359,       50.1403808594
1488505801.0641520023,1488505801.0664451122,        0.6269531250,        0.0585937500,       -0.1713867188,        9.2620849609,       -0.8239746094,       47.5616455078
1488505801.0667240620,1488505801.0690159798,        0.6269531250,        0.0585937500,       -0.1713867188,        9.2620849609,       -0.8239746094,       47.5616455078
1488505801.0692949295,1488505801.0715899467,        0.5019531250,        0.0649414062,       -0.1625976562,        6.6070556641,       -1.5106201172,       44.6929931641
1488505801.0719439983,1488505801.0743639469,        0.6083984375,        0.0649414062,       -0.1625976562,        6.6070556641,       -1.5106201172,       44.6929931641
1488505801.0746500492,1488505801.0770659447,        0.6083984375,        0.0649414062,       -0.1625976562,        4.2419433594,       -1.8920898438,       42.1295166016
1488505801.0773510933,1488505801.0797660351,        0.6083984375,        0.0649414062,       -0.1625976562,        4.2419433594,       -1.8920898438,       42.1295166016
1488505801.0800518990,1488505801.0824780464,        0.5996093750,        0.0747070312,       -0.1845703125,        1.6326904297,       -2.5024414062,       39.3066406250
1488505801.0827569962,1488505801.0850410461,        0.5996093750,        0.0747070312,       -0.1845703125,        1.6326904297,       -2.5024414062,       39.3066406250
1488505801.0853190422,1488505801.0876169205,        0.5996093750,        0.0747070312,       -0.1845703125,       -2.2735595703,       -3.2196044922,       36.2854003906
1488505801.0878939629,1488505801.0901899338,        0.5996093750,        0.0747070312,       -0.1845703125,       -0.1373291016,       -3.2196044922,       36.2854003906
1488505801.0904710293,1488505801.0927879810,        0.5952148438,        0.0917968750,       -0.1767578125,       -0.1373291016,       -2.8533935547,       32.9132080078
1488505801.0930690765,1488505801.0953710079,        0.5952148438,        0.0917968750,       -0.1767578125,       -0.9918212891,       -2.8533935547,       32.9132080078
1488505801.0956490040,1488505801.0979449749,        0.5952148438,        0.0917968750,       -0.1767578125,       -0.9918212891,       -2.8533935547,       29.3426513672
1488505801.0982239246,1488505801.1005170345,        0.5952148438,        0.0917968750,       -0.1767578125,       -2.2125244141,       -3.5705566406,       29.3426513672
1488505801.1007959843,1488505801.1031160355,        0.5917968750,        0.1098632812,       -0.1811523438,       -2.2125244141,       -3.5705566406,       25.4364013672
1488505801.1033959389,1488505801.1056818962,        0.5917968750,        0.1098632812,       -0.1811523438,       -4.0435791016,       -4.6844482422,       25.8941650391
1488505801.1059598923,1488505801.1083390713,        0.5917968750,        0.1098632812,       -0.1811523438,       -4.0435791016,       -4.6844482422,       25.8941650391
1488505801.1086199284,1488505801.1109070778,        0.5917968750,        0.1098632812,       -0.1811523438,       -5.0811767578,       -5.6152343750,       22.0184326172
1488505801.1113359928,1488505801.1136760712,        0.5898437500,        0.1196289062,       -0.1728515625,       -5.0811767578,       -5.6152343750,       22.0184326172
1488505801.1139540672,1488505801.1162459850,        0.5898437500,        0.1196289062,       -0.1728515625,       -6.2561035156,       -6.3629150391,       18.4173583984
1488505801.1165239811,1488505801.1188130379,        0.5898437500,        0.1196289062,       -0.1728515625,       -6.2561035156,       -6.3629150391,       18.4173583984
1488505801.1190900803,1488505801.1213769913,        0.5898437500,        0.1196289062,       -0.1679687500,       -8.6975097656,       -6.6528320312,       14.8010253906
1488505801.1217019558,1488505801.1240260601,        0.5937500000,        0.0966796875,       -0.1679687500,       -8.6975097656,       -6.6528320312,       14.8010253906
1488505801.1243069172,1488505801.1265931129,        0.5937500000,        0.0966796875,       -0.1679687500,       -9.9334716797,       -7.1868896484,       11.4288330078
1488505801.1268711090,1488505801.1291570663,        0.5937500000,        0.0966796875,       -0.1679687500,       -9.9334716797,       -7.1868896484,       11.4288330078
1488505801.1294369698,1488505801.1317510605,        0.5937500000,        0.0966796875,       -0.1459960938,      -10.7421875000,       -7.4768066406,        7.7819824219
1488505801.1320309639,1488505801.1343150139,        0.5932617188,        0.0781250000,       -0.1459960938,      -10.7421875000,       -7.4768066406,        7.7819824219
1488505801.1345920563,1488505801.1368799210,        0.5932617188,        0.0781250000,       -0.1459960938,      -10.9100341797,       -7.4310302734,        3.7384033203
1488505801.1371579170,1488505801.1394410133,        0.5932617188,        0.0781250000,       -0.1459960938,      -10.9100341797,       -7.4310302734,        3.7384033203
1488505801.1397190094,1488505801.1420099735,        0.5932617188,        0.0781250000,       -0.1215820312,      -10.9100341797,       -6.8359375000,        0.2441406250
1488505801.1422889233,1488505801.1445820332,        0.5883789062,        0.0727539062,       -0.1215820312,      -11.2457275391,       -6.8359375000,        0.2441406250
1488505801.1448628902,1488505801.1471509933,        0.5883789062,        0.0727539062,       -0.1215820312,      -11.2457275391,       -6.8359375000,       -2.8381347656
1488505801.1474289894,1488505801.1497199535,        0.5883789062,        0.0727539062,       -0.1215820312,      -10.7421875000,       -6.4697265625,       -2.8381347656
1488505801.1499969959,1488505801.1524291039,        0.5883789062,        0.0722656250,       -0.1215820312,      -10.7421875000,       -6.4697265625,       -6.5612792969
1488505801.1527080536,1488505801.1549990177,        0.5844726562,        0.0722656250,       -0.1215820312,      -11.4746093750,       -6.1645507812,       -6.5612792969
1488505801.1552789211,1488505801.1575729847,        0.5844726562,        0.0722656250,       -0.1215820312,      -11.4746093750,       -6.1645507812,      -10.4675292969
1488505801.1578559875,1488505801.1601450443,        0.5844726562,        0.0722656250,       -0.1215820312,      -11.4898681641,       -5.9661865234,      -10.0097656250
1488505801.1604270935,1488505801.1630840302,        0.5820312500,        0.0859375000,       -0.1215820312,      -11.4898681641,       -5.9661865234,      -13.4277343750
1488505801.1633679867,1488505801.1656689644,        0.5820312500,        0.0859375000,       -0.1215820312,      -11.0931396484,       -5.9814453125,      -13.4277343750
1488505801.1659500599,1488505801.1682429314,        0.5820312500,        0.0859375000,       -0.1215820312,      -11.0931396484,       -5.9814453125,      -13.4277343750
1488505801.1685249805,1488505801.1708230972,        0.5820312500,        0.0859375000,       -0.1215820312,      -11.3983154297,       -5.9509277344,      -16.8762207031
1488505801.1711049080,1488505801.1736381054,        0.5854492188,        0.0776367188,       -0.1220703125,      -11.3983154297,       -5.9509277344,      -16.8762207031
1488505801.1740400791,1488505801.1764240265,        0.5854492188,        0.0776367188,       -0.1220703125,      -11.1236572266,       -5.9356689453,      -20.0653076172
1488505801.1767129898,1488505801.1790819168,        0.5854492188,        0.0776367188,       -0.1220703125,      -11.1236572266,       -5.9356689453,      -20.0653076172
1488505801.1793689728,1488505801.1819629669,        0.5854492188,        0.0776367188,       -0.1220703125,      -10.3302001953,       -5.7067871094,      -23.2391357422
1488505801.1822650433,1488505801.1845669746,        0.5878906250,        0.0644531250,       -0.1323242188,      -10.3302001953,       -5.7067871094,      -23.2391357422
1488505801.1848540306,1488505801.1871418953,        0.5878906250,        0.0644531250,       -0.1323242188,       -8.8958740234,       -5.0201416016,      -26.1077880859
1488505801.1874210835,1488505801.1897099018,        0.5878906250,        0.0644531250,       -0.1323242188,       -8.8958740234,       -5.0201416016,      -26.1077880859
1488505801.1899890900,1488505801.1923539639,        0.5878906250,        0.0644531250,       -0.1381835938,       -7.3699951172,       -4.6386718750,      -28.9001464844
1488505801.1926341057,1488505801.1949191093,        0.5859375000,        0.0634765625,       -0.1381835938,       -7.3699951172,       -4.6386718750,      -28.9001464844
1488505801.1951990128,1488505801.1974899769,        0.5859375000,        0.0634765625,       -0.1381835938,       -5.4168701172,       -4.0283203125,      -31.9366455078
1488505801.1977660656,1488505801.2000529766,        0.5859375000,        0.0634765625,       -0.1381835938,       -5.4168701172,       -4.0283203125,      -31.9366455078
1488505801.2003319263,1488505801.2026760578,        0.5859375000,        0.0590820312,       -0.1362304688,       -3.1433105469,       -3.6163330078,      -34.5764160156
1488505801.2029559612,1488505801.2052500248,        0.5756835938,        0.0590820312,       -0.1362304688,       -3.1433105469,       -3.6163330078,      -34.5764160156
1488505801.2055280209,1488505801.2078158855,        0.5756835938,        0.0590820312,       -0.1362304688,       -1.9226074219,       -3.3111572266,      -37.1246337891
1488505801.2080938816,1488505801.2103869915,        0.5756835938,        0.0590820312,       -0.1362304688,       -1.9226074219,       -3.3111572266,      -37.1246337891
1488505801.2106649876,1488505801.2129681110,        0.5756835938,       -0.0717773438,       -0.2207031250,       -1.2207031250,       -5.0659179688,      -33.6914062500
1488505801.2132461071,1488505801.2155370712,        0.6987304688,       -0.0717773438,       -0.2207031250,       -1.2207031250,       -5.0659179688,      -33.6914062500
1488505801.2158160210,1488505801.2181100845,        0.6987304688,       -0.0717773438,       -0.2207031250,        2.6855468750,       -6.5612792969,      -30.5938720703
1488505801.2183880806,1488505801.2206740379,        0.6987304688,       -0.0717773438,       -0.2207031250,        1.4801025391,       -6.5612792969,      -30.5938720703
1488505801.2209520340,1488505801.2232689857,        0.5737304688,       -0.2670898438,       -0.1928710938,        1.4801025391,       -6.5612792969,      -33.9813232422
1488505801.2235479355,1488505801.2258419991,        0.6015625000,       -0.2670898438,       -0.1928710938,        3.9367675781,       -6.2103271484,      -33.9813232422
1488505801.2261209488,1488505801.2284069061,        0.6015625000,       -0.2670898438,       -0.1928710938,        3.9367675781,       -6.2103271484,      -34.9121093750
1488505801.2286849022,1488505801.2309710979,        0.6015625000,       -0.2670898438,       -0.1928710938,        8.6822509766,       -5.8746337891,      -34.9121093750
1488505801.2312479019,1488505801.2336010933,        0.5532226562,       -0.4663085938,       -0.1513671875,        8.6822509766,       -5.8746337891,      -34.9121093750
1488505801.2338790894,1488505801.2361700535,        0.5532226562,       -0.4663085938,       -0.1513671875,       14.6789550781,       -7.0648193359,      -31.1431884766
1488505801.2365610600,1488505801.2388639450,        0.5532226562,       -0.4663085938,       -0.1513671875,       14.6789550781,       -7.0648193359,      -31.1431884766
1488505801.2391450405,1488505801.2414410114,        0.5532226562,       -0.4663085938,       -0.1513671875,       16.3421630859,       -7.0343017578,      -25.6500244141
1488505801.2418200970,1488505801.2442419529,        0.5761718750,       -0.7368164062,       -0.1196289062,       16.3421630859,       -7.0343017578,      -25.6500244141
1488505801.2445330620,1488505801.2469580173,        0.5761718750,       -0.7368164062,       -0.1196289062,       18.5241699219,       -6.6986083984,      -19.8516845703
1488505801.2472479343,1488505801.2496631145,        0.5761718750,       -0.7368164062,       -0.1196289062,       18.5241699219,       -6.6986083984,      -19.8516845703
1488505801.2499508858,1488505801.2523510456,        0.5761718750,       -0.7368164062,       -0.1196289062,       26.6265869141,       -7.7514648438,      -19.7601318359
1488505801.2526350021,1488505801.2549331188,        0.5742187500,       -0.6879882812,       -0.1098632812,       26.6265869141,       -7.7514648438,      -19.7601318359
1488505801.2552139759,1488505801.2575058937,        0.5742187500,       -0.6879882812,       -0.1098632812,       38.4826660156,       -9.9639892578,      -24.7344970703
1488505801.2577879429,1488505801.2600829601,        0.5742187500,       -0.6879882812,       -0.1098632812,       38.4826660156,       -9.9639892578,      -24.7344970703
1488505801.2603640556,1488505801.2627489567,        0.5742187500,       -0.6879882812,       -0.1098632812,       45.7916259766,      -12.4969482422,      -30.9295654297
1488505801.2630419731,1488505801.2654540539,        0.6157226562,       -0.2475585938,       -0.0903320312,       45.7916259766,      -12.4969482422,      -30.9295654297
1488505801.2657461166,1488505801.2681729794,        0.6157226562,       -0.2475585938,       -0.0903320312,       45.7305908203,      -13.2293701172,      -33.9813232422
1488505801.2684659958,1488505801.2708818913,        0.6157226562,       -0.2475585938,       -0.0903320312,       45.7305908203,      -13.2293701172,      -33.9813232422
1488505801.2711749077,1488505801.2735159397,        0.6157226562,        0.0058593750,       -0.0820312500,       40.2069091797,      -11.8713378906,      -33.4320068359
1488505801.2738010883,1488505801.2761011124,        0.6689453125,        0.0058593750,       -0.0820312500,       40.2069091797,      -11.8713378906,      -33.4320068359
1488505801.2763879299,1488505801.2786788940,        0.6689453125,        0.0058593750,       -0.0820312500,       33.1268310547,      -10.4675292969,      -32.8521728516
1488505801.2789659500,1488505801.2812631130,        0.6689453125,        0.0058593750,       -0.0820312500,       33.1268310547,      -10.4675292969,      -32.8521728516
1488505801.2815489769,1488505801.2839770317,        0.6689453125,       -0.0039062500,       -0.0737304688,       28.1982421875,       -8.7738037109,      -33.7829589844
1488505801.2842669487,1488505801.2866859436,        0.6831054688,       -0.0039062500,       -0.0737304688,       28.1982421875,       -8.7738037109,      -33.7829589844
1488505801.2869749069,1488505801.2894010544,        0.6831054688,       -0.0039062500,       -0.0737304688,       25.6042480469,       -9.1857910156,      -35.1104736328
1488505801.2896931171,1488505801.2921149731,        0.6831054688,       -0.0039062500,       -0.0737304688,       25.6042480469,       -9.1857910156,      -35.1104736328
1488505801.2924060822,1488505801.2948219776,        0.6586914062,       -0.0981445312,       -0.0844726562,       23.6663818359,      -10.7574462891,      -36.8957519531
1488505801.2951149940,1488505801.2975449562,        0.6586914062,       -0.0981445312,       -0.0844726562,       23.6663818359,      -10.7574462891,      -36.8957519531
1488505801.2978420258,1488505801.3002769947,        0.6586914062,       -0.0981445312,       -0.0844726562,       21.6674804688,      -11.7034912109,      -38.5894775391
1488505801.3006789684,1488505801.3030428886,        0.6586914062,       -0.0981445312,       -0.0844726562,       21.6674804688,      -11.7034912109,      -38.5894775391
1488505801.3033289909,1488505801.3057119846,        0.6528320312,       -0.1396484375,       -0.1035156250,       18.1884765625,      -12.1154785156,      -40.3289794922
1488505801.3060009480,1488505801.3087799549,        0.6528320312,       -0.1396484375,       -0.1035156250,       18.1884765625,      -12.1154785156,      -40.3289794922
1488505801.3095209599,1488505801.3118150234,        0.6528320312,       -0.1396484375,       -0.1035156250,       12.4359130859,      -11.2152099609,      -41.7022705078
1488505801.3121008873,1488505801.3143899441,        0.6591796875,       -0.1240234375,       -0.1035156250,       12.4359130859,      -11.2152099609,      -41.7022705078
1488505801.3146750927,1488505801.3169660568,        0.6591796875,       -0.1240234375,       -0.1035156250,        7.7819824219,      -11.0931396484,      -40.8020019531
1488505801.3172469139,1488505801.3195381165,        0.6591796875,       -0.1240234375,       -0.1035156250,        7.7819824219,      -11.0931396484,      -40.8020019531
1488505801.3198199272,1488505801.3221309185,        0.6591796875,       -0.1240234375,       -0.1035156250,        3.9520263672,      -11.6577148438,      -41.3970947266
1488505801.3224129677,1488505801.3247010708,        0.6420898438,       -0.1162109375,       -0.1030273438,        3.9520263672,      -11.6577148438,      -41.3970947266
1488505801.3249859810,1488505801.3272700310,        0.6420898438,       -0.1162109375,       -0.1030273438,        0.6103515625,      -11.9476318359,      -42.1142578125
1488505801.3275549412,1488505801.3298430443,        0.6420898438,       -0.1162109375,       -0.1030273438,        0.6103515625,      -11.9476318359,      -42.1142578125
1488505801.3301239014,1488505801.3324599266,        0.6420898438,       -0.1162109375,       -0.1030273438,       -3.2958984375,      -11.9781494141,      -43.1060791016
1488505801.3327429295,1488505801.3350338936,        0.6318359375,       -0.1118164062,       -0.1225585938,       -1.2054443359,      -11.9781494141,      -43.1060791016
1488505801.3353168964,1488505801.3376080990,        0.6318359375,       -0.1118164062,       -0.1225585938,       -1.2054443359,      -11.9781494141,      -44.2047119141
1488505801.3378899097,1488505801.3401820660,        0.6318359375,       -0.1118164062,       -0.1225585938,       -2.2735595703,      -12.9089355469,      -44.2047119141
1488505801.3404641151,1488505801.3427600861,        0.6318359375,       -0.1118164062,       -0.1225585938,       -2.2735595703,      -12.9089355469,      -44.8455810547
1488505801.3430430889,1488505801.3453359604,        0.6137695312,       -0.0942382812,       -0.1206054688,       -2.0599365234,      -13.6566162109,      -44.8455810547
1488505801.3456170559,1488505801.3479089737,        0.6137695312,       -0.0942382812,       -0.1206054688,       -2.0599365234,      -13.6566162109,      -44.8455810547
1488505801.3481900692,1488505801.3504819870,        0.6137695312,       -0.0942382812,       -0.1206054688,       -0.9918212891,      -14.2974853516,      -44.5709228516
1488505801.3507640362,1488505801.3531990051,        0.6137695312,       -0.0942382812,       -0.1206054688,       -0.9918212891,      -14.2974853516,      -44.5709228516
1488505801.3534829617,1488505801.3557770252,        0.5927734375,       -0.0971679688,       -0.1411132812,       -0.2593994141,      -15.4418945312,      -44.4030761719
1488505801.3560609818,1488505801.3583559990,        0.5927734375,       -0.0971679688,       -0.1411132812,       -0.2593994141,      -15.4418945312,      -44.4030761719
1488505801.3586390018,1488505801.3609321117,        0.5927734375,       -0.0971679688,       -0.1411132812,        1.3427734375,      -15.8996582031,      -43.7011718750
1488505801.3612129688,1488505801.3646690845,        0.5927734375,       -0.0971679688,       -0.1518554688,        1.3427734375,      -15.8996582031,      -44.8455810547
1488505801.3651320934,1488505801.3675498962,        0.6069335938,       -0.0795898438,       -0.1518554688,        2.2735595703,      -15.4724121094,      -44.8455810547
1488505801.3678429127,1488505801.3702600002,        0.6069335938,       -0.0795898438,       -0.1518554688,        2.2735595703,      -15.4724121094,      -45.0439453125
1488505801.3705511093,1488505801.3729820251,        0.6069335938,       -0.0795898438,       -0.1518554688,        2.3803710938,      -15.4266357422,      -45.0439453125
1488505801.3732709885,1488505801.3756890297,        0.6098632812,       -0.0712890625,       -0.1723632812,        2.3803710938,      -15.4266357422,      -45.0592041016
1488505801.3759779930,1488505801.3783869743,        0.6098632812,       -0.0712890625,       -0.1723632812,        2.6855468750,      -15.0909423828,      -45.0592041016
1488505801.3786759377,1488505801.3810920715,        0.6098632812,       -0.0712890625,       -0.1723632812,        2.6855468750,      -15.0909423828,      -45.8068847656
1488505801.3813829422,1488505801.3838150501,        0.6098632812,       -0.0712890625,       -0.1723632812,        2.6245117188,      -14.6179199219,      -45.8068847656
1488505801.3841040134,1488505801.3865189552,        0.5966796875,       -0.0712890625,       -0.1689453125,        2.6245117188,      -14.6179199219,      -45.7611083984
1488505801.3868069649,1488505801.3892250061,        0.5966796875,       -0.0712890625,       -0.1689453125,        3.3569335938,      -14.1296386719,      -45.7611083984
1488505801.3895139694,1488505801.3919401169,        0.5966796875,       -0.0712890625,       -0.1689453125,        3.3569335938,      -14.1296386719,      -46.7376708984
1488505801.3922278881,1488505801.3946459293,        0.5966796875,       -0.0654296875,       -0.1801757812,        4.0588378906,      -14.1143798828,      -46.7376708984
1488505801.3949348927,1488505801.3973538876,        0.6127929688,       -0.0654296875,       -0.1801757812,        4.0588378906,      -14.1143798828,      -47.4548339844
1488505801.3976430893,1488505801.4000549316,        0.6127929688,       -0.0654296875,       -0.1801757812,        5.5541992188,      -13.6260986328,      -47.4548339844
1488505801.4003429413,1488505801.4027690887,        0.6127929688,       -0.0654296875,       -0.1801757812,        5.5541992188,      -13.6260986328,      -48.3093261719
1488505801.4030590057,1488505801.4054760933,        0.6181640625,       -0.0483398438,       -0.1870117188,        6.3476562500,      -13.7481689453,      -48.3093261719
1488505801.4057650566,1488505801.4081830978,        0.6181640625,       -0.0483398438,       -0.1870117188,        6.3476562500,      -13.7481689453,      -49.3469238281
1488505801.4084730148,1488505801.4108860493,        0.6181640625,       -0.0483398438,       -0.1870117188,        7.2174072266,      -13.3056640625,      -49.3469238281
1488505801.4111740589,1488505801.4136049747,        0.6181640625,       -0.0483398438,       -0.1870117188,        7.2174072266,      -13.3056640625,      -49.6368408203
1488505801.4138929844,1488505801.4163079262,        0.6206054688,       -0.0244140625,       -0.2133789062,        8.3160400391,      -13.3209228516,      -49.6368408203
1488505801.4165980816,1488505801.4190740585,        0.6206054688,       -0.0244140625,       -0.2133789062,        8.3160400391,      -13.3209228516,      -49.9725341797
1488505801.4193649292,1488505801.4217910767,        0.6206054688,       -0.0244140625,       -0.2133789062,        8.9263916016,      -13.2293701172,      -49.9725341797
1488505801.4220829010,1488505801.4245059490,        0.6206054688,       -0.0244140625,       -0.2192382812,        8.9263916016,      -13.2293701172,      -49.4689941406
1488505801.4247949123,1488505801.4272119999,        0.6098632812,       -0.0458984375,       -0.2192382812,       10.3454589844,      -13.0310058594,      -49.4689941406
1488505801.4275031090,1488505801.4299199581,        0.6098632812,       -0.0458984375,       -0.2192382812,       10.3454589844,      -13.0310058594,      -49.6520996094
1488505801.4302139282,1488505801.4326388836,        0.6098632812,       -0.0458984375,       -0.2192382812,       11.1236572266,      -12.4511718750,      -49.6520996094
1488505801.4330389500,1488505801.4354538918,        0.6098632812,       -0.0214843750,       -0.2255859375,       11.1236572266,      -12.4511718750,      -49.4689941406
1488505801.4357469082,1488505801.4381709099,        0.6118164062,       -0.0214843750,       -0.2255859375,        9.7503662109,      -12.0544433594,      -49.4689941406
1488505801.4384589195,1488505801.4408769608,        0.6118164062,       -0.0214843750,       -0.2255859375,        9.7503662109,      -12.0544433594,      -48.2635498047
1488505801.4411659241,1488505801.4435949326,        0.6118164062,       -0.0214843750,       -0.2255859375,        8.6517333984,      -12.0544433594,      -48.2635498047
1488505801.4438850880,1488505801.4463009834,        0.6152343750,        0.0322265625,       -0.1977539062,        8.6517333984,      -12.0544433594,      -48.9654541016
1488505801.4465920925,1488505801.4490079880,        0.6152343750,        0.0322265625,       -0.1977539062,        7.1258544922,      -11.9934082031,      -48.9654541016
1488505801.4492969513,1488505801.4517230988,        0.6152343750,        0.0322265625,       -0.1977539062,        7.1258544922,      -11.9934082031,      -48.1567382812
1488505801.4520049095,1488505801.4543020725,        0.6152343750,        0.0322265625,       -0.1977539062,        4.7149658203,      -11.1694335938,      -48.1567382812
1488505801.4545829296,1488505801.4568760395,        0.6362304688,        0.0341796875,       -0.1738281250,        4.7149658203,      -11.1694335938,      -44.2504882812
1488505801.4571568966,1488505801.4594540596,        0.6362304688,        0.0341796875,       -0.1738281250,        0.2899169922,      -10.2844238281,      -45.8221435547
1488505801.4597349167,1488505801.4621949196,        0.6362304688,        0.0341796875,       -0.1738281250,        0.2899169922,      -10.2844238281,      -45.8221435547
1488505801.4624791145,1488505801.4647719860,        0.6362304688,        0.0341796875,       -0.1411132812,       -3.7231445312,       -9.6588134766,      -43.4722900391
1488505801.4650518894,1488505801.4673469067,        0.6274414062,       -0.0263671875,       -0.1411132812,       -3.7231445312,       -9.6588134766,      -43.4722900391
1488505801.4676239491,1488505801.4699199200,        0.6274414062,       -0.0263671875,       -0.1411132812,       -5.6457519531,       -9.2468261719,      -42.7856445312
1488505801.4701979160,1488505801.4726519585,        0.6274414062,       -0.0263671875,       -0.1411132812,       -5.6457519531,       -9.2468261719,      -42.7856445312
1488505801.4729390144,1488505801.4753620625,        0.6274414062,       -0.0263671875,       -0.1362304688,       -6.3934326172,      -10.1013183594,      -42.6177978516
1488505801.4756510258,1488505801.4780650139,        0.6152343750,       -0.0327148438,       -0.1362304688,       -6.3934326172,      -10.1013183594,      -42.6177978516
1488505801.4783539772,1488505801.4807779789,        0.6152343750,       -0.0327148438,       -0.1362304688,       -6.4086914062,      -11.7645263672,      -41.9311523438
1488505801.4810690880,1488505801.4835300446,        0.6152343750,       -0.0327148438,       -0.1362304688,       -6.4086914062,      -11.7645263672,      -41.9311523438
1488505801.4838180542,1488505801.4862349033,        0.6289062500,       -0.0126953125,       -0.1303710938,       -6.8359375000,      -12.0391845703,      -41.1834716797
1488505801.4865219593,1488505801.4889459610,        0.6289062500,       -0.0126953125,       -0.1303710938,       -6.8359375000,      -12.0391845703,      -41.1834716797
1488505801.4892349243,1488505801.4916529655,        0.6289062500,       -0.0126953125,       -0.1303710938,       -6.5307617188,      -11.5051269531,      -40.5426025391
1488505801.4919860363,1488505801.4944009781,        0.6289062500,       -0.0126953125,       -0.1303710938,       -6.5307617188,      -11.5051269531,      -40.5426025391
1488505801.4946920872,1488505801.4971129894,        0.6108398438,        0.0024414062,       -0.1430664062,       -5.6457519531,      -12.2985839844,      -40.3442382812
1488505801.4975090027,1488505801.4999260902,        0.6108398438,        0.0024414062,       -0.1430664062,       -5.6457519531,      -12.2985839844,      -40.3442382812
1488505801.5002140999,1488505801.5025870800,        0.6108398438,        0.0024414062,       -0.1430664062,       -3.9062500000,      -13.1378173828,      -39.5202636719
1488505801.5028710365,1488505801.5051620007,        0.6108398438,        0.0024414062,       -0.1484375000,       -3.9062500000,      -13.1378173828,      -39.5202636719
1488505801.5054450035,1488505801.5077319145,        0.6220703125,        0.0122070312,       -0.1484375000,       -1.5563964844,      -13.7786865234,      -39.3066406250
1488505801.5080149174,1488505801.5103149414,        0.6220703125,        0.0122070312,       -0.1484375000,       -1.5563964844,      -13.7786865234,      -39.3066406250
1488505801.5105950832,1488505801.5130360126,        0.6220703125,        0.0122070312,       -0.1484375000,        0.1373291016,      -14.9536132812,      -38.9556884766
1488505801.5133221149,1488505801.5156118870,        0.6220703125,       -0.1127929688,       -0.1499023438,        0.1373291016,      -14.9536132812,      -38.9556884766
1488505801.5158948898,1488505801.5181889534,        0.6254882812,       -0.0009765625,       -0.1499023438,        1.8005371094,      -15.9301757812,      -38.5742187500
1488505801.5184719563,1488505801.5207650661,        0.6254882812,       -0.0009765625,       -0.1499023438,        1.8005371094,      -15.9301757812,      -38.5742187500
1488505801.5210459232,1488505801.5234870911,        0.6254882812,       -0.0009765625,       -0.1499023438,        3.9062500000,      -16.6473388672,      -38.9556884766
1488505801.5237760544,1488505801.5261631012,        0.5004882812,       -0.0166015625,       -0.1455078125,        3.9062500000,      -16.6473388672,      -38.9556884766
1488505801.5264511108,1488505801.5289170742,        0.6196289062,       -0.0166015625,       -0.1455078125,        6.0272216797,      -17.2119140625,      -39.6881103516
1488505801.5292060375,1488505801.5317370892,        0.6196289062,       -0.0166015625,       -0.1455078125,        6.0272216797,      -17.2119140625,      -39.6881103516
1488505801.5320410728,1488505801.5344760418,        0.6196289062,       -0.0166015625,       -0.1455078125,        8.4381103516,      -18.0969238281,      -40.3747558594
1488505801.5347700119,1488505801.5371930599,        0.6293945312,       -0.0112304688,       -0.1420898438,        8.4381103516,      -18.0969238281,      -40.3747558594
1488505801.5374820232,1488505801.5398979187,        0.6293945312,       -0.0112304688,       -0.1420898438,       11.6424560547,      -19.4244384766,      -40.3900146484
1488505801.5401909351,1488505801.5426180363,        0.6293945312,       -0.0112304688,       -0.1420898438,       11.6424560547,      -19.4244384766,      -40.3900146484
1488505801.5429089069,1488505801.5453300476,        0.6293945312,       -0.0112304688,       -0.1420898438,       13.5498046875,      -19.5617675781,      -40.0695800781
1488505801.5456230640,1488505801.5480370522,        0.5981445312,       -0.0043945312,       -0.1748046875,       13.5498046875,      -19.5617675781,      -40.0695800781
1488505801.5483279228,1488505801.5507440567,        0.5981445312,       -0.0043945312,       -0.1748046875,       13.7176513672,      -19.3786621094,      -39.3676757812
1488505801.5510358810,1488505801.5534040928,        0.5981445312,       -0.0043945312,       -0.1748046875,       13.7176513672,      -19.3786621094,      -39.3676757812
1488505801.5536909103,1488505801.5559809208,        0.5981445312,        0.1206054688,       -0.1997070312,       12.2222900391,      -19.0124511719,      -37.9028320312
1488505801.5562670231,1488505801.5585589409,        0.6113281250,        0.0429687500,       -0.1997070312,       12.2222900391,      -19.0124511719,      -37.9028320312
1488505801.5588428974,1488505801.5611379147,        0.6113281250,        0.0429687500,       -0.1997070312,        8.3160400391,      -18.6309814453,      -37.4145507812
1488505801.5615279675,1488505801.5638480186,        0.6113281250,        0.0429687500,       -0.1997070312,        9.0942382812,      -18.6309814453,      -37.4145507812
1488505801.5641300678,1488505801.5664260387,        0.6113281250,        0.0585937500,       -0.2163085938,        9.0942382812,      -17.7612304688,      -35.6140136719
1488505801.5667099953,1488505801.5690009594,        0.6171875000,        0.0585937500,       -0.2163085938,        6.4239501953,      -17.7612304688,      -35.6140136719
1488505801.5692839622,1488505801.5715789795,        0.6171875000,        0.0585937500,       -0.2163085938,        6.4239501953,      -17.7612304688,      -33.3862304688
1488505801.5719130039,1488505801.5742108822,        0.6171875000,        0.0585937500,       -0.2163085938,        4.9133300781,      -16.7083740234,      -33.3862304688
1488505801.5744929314,1488505801.5767879486,        0.6035156250,        0.0239257812,       -0.2128906250,        4.9133300781,      -16.7083740234,      -32.6385498047
1488505801.5770699978,1488505801.5793590546,        0.6035156250,        0.0239257812,       -0.2128906250,        3.5247802734,      -16.0217285156,      -32.6385498047
1488505801.5796389580,1488505801.5820291042,        0.6035156250,        0.0239257812,       -0.2128906250,        3.5247802734,      -16.0217285156,      -28.7322998047
1488505801.5823099613,1488505801.5845990181,        0.6035156250,        0.0239257812,       -0.2128906250,        1.7852783203,      -15.3656005859,      -31.1431884766
1488505801.5848789215,1488505801.5871710777,        0.6103515625,        0.0190429688,       -0.2050781250,        1.7852783203,      -15.3656005859,      -31.1431884766
1488505801.5874519348,1488505801.5897440910,        0.6103515625,        0.0190429688,       -0.2050781250,        1.6784667969,      -14.9993896484,      -30.1208496094
1488505801.5900249481,1488505801.5924808979,        0.6103515625,        0.0190429688,       -0.2050781250,        1.6784667969,      -14.9993896484,      -30.1208496094
1488505801.5927710533,1488505801.5951929092,        0.6103515625,        0.0190429688,       -0.2050781250,        0.7781982422,      -14.6484375000,      -29.7088623047
1488505801.5954849720,1488505801.5979020596,        0.6083984375,        0.0405273438,       -0.2192382812,        0.7781982422,      -14.6484375000,      -29.7088623047
1488505801.5981919765,1488505801.6006100178,        0.6083984375,        0.0405273438,       -0.2192382812,       -0.2441406250,      -13.5498046875,      -28.7475585938
1488505801.6008980274,1488505801.6032381058,        0.6083984375,        0.0405273438,       -0.2192382812,       -0.2441406250,      -13.5498046875,      -28.7475585938
1488505801.6035189629,1488505801.6058089733,        0.6083984375,        0.0405273438,       -0.2192382812,       -1.6784667969,      -12.5427246094,      -27.5726318359
1488505801.6060891151,1488505801.6083838940,        0.5869140625,        0.0429687500,       -0.1997070312,       -1.6784667969,      -12.5427246094,      -27.5726318359
1488505801.6086640358,1488505801.6109580994,        0.5869140625,        0.0429687500,       -0.1997070312,       -2.6702880859,      -12.2070312500,      -26.8096923828
1488505801.6112389565,1488505801.6136560440,        0.5869140625,        0.0429687500,       -0.1997070312,       -2.6702880859,      -12.2070312500,      -26.8096923828
1488505801.6139400005,1488505801.6162390709,        0.5869140625,        0.0429687500,       -0.1918945312,       -3.3874511719,      -12.5579833984,      -25.6195068359
1488505801.6165230274,1488505801.6188189983,        0.6025390625,        0.0522460938,       -0.1918945312,       -3.3874511719,      -12.5579833984,      -25.6195068359
1488505801.6191010475,1488505801.6214029789,        0.6025390625,        0.0522460938,       -0.1918945312,       -3.9367675781,      -12.6800537109,      -24.7497558594
1488505801.6218459606,1488505801.6242289543,        0.6025390625,        0.0522460938,       -0.1918945312,       -3.9367675781,      -12.6800537109,      -24.7497558594
1488505801.6246259212,1488505801.6270070076,        0.6025390625,        0.0385742188,       -0.1811523438,       -6.4697265625,      -13.0920410156,      -23.4680175781
1488505801.6280949116,1488505801.6303930283,        0.6176757812,        0.0385742188,       -0.1811523438,       -6.4697265625,      -13.0920410156,      -23.4680175781
1488505801.6306769848,1488505801.6329720020,        0.6176757812,        0.0385742188,       -0.1811523438,       -8.2397460938,      -14.1296386719,      -22.9187011719
1488505801.6332530975,1488505801.6355431080,        0.6176757812,        0.0385742188,       -0.1811523438,       -8.2397460938,      -14.1296386719,      -22.9187011719
1488505801.6358249187,1488505801.6381170750,        0.6152343750,       -0.0048828125,       -0.1459960938,       -6.6986083984,      -15.1062011719,      -23.3001708984
1488505801.6384000778,1488505801.6406888962,        0.6152343750,       -0.0048828125,       -0.1459960938,       -6.6986083984,      -15.1062011719,      -23.3001708984
1488505801.6409709454,1488505801.6432769299,        0.6152343750,       -0.0048828125,       -0.1459960938,       -2.7770996094,      -16.0675048828,      -23.9410400391
1488505801.6435599327,1488505801.6458480358,        0.6152343750,       -0.0048828125,       -0.1459960938,       -2.7770996094,      -16.0675048828,      -23.9410400391
1488505801.6461288929,1488505801.6484179497,        0.6083984375,        0.0214843750,       -0.1557617188,       -0.0915527344,      -16.4031982422,      -25.2227783203
1488505801.6486999989,1488505801.6509900093,        0.6083984375,        0.0214843750,       -0.1557617188,       -0.0915527344,      -16.4031982422,      -25.2227783203
1488505801.6512730122,1488505801.6536109447,        0.6083984375,        0.0214843750,       -0.1557617188,       -0.0915527344,      -16.2506103516,      -25.0091552734
1488505801.6538949013,1488505801.6561849117,        0.6083984375,        0.0214843750,       -0.1557617188,       -0.2441406250,      -16.2506103516,      -25.0091552734
1488505801.6564679146,1488505801.6587529182,        0.6245117188,        0.0532226562,       -0.1640625000,       -0.2441406250,      -16.2506103516,      -24.3835449219
1488505801.6590359211,1488505801.6613199711,        0.6245117188,        0.0532226562,       -0.1640625000,       -1.4648437500,      -16.0827636719,      -24.3835449219
1488505801.6616020203,1488505801.6639049053,        0.6245117188,        0.0532226562,       -0.1640625000,       -1.4648437500,      -16.0827636719,      -23.1933593750
1488505801.6641860008,1488505801.6664729118,        0.6245117188,        0.0532226562,       -0.1640625000,       -1.2512207031,      -16.4031982422,      -23.1933593750
1488505801.6667540073,1488505801.6690399647,        0.6181640625,        0.0546875000,       -0.1826171875,       -1.2512207031,      -16.4031982422,      -23.1933593750
1488505801.6693210602,1488505801.6716160774,        0.6181640625,        0.0546875000,       -0.1826171875,        0.0152587891,      -17.5018310547,      -22.3693847656
1488505801.6721069813,1488505801.6744010448,        0.6181640625,        0.0546875000,       -0.1826171875,        0.0152587891,      -17.5018310547,      -22.3693847656
1488505801.6746830940,1488505801.6769769192,        0.6181640625,        0.0546875000,       -0.1914062500,        1.2207031250,      -17.9290771484,      -21.4080810547
1488505801.6772599220,1488505801.6795439720,        0.5898437500,        0.0698242188,       -0.1914062500,        1.2207031250,      -17.9290771484,      -21.4080810547
1488505801.6798279285,1488505801.6822319031,        0.5898437500,        0.0698242188,       -0.1914062500,        3.3874511719,      -18.7072753906,      -20.7061767578
1488505801.6825129986,1488505801.6848080158,        0.5898437500,        0.0698242188,       -0.1914062500,        3.3874511719,      -18.7072753906,      -20.7061767578
1488505801.6850900650,1488505801.6873779297,        0.5898437500,        0.0698242188,       -0.2456054688,        4.1198730469,      -18.4173583984,      -19.7601318359
1488505801.6877689362,1488505801.6900610924,        0.6103515625,        0.0693359375,       -0.2456054688,        4.1198730469,      -18.4173583984,      -19.7601318359
1488505801.6903419495,1488505801.6926829815,        0.6103515625,        0.0693359375,       -0.2456054688,        4.1503906250,      -17.6086425781,      -19.3786621094
1488505801.6929628849,1488505801.6952550411,        0.6103515625,        0.0693359375,       -0.2456054688,        4.1503906250,      -17.6086425781,      -19.3786621094
1488505801.6955358982,1488505801.6978330612,        0.6103515625,        0.0644531250,       -0.2597656250,        4.0740966797,      -16.4489746094,      -18.1427001953
1488505801.6981151104,1488505801.7004048824,        0.5849609375,        0.0644531250,       -0.2597656250,        4.0740966797,      -16.4489746094,      -18.1427001953
1488505801.7006878853,1488505801.7030270100,        0.5849609375,        0.0644531250,       -0.2597656250,        2.8991699219,      -15.7318115234,      -16.6473388672
1488505801.7033100128,1488505801.7056019306,        0.5849609375,        0.0644531250,       -0.2597656250,        2.8991699219,      -15.7318115234,      -16.6473388672
1488505801.7058830261,1488505801.7081749439,        0.6020507812,        0.0737304688,       -0.2436523438,        1.5258789062,      -14.9230957031,      -15.5944824219
1488505801.7084550858,1488505801.7107400894,        0.6020507812,        0.0737304688,       -0.2436523438,        1.5258789062,      -14.9230957031,      -15.5944824219
1488505801.7110209465,1488505801.7135570049,        0.6020507812,        0.0737304688,       -0.2436523438,        1.5258789062,      -14.1754150391,      -14.5111083984
1488505801.7138409615,1488505801.7161319256,        0.6020507812,        0.0737304688,       -0.2436523438,       -0.4882812500,      -14.1754150391,      -14.5111083984
1488505801.7164139748,1488505801.7187089920,        0.6118164062,        0.0566406250,       -0.2285156250,       -0.4882812500,      -14.1754150391,      -13.1378173828
1488505801.7189900875,1488505801.7212901115,        0.6118164062,        0.0566406250,       -0.2285156250,       -2.0294189453,      -13.4582519531,      -13.1378173828
1488505801.7215719223,1488505801.7240459919,        0.6118164062,        0.0566406250,       -0.2285156250,       -2.0294189453,      -13.4582519531,      -13.1988525391
1488505801.7243340015,1488505801.7267239094,        0.6118164062,        0.0566406250,       -0.2285156250,       -3.0364990234,      -12.7258300781,      -13.1988525391
1488505801.7275769711,1488505801.7298710346,        0.6035156250,        0.0283203125,       -0.2338867188,       -6.9427490234,      -12.1002197266,      -13.5498046875
1488505801.7301549911,1488505801.7325110435,        0.6035156250,        0.0283203125,       -0.2338867188,       -3.9215087891,      -12.1002197266,      -13.5498046875
1488505801.7327930927,1488505801.7350831032,        0.6035156250,        0.0283203125,       -0.2338867188,       -3.9215087891,      -12.4206542969,      -13.2598876953
1488505801.7353661060,1488505801.7376561165,        0.6035156250,        0.0283203125,       -0.2226562500,       -4.7149658203,      -12.4206542969,      -13.2598876953
1488505801.7379388809,1488505801.7402219772,        0.6293945312,        0.0380859375,       -0.2226562500,       -4.7149658203,      -12.4206542969,      -13.2293701172
1488505801.7405030727,1488505801.7428441048,        0.6293945312,        0.0380859375,       -0.2226562500,       -4.6691894531,      -12.2528076172,      -13.2293701172
1488505801.7431249619,1488505801.7454130650,        0.6293945312,        0.0380859375,       -0.2226562500,       -4.6691894531,      -12.2528076172,      -13.2293701172
1488505801.7456939220,1488505801.7479810715,        0.6293945312,        0.0380859375,       -0.1987304688,       -2.4719238281,      -11.0626220703,      -13.1835937500
1488505801.7482628822,1488505801.7505578995,        0.6049804688,        0.0249023438,       -0.1987304688,       -2.4719238281,      -11.0626220703,      -13.1835937500
1488505801.7509469986,1488505801.7532749176,        0.6049804688,        0.0249023438,       -0.1987304688,       -0.1831054688,      -11.3220214844,      -13.7481689453
1488505801.7535579205,1488505801.7558479309,        0.6049804688,        0.0249023438,       -0.1987304688,       -0.1831054688,      -11.3220214844,      -13.7481689453
1488505801.7561299801,1488505801.7584159374,        0.6049804688,        0.0458984375,       -0.2241210938,        1.1291503906,      -12.0391845703,      -13.7023925781
1488505801.7586970329,1488505801.7609839439,        0.6157226562,        0.0458984375,       -0.2241210938,        1.1291503906,      -12.0391845703,      -13.7023925781
1488505801.7612659931,1488505801.7636070251,        0.6157226562,        0.0458984375,       -0.2241210938,        0.1831054688,      -11.4898681641,      -12.8631591797
1488505801.7638878822,1488505801.7661759853,        0.6157226562,        0.0458984375,       -0.2241210938,        0.1831054688,      -11.4898681641,      -12.8631591797
1488505801.7664580345,1488505801.7687489986,        0.6230468750,        0.0532226562,       -0.2431640625,       -1.0070800781,      -10.8032226562,      -11.7645263672
1488505801.7690300941,1488505801.7713160515,        0.6230468750,        0.0532226562,       -0.2431640625,       -1.0070800781,      -10.8032226562,      -11.7645263672
1488505801.7715969086,1488505801.7739710808,        0.6230468750,        0.0532226562,       -0.2431640625,       -2.8228759766,      -10.2844238281,      -10.9100341797
1488505801.7742528915,1488505801.7765550613,        0.6230468750,        0.0532226562,       -0.2431640625,       -2.8228759766,      -10.2844238281,      -10.9100341797
1488505801.7768349648,1488505801.7791340351,        0.6103515625,        0.0502929688,       -0.2299804688,       -5.2337646484,      -10.5895996094,       -9.9639892578
1488505801.7794120312,1488505801.7818388939,        0.6103515625,        0.0502929688,       -0.2299804688,       -5.2337646484,      -10.5895996094,       -9.9639892578
1488505801.7821269035,1488505801.7845480442,        0.6103515625,        0.0502929688,       -0.2299804688,       -7.0648193359,      -10.7116699219,       -9.1400146484
1488505801.7848370075,1488505801.7872519493,        0.6103515625,        0.0502929688,       -0.2299804688,       -7.0648193359,      -10.7116699219,       -9.1400146484
1488505801.7875390053,1488505801.7899549007,        0.6220703125,        0.0468750000,       -0.2421875000,       -7.5225830078,      -10.1776123047,       -8.8348388672
1488505801.7902400494,1488505801.7926518917,        0.6220703125,        0.0468750000,       -0.2421875000,       -7.5225830078,      -10.1776123047,       -8.8348388672
1488505801.7929320335,1488505801.7952289581,        0.6220703125,        0.0468750000,       -0.2421875000,       -7.5225830078,       -9.6282958984,       -8.8958740234
1488505801.7955019474,1488505801.7977960110,        0.6220703125,        0.0468750000,       -0.2421875000,       -7.2631835938,       -9.6282958984,       -8.8958740234
1488505801.7980709076,1488505801.8003621101,        0.6098632812,        0.0688476562,       -0.2363281250,       -7.2631835938,       -9.6282958984,       -9.1857910156
1488505801.8006370068,1488505801.8030140400,        0.6098632812,        0.0688476562,       -0.2363281250,       -6.9885253906,       -9.4757080078,       -9.1857910156
1488505801.8033010960,1488505801.8057188988,        0.6098632812,        0.0688476562,       -0.2363281250,       -6.9885253906,       -9.4757080078,       -9.2926025391
1488505801.8060009480,1488505801.8084139824,        0.6098632812,        0.0688476562,       -0.2109375000,       -6.1187744141,       -9.6588134766,       -9.2926025391
1488505801.8086938858,1488505801.8111140728,        0.5952148438,        0.0693359375,       -0.2109375000,       -6.1187744141,       -9.6588134766,       -9.4757080078
1488505801.8113949299,1488505801.8138198853,        0.5952148438,        0.0693359375,       -0.2109375000,       -5.0354003906,       -9.7656250000,       -9.4757080078
1488505801.8142108917,1488505801.8166251183,        0.5952148438,        0.0693359375,       -0.2109375000,       -5.0354003906,       -9.7656250000,       -9.5977783203
1488505801.8169090748,1488505801.8193249702,        0.5839843750,        0.0761718750,       -0.2441406250,       -4.8828125000,       -9.1857910156,       -9.5977783203
1488505801.8196051121,1488505801.8220279217,        0.5839843750,        0.0761718750,       -0.2441406250,       -4.8828125000,       -9.1857910156,       -9.8114013672
1488505801.8223090172,1488505801.8247299194,        0.5839843750,        0.0761718750,       -0.2441406250,       -5.4168701172,       -9.3231201172,       -9.8114013672
1488505801.8250100613,1488505801.8274331093,        0.5839843750,        0.0761718750,       -0.2441406250,       -5.4168701172,       -9.3231201172,       -9.8266601562
1488505801.8277161121,1488505801.8301270008,        0.5903320312,        0.0869140625,       -0.2490234375,       -6.0729980469,       -9.2773437500,       -9.8266601562
1488505801.8304100037,1488505801.8328430653,        0.5903320312,        0.0869140625,       -0.2490234375,       -6.0729980469,       -9.2773437500,       -9.4451904297
1488505801.8331279755,1488505801.8355460167,        0.5903320312,        0.0869140625,       -0.2490234375,       -6.8206787109,       -9.0026855469,       -9.4451904297
1488505801.8358280659,1488505801.8383710384,        0.5903320312,        0.0869140625,       -0.2490234375,       -6.8206787109,       -9.0026855469,       -8.8348388672
1488505801.8386540413,1488505801.8410589695,        0.5942382812,        0.0761718750,       -0.2412109375,       -7.2021484375,       -8.6212158203,       -8.8348388672
1488505801.8417890072,1488505801.8440918922,        0.5942382812,        0.0761718750,       -0.2412109375,       -7.2021484375,       -8.2092285156,       -8.3465576172
1488505801.8443679810,1488505801.8466579914,        0.5942382812,        0.0761718750,       -0.2412109375,       -7.7972412109,       -8.2092285156,       -8.3465576172
1488505801.8469328880,1488505801.8492250443,        0.5942382812,        0.0834960938,       -0.2348632812,       -7.7972412109,       -8.2092285156,       -8.4381103516
1488505801.8494999409,1488505801.8518071175,        0.5883789062,        0.0834960938,       -0.2348632812,       -8.6212158203,       -8.0566406250,       -8.4381103516
1488505801.8520879745,1488505801.8544700146,        0.5883789062,        0.0834960938,       -0.2348632812,       -8.6212158203,       -8.0566406250,       -8.4686279297
1488505801.8547489643,1488505801.8571310043,        0.5883789062,        0.0834960938,       -0.2348632812,       -9.6282958984,       -7.9345703125,       -8.4686279297
1488505801.8574099541,1488505801.8597900867,        0.5937500000,        0.0810546875,       -0.2333984375,       -9.6282958984,       -7.9345703125,       -8.6822509766
1488505801.8600699902,1488505801.8625650406,        0.5937500000,        0.0810546875,       -0.2333984375,       -9.7503662109,       -7.7056884766,       -8.6822509766
1488505801.8628470898,1488505801.8652629852,        0.5937500000,        0.0810546875,       -0.2333984375,       -9.7503662109,       -7.7056884766,       -9.2315673828
1488505801.8655450344,1488505801.8679640293,        0.5937500000,        0.0810546875,       -0.2333984375,      -10.5285644531,       -7.1716308594,       -9.2315673828
1488505801.8682489395,1488505801.8706650734,        0.5913085938,        0.0708007812,       -0.2153320312,      -10.5285644531,       -7.1716308594,       -9.2315673828
1488505801.8709509373,1488505801.8733019829,        0.5913085938,        0.0708007812,       -0.2153320312,      -10.2081298828,       -7.1105957031,       -9.9029541016
1488505801.8735818863,1488505801.8758790493,        0.5913085938,        0.0708007812,       -0.2153320312,      -10.2081298828,       -7.1105957031,       -9.9029541016
1488505801.8761570454,1488505801.8784520626,        0.5913085938,        0.0708007812,       -0.2153320312,       -7.9956054688,       -7.7667236328,      -11.3677978516
1488505801.8788409233,1488505801.8811440468,        0.5888671875,        0.0820312500,       -0.2148437500,       -7.9956054688,       -7.7667236328,      -11.3677978516
1488505801.8814220428,1488505801.8837220669,        0.5888671875,        0.0820312500,       -0.2148437500,       -9.0484619141,       -6.8511962891,      -11.3067626953
1488505801.8840000629,1488505801.8862969875,        0.5888671875,        0.0820312500,       -0.2148437500,       -9.0484619141,       -6.8511962891,      -11.3067626953
1488505801.8865749836,1488505801.8888700008,        0.5888671875,        0.0820312500,       -0.2148437500,      -10.1318359375,       -7.0037841797,      -11.0931396484
1488505801.8891530037,1488505801.8914470673,        0.5825195312,        0.0620117188,       -0.2348632812,      -10.1318359375,       -7.0037841797,      -11.0931396484
1488505801.8918330669,1488505801.8941309452,        0.5825195312,        0.0620117188,       -0.2348632812,      -10.2233886719,       -7.1563720703,      -12.0086669922
1488505801.8944139481,1488505801.8967080116,        0.5825195312,        0.0620117188,       -0.2348632812,      -10.2233886719,       -7.1563720703,      -12.0086669922
1488505801.8969900608,1488505801.8992860317,        0.5825195312,        0.0620117188,       -0.2490234375,      -10.0860595703,       -7.1716308594,      -13.2293701172
1488505801.8995690346,1488505801.9020349979,        0.5947265625,        0.0483398438,       -0.2490234375,      -10.0860595703,       -7.1716308594,      -13.2293701172
1488505801.9023170471,1488505801.9046089649,        0.5947265625,        0.0483398438,       -0.2490234375,      -10.5133056641,       -6.7291259766,      -13.2446289062
1488505801.9048900604,1488505801.9071769714,        0.5947265625,        0.0483398438,       -0.2490234375,      -10.5133056641,       -6.7291259766,      -13.2446289062
1488505801.9074571133,1488505801.9097509384,        0.5947265625,        0.0942382812,       -0.2465820312,      -10.8795166016,       -6.4239501953,      -13.2598876953
1488505801.9100320339,1488505801.9124779701,        0.5976562500,        0.0942382812,       -0.2465820312,      -10.8795166016,       -6.4239501953,      -13.2598876953
1488505801.9127619267,1488505801.9150528908,        0.5976562500,        0.0942382812,       -0.2465820312,      -11.0321044922,       -6.3018798828,      -12.1612548828
1488505801.9153370857,1488505801.9176239967,        0.5976562500,        0.0942382812,       -0.2465820312,      -11.0321044922,       -6.3018798828,      -12.1612548828
1488505801.9179069996,1488505801.9201929569,        0.5903320312,        0.1054687500,       -0.2426757812,      -11.0321044922,       -6.0577392578,      -11.5051269531
1488505801.9204759598,1488505801.9227740765,        0.5903320312,        0.1054687500,       -0.2426757812,      -11.3525390625,       -6.0577392578,      -11.5051269531
1488505801.9230558872,1488505801.9253449440,        0.5903320312,        0.1054687500,       -0.2426757812,      -11.3525390625,       -6.0577392578,      -11.0473632812
1488505801.9256269932,1488505801.9279160500,        0.5903320312,        0.1054687500,       -0.2426757812,      -11.1236572266,       -5.7983398438,      -11.0473632812
1488505801.9281980991,1488505801.9304940701,        0.5937500000,        0.0996093750,       -0.2382812500,      -11.1236572266,       -5.7983398438,      -11.0473632812
1488505801.9307761192,1488505801.9330759048,        0.5937500000,        0.0996093750,       -0.2382812500,       -9.8419189453,       -5.3558349609,      -11.0473632812
1488505801.9333539009,1488505801.9356479645,        0.5937500000,        0.0996093750,       -0.2382812500,       -9.8419189453,       -5.3558349609,      -11.0473632812
1488505801.9359259605,1488505801.9382150173,        0.5937500000,        0.0996093750,       -0.2382812500,       -8.5449218750,       -5.0506591797,      -10.5133056641
1488505801.9384930134,1488505801.9407870770,        0.5874023438,        0.1079101562,       -0.2246093750,       -8.5449218750,       -5.0506591797,      -10.5133056641
1488505801.9411830902,1488505801.9436099529,        0.5874023438,        0.1079101562,       -0.2246093750,       -7.4157714844,       -5.1879882812,      -10.1470947266
1488505801.9438920021,1488505801.9461810589,        0.5874023438,        0.1079101562,       -0.2246093750,       -7.4157714844,       -5.1879882812,      -10.1470947266
1488505801.9464640617,1488505801.9487519264,        0.5874023438,        0.1079101562,       -0.2246093750,       -6.6375732422,       -5.2032470703,       -9.6282958984
1488505801.9490249157,1488505801.9513149261,        0.5883789062,        0.1108398438,       -0.2231445312,       -6.6375732422,       -5.2032470703,       -9.6282958984
1488505801.9515869617,1488505801.9541370869,        0.5883789062,        0.1108398438,       -0.2231445312,       -5.1574707031,       -4.9438476562,       -9.3536376953
1488505801.9544169903,1488505801.9567999840,        0.5883789062,        0.1108398438,       -0.2231445312,       -5.1574707031,       -4.9438476562,       -9.3536376953
1488505801.9570930004,1488505801.9595370293,        0.5883789062,        0.1108398438,       -0.2231445312,       -4.0283203125,       -4.5776367188,       -8.8806152344
1488505801.9598190784,1488505801.9623749256,        0.5698242188,        0.0986328125,       -0.2387695312,       -4.0283203125,       -4.5776367188,       -8.8806152344
1488505801.9626588821,1488505801.9650828838,        0.5698242188,        0.0986328125,       -0.2387695312,       -4.0130615234,       -4.4403076172,       -8.7890625000
1488505801.9653658867,1488505801.9677789211,        0.5698242188,        0.0986328125,       -0.2387695312,       -4.0130615234,       -4.4403076172,       -8.7890625000
1488505801.9680590630,1488505801.9704771042,        0.5698242188,        0.1157226562,       -0.2329101562,       -3.9520263672,       -4.7302246094,       -7.8430175781
1488505801.9707579613,1488505801.9731860161,        0.5903320312,        0.1157226562,       -0.2329101562,       -3.9520263672,       -4.7302246094,       -7.8430175781
1488505801.9734659195,1488505801.9758849144,        0.5903320312,        0.1157226562,       -0.2329101562,       -4.2572021484,       -4.7454833984,       -7.0648193359
1488505801.9761660099,1488505801.9785819054,        0.5903320312,        0.1157226562,       -0.2329101562,       -4.2572021484,       -4.7454833984,       -7.0648193359
1488505801.9788639545,1488505801.9812719822,        0.5678710938,        0.1162109375,       -0.2309570312,       -4.4708251953,       -4.5013427734,       -6.8359375000
1488505801.9815518856,1488505801.9839830399,        0.5678710938,        0.1162109375,       -0.2309570312,       -4.4708251953,       -4.5013427734,       -6.8359375000
1488505801.9842629433,1488505801.9866769314,        0.5678710938,        0.1162109375,       -0.2309570312,       -4.4555664062,       -4.9285888672,       -6.2255859375
1488505801.9869570732,1488505801.9893798828,        0.5678710938,        0.1162109375,       -0.2309570312,       -4.4555664062,       -4.9285888672,       -6.2255859375
1488505801.9896609783,1488505801.9921059608,        0.5864257812,        0.1005859375,       -0.2465820312,       -5.2490234375,       -4.6691894531,       -5.6304931641
1488505801.9923810959,1488505801.9946739674,        0.5864257812,        0.1005859375,       -0.2465820312,       -5.2490234375,       -4.6691894531,       -5.6304931641
1488505801.9949479103,1488505801.9972419739,        0.5864257812,        0.1005859375,       -0.2465820312,       -5.8593750000,       -4.9285888672,       -6.0882568359
1488505801.9975159168,1488505801.9998130798,        0.5864257812,        0.1005859375,       -0.2465820312,       -5.8593750000,       -4.9285888672,       -6.0882568359
1488505802.0000851154,1488505802.0023849010,        0.5839843750,        0.0878906250,       -0.2470703125,       -6.2408447266,       -5.2337646484,       -6.5460205078
1488505802.0026590824,1488505802.0049529076,        0.5839843750,        0.0878906250,       -0.2470703125,       -6.2408447266,       -5.2337646484,       -6.5460205078
1488505802.0053319931,1488505802.0076310635,        0.5839843750,        0.0878906250,       -0.2470703125,       -6.8817138672,       -5.2947998047,       -6.5155029297
1488505802.0079040527,1488505802.0101969242,        0.5839843750,        0.0878906250,       -0.2392578125,       -6.8817138672,       -5.2947998047,       -6.5155029297
1488505802.0104699135,1488505802.0128750801,        0.6093750000,        0.0859375000,       -0.2392578125,       -6.8817138672,       -4.8828125000,       -6.7596435547
1488505802.0131509304,1488505802.0154469013,        0.6093750000,        0.0859375000,       -0.2392578125,       -6.6528320312,       -4.8828125000,       -6.7596435547
1488505802.0157198906,1488505802.0180110931,        0.6093750000,        0.0859375000,       -0.2392578125,       -6.6528320312,       -4.8828125000,       -7.4920654297
1488505802.0182850361,1488505802.0205841064,        0.6093750000,        0.0859375000,       -0.2285156250,       -6.7291259766,       -4.9133300781,       -7.4920654297
1488505802.0208590031,1488505802.0232839584,        0.6030273438,        0.0766601562,       -0.2285156250,       -6.7291259766,       -4.9133300781,       -8.2397460938
1488505802.0235619545,1488505802.0258610249,        0.6030273438,        0.0766601562,       -0.2285156250,       -6.6986083984,       -4.7607421875,       -8.2397460938
1488505802.0261359215,1488505802.0284318924,        0.6030273438,        0.0766601562,       -0.2285156250,       -6.6986083984,       -4.7607421875,       -8.2397460938
1488505802.0287070274,1488505802.0310049057,        0.6030273438,        0.0869140625,       -0.2324218750,       -6.6833496094,       -5.1116943359,       -9.2926025391
1488505802.0312790871,1488505802.0338408947,        0.5927734375,        0.0869140625,       -0.2324218750,       -6.6833496094,       -5.1116943359,       -9.2926025391
1488505802.0341219902,1488505802.0365049839,        0.5927734375,        0.0869140625,       -0.2324218750,       -6.8054199219,       -5.2032470703,       -9.7045898438
1488505802.0367839336,1488505802.0395119190,        0.5927734375,        0.0869140625,       -0.2324218750,       -6.8054199219,       -5.2032470703,       -9.4451904297
1488505802.0397880077,1488505802.0421628952,        0.5966796875,        0.0874023438,       -0.2299804688,       -7.2479248047,       -4.9896240234,       -9.4451904297
1488505802.0424370766,1488505802.0447249413,        0.5966796875,        0.0874023438,       -0.2299804688,       -7.2479248047,       -4.9896240234,       -9.4451904297
1488505802.0450000763,1488505802.0472910404,        0.5966796875,        0.0874023438,       -0.2299804688,       -7.2631835938,       -4.9133300781,       -9.4604492188
1488505802.0475659370,1488505802.0498509407,        0.5966796875,        0.0874023438,       -0.2299804688,       -7.2631835938,       -4.9133300781,       -9.4604492188
1488505802.0501248837,1488505802.0527319908,        0.5893554688,        0.0986328125,       -0.2504882812,       -7.3089599609,       -4.7912597656,       -9.8876953125
1488505802.0530080795,1488505802.0553040504,        0.5893554688,        0.0986328125,       -0.2504882812,       -7.3089599609,       -4.7912597656,       -9.8876953125
1488505802.0555770397,1488505802.0578598976,        0.5893554688,        0.0986328125,       -0.2504882812,       -7.2631835938,       -4.8828125000,      -10.0555419922
1488505802.0581378937,1488505802.0604290962,        0.5893554688,        0.0986328125,       -0.2504882812,       -7.2631835938,       -4.8828125000,      -10.0555419922
1488505802.0607059002,1488505802.0630490780,        0.5957031250,        0.1171875000,       -0.2470703125,       -7.4920654297,       -5.1727294922,       -9.2620849609
1488505802.0633239746,1488505802.0656120777,        0.5957031250,        0.1171875000,       -0.2470703125,       -7.4920654297,       -5.1727294922,       -9.2620849609
1488505802.0658869743,1488505802.0681810379,        0.5957031250,        0.1171875000,       -0.2470703125,       -8.3770751953,       -5.2642822266,       -8.6975097656
1488505802.0685598850,1488505802.0708498955,        0.5957031250,        0.1171875000,       -0.2348632812,       -8.3770751953,       -5.2642822266,       -8.6975097656
1488505802.0711269379,1488505802.0734560490,        0.5820312500,        0.1357421875,       -0.2348632812,       -9.1705322266,       -5.7067871094,       -8.0871582031
1488505802.0737318993,1488505802.0760259628,        0.5820312500,        0.1357421875,       -0.2348632812,       -9.1705322266,       -5.7067871094,       -8.0871582031
1488505802.0762989521,1488505802.0785849094,        0.5820312500,        0.1357421875,       -0.2348632812,      -10.7269287109,       -5.8593750000,       -7.7972412109
1488505802.0788629055,1488505802.0811510086,        0.5820312500,        0.1357421875,       -0.2319335938,      -10.7269287109,       -5.8593750000,       -7.7972412109
1488505802.0814280510,1488505802.0837829113,        0.5815429688,        0.1367187500,       -0.2319335938,      -12.5732421875,       -5.8593750000,       -7.5836181641
1488505802.0840609074,1488505802.0863540173,        0.5815429688,        0.1367187500,       -0.2319335938,      -12.5732421875,       -5.8593750000,       -7.5836181641
1488505802.0866310596,1488505802.0889329910,        0.5815429688,        0.1367187500,       -0.2319335938,      -12.5732421875,       -5.7525634766,       -7.2021484375
1488505802.0892109871,1488505802.0915079117,        0.5815429688,        0.1274414062,       -0.2285156250,      -14.6026611328,       -5.7525634766,       -7.2021484375
1488505802.0918970108,1488505802.0943169594,        0.5869140625,        0.1274414062,       -0.2285156250,      -14.6026611328,       -5.7525634766,       -7.0343017578
1488505802.0946049690,1488505802.0970149040,        0.5869140625,        0.1274414062,       -0.2285156250,      -16.7236328125,       -5.4016113281,       -7.0343017578
1488505802.0973010063,1488505802.0997049809,        0.5869140625,        0.1274414062,       -0.2285156250,      -16.7236328125,       -5.4016113281,       -7.7209472656
1488505802.0999889374,1488505802.1024041176,        0.5830078125,        0.1137695312,       -0.2241210938,      -17.7917480469,       -5.8441162109,       -7.7209472656
1488505802.1026899815,1488505802.1051099300,        0.5830078125,        0.1137695312,       -0.2241210938,      -17.7917480469,       -5.8441162109,       -8.2244873047
1488505802.1053969860,1488505802.1078109741,        0.5830078125,        0.1137695312,       -0.2241210938,      -19.2413330078,       -6.1645507812,       -8.2244873047
1488505802.1080989838,1488505802.1105189323,        0.5830078125,        0.1137695312,       -0.2241210938,      -19.2413330078,       -6.1645507812,       -8.0108642578
1488505802.1108078957,1488505802.1132268906,        0.5966796875,        0.1225585938,       -0.2475585938,      -20.7824707031,       -6.3171386719,       -8.0108642578
1488505802.1135139465,1488505802.1159288883,        0.5966796875,        0.1225585938,       -0.2475585938,      -20.7824707031,       -6.3171386719,       -8.9569091797
1488505802.1162140369,1488505802.1186358929,        0.5966796875,        0.1225585938,       -0.2475585938,      -22.4761962891,       -6.2713623047,       -8.9569091797
1488505802.1189210415,1488505802.1213359833,        0.5966796875,        0.1225585938,       -0.2475585938,      -22.4761962891,       -6.2713623047,       -9.0637207031
1488505802.1216208935,1488505802.1239140034,        0.5942382812,        0.0888671875,       -0.2407226562,      -23.6663818359,       -6.0424804688,       -9.0637207031
1488505802.1241939068,1488505802.1264851093,        0.5942382812,        0.0888671875,       -0.2407226562,      -23.6663818359,       -6.0424804688,       -9.0637207031
1488505802.1267640591,1488505802.1290559769,        0.5942382812,        0.0888671875,       -0.2407226562,      -24.1699218750,       -5.3863525391,       -9.6435546875
1488505802.1293339729,1488505802.1316308975,        0.5942382812,        0.0888671875,       -0.2514648438,      -24.1699218750,       -5.3863525391,       -9.6435546875
1488505802.1319739819,1488505802.1343901157,        0.5888671875,        0.1030273438,       -0.2514648438,      -24.9481201172,       -5.3100585938,      -11.1389160156
1488505802.1347889900,1488505802.1372001171,        0.5888671875,        0.1030273438,       -0.2514648438,      -24.9481201172,       -5.3100585938,      -15.0451660156
1488505802.1374909878,1488505802.1399149895,        0.5888671875,        0.1030273438,       -0.2514648438,      -25.2838134766,       -4.9591064453,      -12.3138427734
1488505802.1402049065,1488505802.1426210403,        0.5791015625,        0.1113281250,       -0.2490234375,      -25.2838134766,       -4.9591064453,      -12.3138427734
1488505802.1429090500,1488505802.1453270912,        0.5791015625,        0.1113281250,       -0.2490234375,      -25.5279541016,       -4.6539306641,      -12.8631591797
1488505802.1456160545,1488505802.1482670307,        0.5791015625,        0.1113281250,       -0.2490234375,      -25.5279541016,       -4.6539306641,      -12.8631591797
1488505802.1485559940,1488505802.1509680748,        0.5791015625,        0.1113281250,       -0.2490234375,      -24.5056152344,       -4.6386718750,      -13.8092041016
1488505802.1512589455,1488505802.1541171074,        0.5791015625,        0.1059570312,       -0.2446289062,      -24.5056152344,       -0.7324218750,      -15.3503417969
1488505802.1544120312,1488505802.1568279266,        0.5791015625,        0.1059570312,       -0.2446289062,      -22.0794677734,       -3.5705566406,      -15.3503417969
1488505802.1571180820,1488505802.1595389843,        0.5791015625,        0.1059570312,       -0.2446289062,      -22.0794677734,       -3.5705566406,      -17.2424316406
1488505802.1598279476,1488505802.1622591019,        0.5791015625,        0.1059570312,       -0.2558593750,      -19.3023681641,       -2.3498535156,      -17.2424316406
1488505802.1625421047,1488505802.1648340225,        0.5581054688,        0.0947265625,       -0.2558593750,      -19.3023681641,       -2.3498535156,      -18.3868408203
1488505802.1651170254,1488505802.1674129963,        0.5581054688,        0.0947265625,       -0.2558593750,      -16.7236328125,       -1.8615722656,      -18.3868408203
1488505802.1676940918,1488505802.1699900627,        0.5581054688,        0.0947265625,       -0.2558593750,      -16.7236328125,       -1.8615722656,      -22.2930908203
1488505802.1702699661,1488505802.1726229191,        0.5581054688,        0.0854492188,       -0.2885742188,      -14.5416259766,       -1.7852783203,      -20.2941894531
1488505802.1729130745,1488505802.1753349304,        0.5742187500,        0.0854492188,       -0.2885742188,      -14.5416259766,       -1.7852783203,      -20.2941894531
1488505802.1756238937,1488505802.1780440807,        0.5742187500,        0.0854492188,       -0.2885742188,      -13.3819580078,       -1.1138916016,      -20.9655761719
1488505802.1783330441,1488505802.1807520390,        0.5742187500,        0.0854492188,       -0.2885742188,      -13.3819580078,       -1.1138916016,      -20.9655761719
1488505802.1810429096,1488505802.1834089756,        0.5932617188,        0.1074218750,       -0.2919921875,      -13.6260986328,       -0.3662109375,      -20.4315185547
1488505802.1836929321,1488505802.1859838963,        0.5932617188,        0.1074218750,       -0.2919921875,      -13.6260986328,       -0.3662109375,      -20.4315185547
1488505802.1862659454,1488505802.1885609627,        0.5932617188,        0.1074218750,       -0.2919921875,      -14.7399902344,        0.0000000000,      -21.0113525391
1488505802.1888420582,1488505802.1911370754,        0.5932617188,        0.1074218750,       -0.2919921875,      -14.7399902344,        0.0000000000,      -21.0113525391
1488505802.1914188862,1488505802.1937210560,        0.6015625000,        0.1147460938,       -0.2470703125,      -15.3961181641,        0.0915527344,      -21.4385986328
1488505802.1940050125,1488505802.1963069439,        0.6015625000,        0.1147460938,       -0.2470703125,      -15.3961181641,        0.0915527344,      -21.4385986328
1488505802.1965909004,1488505802.1988880634,        0.6015625000,        0.1147460938,       -0.2470703125,      -14.9993896484,        0.3662109375,      -21.8963623047
1488505802.1992790699,1488505802.2015740871,        0.6015625000,        0.1147460938,       -0.2470703125,      -14.9993896484,        0.3662109375,      -21.8963623047
1488505802.2020289898,1488505802.2043199539,        0.6010742188,        0.1093750000,       -0.2153320312,      -14.4348144531,        0.3814697266,      -22.9644775391
1488505802.2046039104,1488505802.2068998814,        0.6010742188,        0.1093750000,       -0.2153320312,      -14.4348144531,        0.3814697266,      -22.9644775391
1488505802.2071819305,1488505802.2094779015,        0.6010742188,        0.1093750000,       -0.2153320312,      -12.7105712891,        0.1068115234,      -23.6816406250
1488505802.2097609043,1488505802.2121961117,        0.6010742188,        0.1093750000,       -0.2153320312,      -12.7105712891,        0.1068115234,      -23.6816406250
1488505802.2124800682,1488505802.2147789001,        0.5961914062,        0.1289062500,       -0.2084960938,      -11.7797851562,        0.3662109375,      -24.1394042969
1488505802.2150619030,1488505802.2173581123,        0.5961914062,        0.1289062500,       -0.2084960938,      -11.7797851562,        0.3662109375,      -24.1394042969
1488505802.2176411152,1488505802.2199320793,        0.5961914062,        0.1289062500,       -0.2084960938,      -10.2691650391,        0.1525878906,      -24.7192382812
1488505802.2202138901,1488505802.2225770950,        0.5961914062,        0.1289062500,       -0.2299804688,      -10.2691650391,        0.1525878906,      -24.7192382812
1488505802.2228679657,1488505802.2254369259,        0.5937500000,        0.1264648438,       -0.2299804688,      -10.2691650391,        0.0305175781,      -26.0162353516
1488505802.2257199287,1488505802.2280158997,        0.5937500000,        0.1264648438,       -0.2299804688,       -8.6822509766,        0.0305175781,      -26.0162353516
1488505802.2282950878,1488505802.2305939198,        0.5937500000,        0.1264648438,       -0.2299804688,       -4.7760009766,        0.0152587891,      -26.0314941406
1488505802.2308731079,1488505802.2334129810,        0.5937500000,        0.1362304688,       -0.2329101562,       -7.2937011719,        0.0152587891,      -26.0314941406
1488505802.2336990833,1488505802.2360839844,        0.5791015625,        0.1362304688,       -0.2329101562,       -7.2937011719,        0.2593994141,      -26.6723632812
1488505802.2363700867,1488505802.2392768860,        0.5791015625,        0.1362304688,       -0.2329101562,       -6.2561035156,        0.2593994141,      -26.6723632812
1488505802.2395570278,1488505802.2419390678,        0.5791015625,        0.1362304688,       -0.2329101562,       -5.9814453125,        0.1373291016,      -26.7639160156
1488505802.2422180176,1488505802.2445120811,        0.5712890625,        0.1606445312,       -0.2431640625,       -5.9814453125,        0.1373291016,      -26.7639160156
1488505802.2447888851,1488505802.2470800877,        0.5712890625,        0.1606445312,       -0.2431640625,       -6.8359375000,        0.1831054688,      -26.0162353516
1488505802.2473568916,1488505802.2496480942,        0.5712890625,        0.1606445312,       -0.2431640625,       -6.8359375000,        0.1831054688,      -26.0162353516
1488505802.2499248981,1488505802.2522709370,        0.5712890625,        0.1606445312,       -0.2431640625,       -6.8359375000,        0.2593994141,      -25.3448486328
1488505802.2525489330,1488505802.2548370361,        0.5781250000,        0.1586914062,       -0.2680664062,       -7.6904296875,        0.2593994141,      -25.3448486328
1488505802.2551159859,1488505802.2573990822,        0.5781250000,        0.1586914062,       -0.2680664062,       -7.6904296875,        0.2593994141,      -25.3448486328
1488505802.2576780319,1488505802.2599658966,        0.5781250000,        0.1586914062,       -0.2680664062,       -8.6517333984,        0.5950927734,      -25.3448486328
1488505802.2602438927,1488505802.2625339031,        0.5781250000,        0.1586914062,       -0.2680664062,       -8.6517333984,        0.5950927734,      -25.3448486328
1488505802.2629189491,1488505802.2652080059,        0.5903320312,        0.1538085938,       -0.2666015625,       -9.5214843750,        0.5035400391,      -24.9176025391
1488505802.2654879093,1488505802.2677760124,        0.5903320312,        0.1538085938,       -0.2666015625,       -9.5214843750,        0.5035400391,      -24.9176025391
1488505802.2680540085,1488505802.2703430653,        0.5903320312,        0.1538085938,       -0.2666015625,      -10.0555419922,        0.8239746094,      -24.3072509766
1488505802.2706229687,1488505802.2729270458,        0.5903320312,        0.1538085938,       -0.2441406250,      -10.0555419922,        0.8239746094,      -24.3072509766
1488505802.2732090950,1488505802.2754969597,        0.5888671875,        0.1538085938,       -0.2441406250,      -10.1470947266,        0.9613037109,      -24.4293212891
1488505802.2757799625,1488505802.2780649662,        0.5888671875,        0.1538085938,       -0.2441406250,      -10.1470947266,        0.9613037109,      -24.4293212891
1488505802.2783479691,1488505802.2806360722,        0.5888671875,        0.1538085938,       -0.2441406250,       -9.5672607422,        0.8239746094,      -25.0549316406
1488505802.2809150219,1488505802.2833640575,        0.5888671875,        0.1538085938,       -0.2353515625,       -9.5672607422,        0.8239746094,      -25.0549316406
1488505802.2836420536,1488505802.2859349251,        0.5957031250,        0.1450195312,       -0.2353515625,       -9.0026855469,        0.9918212891,      -25.9246826172
1488505802.2862141132,1488505802.2885138988,        0.5957031250,        0.1450195312,       -0.2353515625,       -9.0026855469,        0.9918212891,      -25.9246826172
1488505802.2887918949,1488505802.2910840511,        0.5957031250,        0.1450195312,       -0.2353515625,       -8.7890625000,        1.5869140625,      -26.6265869141
1488505802.2913610935,1488505802.2938489914,        0.5957031250,        0.1484375000,       -0.2500000000,       -8.7890625000,        1.5869140625,      -26.6265869141
1488505802.2941339016,1488505802.2965509892,        0.6040039062,        0.1484375000,       -0.2500000000,       -7.9956054688,        2.0141601562,      -27.0690917969
1488505802.2968358994,1488505802.2992510796,        0.6040039062,        0.1484375000,       -0.2500000000,       -7.9956054688,        2.0141601562,      -27.0690917969
1488505802.2995378971,1488505802.3019659519,        0.6040039062,        0.1484375000,       -0.2500000000,       -7.9803466797,        2.5482177734,      -27.2979736328
1488505802.3022489548,1488505802.3046610355,        0.6074218750,        0.1499023438,       -0.2436523438,       -7.9803466797,        2.5482177734,      -27.2979736328
1488505802.3049449921,1488505802.3073599339,        0.6074218750,        0.1499023438,       -0.2436523438,       -7.8430175781,        2.7618408203,      -27.4963378906
1488505802.3076438904,1488505802.3100600243,        0.6074218750,        0.1499023438,       -0.2436523438,       -7.8430175781,        2.7618408203,      -27.4963378906
1488505802.3103449345,1488505802.3127200603,        0.6074218750,        0.1499023438,       -0.2436523438,       -9.1094970703,        2.5024414062,      -26.4892578125
1488505802.3129999638,1488505802.3152899742,        0.6289062500,        0.1689453125,       -0.2509765625,       -9.1094970703,        2.5024414062,      -26.4892578125
1488505802.3155689240,1488505802.3178589344,        0.6289062500,        0.1689453125,       -0.2509765625,      -11.5356445312,        2.7160644531,      -25.5432128906
1488505802.3181400299,1488505802.3204309940,        0.6289062500,        0.1689453125,       -0.2509765625,      -11.5356445312,        2.7160644531,      -25.5432128906
1488505802.3207108974,1488505802.3230550289,        0.6289062500,        0.1689453125,       -0.2509765625,      -11.5356445312,        2.6092529297,      -25.0701904297
1488505802.3233358860,1488505802.3256289959,        0.6181640625,        0.1674804688,       -0.2426757812,      -13.4277343750,        2.6092529297,      -25.0701904297
1488505802.3260200024,1488505802.3284089565,        0.6181640625,        0.1674804688,       -0.2426757812,      -13.4277343750,        2.6092529297,      -25.1464843750
1488505802.3286900520,1488505802.3309900761,        0.6181640625,        0.1674804688,       -0.2426757812,      -15.5334472656,        2.6245117188,      -25.1464843750
1488505802.3312699795,1488505802.3337650299,        0.6181640625,        0.1674804688,       -0.2329101562,      -15.5334472656,        2.6245117188,      -25.0091552734
1488505802.3340489864,1488505802.3363440037,        0.6083984375,        0.1875000000,       -0.2329101562,      -16.9677734375,        2.7770996094,      -25.0091552734
1488505802.3366239071,1488505802.3393599987,        0.6083984375,        0.1875000000,       -0.2329101562,      -16.9677734375,        2.8076171875,      -24.6429443359
1488505802.3396461010,1488505802.3420369625,        0.6083984375,        0.1875000000,       -0.2329101562,      -17.8527832031,        2.8076171875,      -24.6429443359
1488505802.3423209190,1488505802.3446080685,        0.6020507812,        0.1909179688,       -0.2197265625,      -17.8527832031,        2.8076171875,      -24.8107910156
1488505802.3448920250,1488505802.3471748829,        0.6020507812,        0.1909179688,       -0.2197265625,      -19.1040039062,        2.5177001953,      -24.8107910156
1488505802.3474578857,1488505802.3497550488,        0.6020507812,        0.1909179688,       -0.2197265625,      -19.1040039062,        2.5177001953,      -24.3530273438
1488505802.3500359058,1488505802.3523259163,        0.6020507812,        0.1909179688,       -0.2197265625,      -20.0195312500,        2.3803710938,      -24.3530273438
1488505802.3526079655,1488505802.3548979759,        0.5952148438,        0.1938476562,       -0.2231445312,      -20.0195312500,        2.3803710938,      -24.3530273438
1488505802.3551781178,1488505802.3574640751,        0.5952148438,        0.1938476562,       -0.2231445312,      -20.3704833984,        2.6550292969,      -24.3377685547
1488505802.3577449322,1488505802.3600330353,        0.5952148438,        0.1938476562,       -0.2231445312,      -20.3704833984,        2.6550292969,      -24.3377685547
1488505802.3603119850,1488505802.3626539707,        0.5952148438,        0.1938476562,       -0.2231445312,      -21.1029052734,        2.7618408203,      -24.2004394531
1488505802.3629341125,1488505802.3652210236,        0.5952148438,        0.2060546875,       -0.2167968750,      -21.1029052734,        2.7618408203,      -24.2004394531
1488505802.3655030727,1488505802.3677918911,        0.5952148438,        0.2060546875,       -0.2167968750,      -22.1557617188,        3.1585693359,      -24.3530273438
1488505802.3680729866,1488505802.3703629971,        0.5952148438,        0.2060546875,       -0.2167968750,      -22.1557617188,        3.1585693359,      -24.3530273438
1488505802.3706450462,1488505802.3729350567,        0.5952148438,        0.2060546875,       -0.2167968750,      -23.6663818359,        3.8146972656,      -23.2391357422
1488505802.3732159138,1488505802.3755109310,        0.6069335938,        0.2070312500,       -0.2231445312,      -23.6663818359,        3.8146972656,      -23.2391357422
1488505802.3757910728,1488505802.3780760765,        0.6069335938,        0.2070312500,       -0.2231445312,      -23.8800048828,        4.3182373047,      -22.9187011719
1488505802.3783578873,1488505802.3806469440,        0.6069335938,        0.2070312500,       -0.2231445312,      -23.8800048828,        4.3182373047,      -22.9187011719
1488505802.3809289932,1488505802.3833830357,        0.6069335938,        0.2070312500,       -0.2231445312,      -21.4843750000,        4.6539306641,      -23.4985351562
1488505802.3836660385,1488505802.3859610558,        0.6142578125,        0.1899414062,       -0.2060546875,      -21.4843750000,        4.6539306641,      -23.4985351562
1488505802.3862419128,1488505802.3885331154,        0.6142578125,        0.1899414062,       -0.2060546875,      -17.5781250000,        5.7067871094,      -24.3835449219
1488505802.3889229298,1488505802.3912220001,        0.6142578125,        0.1899414062,       -0.2060546875,      -18.2800292969,        5.7067871094,      -24.3835449219
1488505802.3915019035,1488505802.3940660954,        0.6142578125,        0.1899414062,       -0.2060546875,      -18.2800292969,        6.1492919922,      -24.6124267578
1488505802.3943560123,1488505802.3967790604,        0.5986328125,        0.1870117188,       -0.2226562500,      -16.5405273438,        6.1492919922,      -24.6124267578
1488505802.3970689774,1488505802.3994870186,        0.5986328125,        0.1870117188,       -0.2226562500,      -12.6342773438,        5.8288574219,      -25.3906250000
1488505802.3997740746,1488505802.4021980762,        0.5986328125,        0.1870117188,       -0.2226562500,      -14.7247314453,        5.8288574219,      -25.3906250000
1488505802.4024848938,1488505802.4049060345,        0.5986328125,        0.2001953125,       -0.2348632812,      -14.7247314453,        5.1574707031,      -25.6042480469
1488505802.4051940441,1488505802.4076089859,        0.5834960938,        0.2001953125,       -0.2348632812,      -13.2141113281,        5.1574707031,      -25.6042480469
1488505802.4078979492,1488505802.4103391171,        0.5834960938,        0.2001953125,       -0.2348632812,      -13.2141113281,        5.2795410156,      -26.3977050781
1488505802.4106309414,1488505802.4130280018,        0.5834960938,        0.2001953125,       -0.2348632812,      -12.7563476562,        5.2795410156,      -26.3977050781
1488505802.4133100510,1488505802.4156029224,        0.5864257812,        0.1967773438,       -0.2324218750,      -12.7563476562,        5.6304931641,      -26.7333984375
1488505802.4158840179,1488505802.4181869030,        0.5864257812,        0.1967773438,       -0.2324218750,      -12.4969482422,        5.6304931641,      -26.7333984375
1488505802.4184670448,1488505802.4207649231,        0.5864257812,        0.1967773438,       -0.2324218750,      -12.4969482422,        5.6304931641,      -26.8707275391
1488505802.4210460186,1488505802.4234418869,        0.5864257812,        0.1967773438,       -0.2324218750,      -11.9628906250,        5.7220458984,      -26.8707275391
1488505802.4237320423,1488505802.4261529446,        0.5961914062,        0.2167968750,       -0.2368164062,      -11.9628906250,        5.7220458984,      -27.0233154297
1488505802.4264400005,1488505802.4288599491,        0.5961914062,        0.2167968750,       -0.2368164062,      -12.1612548828,        6.2255859375,      -27.0233154297
1488505802.4291501045,1488505802.4315600395,        0.5961914062,        0.2167968750,       -0.2368164062,      -12.1612548828,        6.2255859375,      -26.9622802734
1488505802.4319479465,1488505802.4343640804,        0.5961914062,        0.2167968750,       -0.2368164062,      -13.0157470703,        6.6528320312,      -26.9622802734
1488505802.4346539974,1488505802.4370629787,        0.5961914062,        0.2133789062,       -0.2246093750,      -13.0157470703,        6.6528320312,      -27.0233154297
1488505802.4373509884,1488505802.4397621155,        0.5961914062,        0.2133789062,       -0.2246093750,      -13.6413574219,        7.1868896484,      -27.0233154297
1488505802.4400510788,1488505802.4425249100,        0.5961914062,        0.2133789062,       -0.2246093750,      -13.6413574219,        7.1868896484,      -26.7639160156
1488505802.4428150654,1488505802.4452440739,        0.5961914062,        0.2216796875,       -0.2114257812,      -14.4500732422,        7.8887939453,      -26.7639160156
1488505802.4455358982,1488505802.4480559826,        0.6210937500,        0.2216796875,       -0.2114257812,      -14.4500732422,        7.8887939453,      -26.9927978516
1488505802.4483439922,1488505802.4508121014,        0.6210937500,        0.2216796875,       -0.2114257812,      -15.5639648438,        8.4075927734,      -26.9927978516
1488505802.4514899254,1488505802.4540278912,        0.6210937500,        0.2216796875,       -0.2114257812,      -16.8914794922,        9.3841552734,      -27.3590087891
1488505802.4544460773,1488505802.4568591118,        0.6201171875,        0.2221679688,       -0.2163085938,      -16.8914794922,        9.3841552734,      -27.3590087891
1488505802.4571468830,1488505802.4595510960,        0.6201171875,        0.2221679688,       -0.2163085938,      -18.4173583984,       10.1623535156,      -27.5268554688
1488505802.4598419666,1488505802.4622709751,        0.6201171875,        0.2221679688,       -0.2163085938,      -18.4173583984,       10.1623535156,      -27.5268554688
1488505802.4625608921,1488505802.4648571014,        0.6201171875,        0.2221679688,       -0.2187500000,      -21.1181640625,       10.8489990234,      -27.1911621094
1488505802.4651460648,1488505802.4674420357,        0.6103515625,        0.2285156250,       -0.2187500000,      -21.1181640625,       10.8489990234,      -27.1911621094
1488505802.4677278996,1488505802.4700279236,        0.6103515625,        0.2285156250,       -0.2187500000,      -21.1181640625,       11.0778808594,      -27.1911621094
1488505802.4703109264,1488505802.4728109837,        0.6103515625,        0.2285156250,       -0.2187500000,      -24.2462158203,       11.0778808594,      -27.1911621094
1488505802.4731149673,1488505802.4755299091,        0.6103515625,        0.2250976562,       -0.2153320312,      -24.2462158203,       11.3983154297,      -28.0303955078
1488505802.4758229256,1488505802.4782319069,        0.6240234375,        0.2250976562,       -0.2153320312,      -26.2756347656,       11.3983154297,      -28.0303955078
1488505802.4785230160,1488505802.4809229374,        0.6240234375,        0.2250976562,       -0.2153320312,      -26.2756347656,       12.5122070312,      -28.5644531250
1488505802.4812150002,1488505802.4835650921,        0.6240234375,        0.2250976562,       -0.2153320312,      -27.6031494141,       12.5122070312,      -28.5644531250
1488505802.4838500023,1488505802.4861450195,        0.6528320312,        0.2207031250,       -0.2099609375,      -27.6031494141,       12.5122070312,      -29.0222167969
1488505802.4864299297,1488505802.4887259007,        0.6528320312,        0.2207031250,       -0.2099609375,      -28.0609130859,       13.4429931641,      -29.0222167969
1488505802.4890110493,1488505802.4913051128,        0.6528320312,        0.2207031250,       -0.2099609375,      -28.0609130859,       13.4429931641,      -29.4647216797
1488505802.4915900230,1488505802.4940440655,        0.6528320312,        0.2207031250,       -0.2099609375,      -27.2216796875,       14.6331787109,      -29.4647216797
1488505802.4943289757,1488505802.4966270924,        0.6557617188,        0.1953125000,       -0.2236328125,      -27.2216796875,       14.6331787109,      -29.4647216797
1488505802.4969100952,1488505802.4992029667,        0.6557617188,        0.1953125000,       -0.2236328125,      -25.6195068359,       15.3045654297,      -29.9224853516
1488505802.4994869232,1488505802.5018460751,        0.6557617188,        0.1953125000,       -0.2236328125,      -25.6195068359,       15.3045654297,      -29.9224853516
1488505802.5021491051,1488505802.5044600964,        0.6557617188,        0.1953125000,       -0.2236328125,      -24.5208740234,       15.1977539062,      -30.8837890625
1488505802.5047450066,1488505802.5070381165,        0.6494140625,        0.2065429688,       -0.2412109375,      -24.5208740234,       15.1977539062,      -30.8837890625
1488505802.5073208809,1488505802.5096108913,        0.6494140625,        0.2065429688,       -0.2412109375,      -24.4598388672,       15.5792236328,      -31.5246582031
1488505802.5098929405,1488505802.5122249126,        0.6494140625,        0.2065429688,       -0.2412109375,      -24.4598388672,       15.5792236328,      -31.5246582031
1488505802.5125160217,1488505802.5149331093,        0.6494140625,        0.2065429688,       -0.2412109375,      -24.7650146484,       14.9993896484,      -31.8145751953
1488505802.5152230263,1488505802.5176351070,        0.6406250000,        0.2070312500,       -0.2270507812,      -24.7650146484,       14.9993896484,      -31.8145751953
1488505802.5180380344,1488505802.5204510689,        0.6406250000,        0.2070312500,       -0.2270507812,      -24.1241455078,       14.9078369141,      -32.8979492188
1488505802.5207419395,1488505802.5231709480,        0.6406250000,        0.2070312500,       -0.2270507812,      -24.1241455078,       14.9078369141,      -32.8979492188
1488505802.5234630108,1488505802.5258820057,        0.6406250000,        0.2070312500,       -0.2036132812,      -23.1781005859,       15.0909423828,      -34.0576171875
1488505802.5261750221,1488505802.5285940170,        0.6435546875,        0.1977539062,       -0.2036132812,      -23.1781005859,       15.0909423828,      -34.0576171875
1488505802.5288860798,1488505802.5313038826,        0.6435546875,        0.1977539062,       -0.2036132812,      -21.5759277344,       15.5029296875,      -34.9578857422
1488505802.5315980911,1488505802.5340249538,        0.6435546875,        0.1977539062,       -0.2036132812,      -21.5759277344,       15.5029296875,      -34.9578857422
1488505802.5343160629,1488505802.5367360115,        0.6679687500,        0.1982421875,       -0.2084960938,      -19.9584960938,       15.7012939453,      -36.1022949219
1488505802.5370259285,1488505802.5394349098,        0.6679687500,        0.1982421875,       -0.2084960938,      -19.9584960938,       15.7012939453,      -36.1022949219
1488505802.5397269726,1488505802.5421559811,        0.6679687500,        0.1982421875,       -0.2084960938,      -18.7225341797,       15.9301757812,      -37.2619628906
1488505802.5424489975,1488505802.5448698997,        0.6679687500,        0.1982421875,       -0.2084960938,      -18.7225341797,       15.9301757812,      -37.2619628906
1488505802.5451610088,1488505802.5475759506,        0.6596679688,        0.2182617188,       -0.1923828125,      -17.6849365234,       16.4184570312,      -38.4063720703
1488505802.5478661060,1488505802.5502829552,        0.6596679688,        0.2182617188,       -0.1923828125,      -17.6849365234,       16.4184570312,      -38.4063720703
1488505802.5505740643,1488505802.5529439449,        0.6596679688,        0.2182617188,       -0.1923828125,      -16.7388916016,       16.6320800781,      -39.3829345703
1488505802.5532290936,1488505802.5555300713,        0.6596679688,        0.2182617188,       -0.1923828125,      -16.7388916016,       16.6320800781,      -39.3829345703
1488505802.5558130741,1488505802.5582311153,        0.6508789062,        0.2294921875,       -0.2016601562,      -17.1813964844,       16.1132812500,      -39.9322509766
1488505802.5585350990,1488505802.5608470440,        0.6508789062,        0.2294921875,       -0.2016601562,      -17.1813964844,       16.1132812500,      -39.9322509766
1488505802.5611360073,1488505802.5637850761,        0.6508789062,        0.2294921875,       -0.2016601562,      -17.9595947266,       16.1437988281,      -40.2374267578
1488505802.5640790462,1488505802.5664939880,        0.6508789062,        0.2324218750,       -0.1948242188,      -17.9595947266,       16.1437988281,      -40.2374267578
1488505802.5667850971,1488505802.5691969395,        0.6450195312,        0.2324218750,       -0.1948242188,      -19.2108154297,       15.6250000000,      -40.6799316406
1488505802.5694870949,1488505802.5719139576,        0.6450195312,        0.2324218750,       -0.1948242188,      -19.2108154297,       15.6250000000,      -40.6799316406
1488505802.5722041130,1488505802.5746200085,        0.6450195312,        0.2324218750,       -0.1948242188,      -20.7672119141,       15.0909423828,      -40.8630371094
1488505802.5749120712,1488505802.5773289204,        0.6411132812,        0.2314453125,       -0.1821289062,      -20.7672119141,       15.0909423828,      -40.8630371094
1488505802.5776190758,1488505802.5800330639,        0.6411132812,        0.2314453125,       -0.1821289062,      -21.6979980469,       14.3432617188,      -41.6259765625
1488505802.5803239346,1488505802.5827538967,        0.6411132812,        0.2314453125,       -0.1821289062,      -21.6979980469,       14.3432617188,      -41.6259765625
1488505802.5831549168,1488505802.5855700970,        0.6411132812,        0.2314453125,       -0.1821289062,      -22.0031738281,       14.0991210938,      -42.0532226562
1488505802.5858619213,1488505802.5882740021,        0.6406250000,        0.2216796875,       -0.1640625000,      -22.0031738281,       14.0991210938,      -42.0532226562
1488505802.5885660648,1488505802.5909829140,        0.6406250000,        0.2216796875,       -0.1640625000,      -22.0184326172,       13.9312744141,      -42.8161621094
1488505802.5912730694,1488505802.5936009884,        0.6406250000,        0.2216796875,       -0.1640625000,      -22.0184326172,       13.9312744141,      -42.8161621094
1488505802.5938849449,1488505802.5961821079,        0.6406250000,        0.2216796875,       -0.1547851562,      -22.3846435547,       13.5040283203,      -44.1436767578
1488505802.5964651108,1488505802.5987589359,        0.6430664062,        0.2402343750,       -0.1547851562,      -22.3846435547,       13.5040283203,      -44.1436767578
1488505802.5990428925,1488505802.6013379097,        0.6430664062,        0.2402343750,       -0.1547851562,      -23.1475830078,       14.0533447266,      -45.5322265625
1488505802.6016221046,1488505802.6039218903,        0.6430664062,        0.2402343750,       -0.1547851562,      -23.1475830078,       14.0533447266,      -45.5322265625
1488505802.6042070389,1488505802.6065020561,        0.6430664062,        0.3652343750,       -0.1518554688,      -24.5361328125,       13.9007568359,      -45.9136962891
1488505802.6067869663,1488505802.6090800762,        0.6323242188,        0.2626953125,       -0.1518554688,      -24.5361328125,       13.9007568359,      -45.9136962891
1488505802.6093630791,1488505802.6118199825,        0.6323242188,        0.2626953125,       -0.1518554688,      -24.5361328125,       13.6260986328,      -46.2493896484
1488505802.6121098995,1488505802.6144039631,        0.6323242188,        0.2626953125,       -0.1518554688,      -27.0538330078,       13.6260986328,      -46.2493896484
1488505802.6146869659,1488505802.6169819832,        0.5073242188,        0.2421875000,       -0.1748046875,      -27.0538330078,       13.9312744141,      -47.0275878906
1488505802.6172649860,1488505802.6195580959,        0.6142578125,        0.2421875000,       -0.1748046875,      -28.1982421875,       13.9312744141,      -47.0275878906
1488505802.6198399067,1488505802.6222679615,        0.6142578125,        0.2421875000,       -0.1748046875,      -28.1982421875,       13.9312744141,      -47.5463867188
1488505802.6225590706,1488505802.6249690056,        0.6142578125,        0.2421875000,       -0.1748046875,      -28.7017822266,       13.2141113281,      -47.5463867188
1488505802.6252601147,1488505802.6276628971,        0.6206054688,        0.2353515625,       -0.1909179688,      -28.7017822266,       13.2141113281,      -48.2330322266
1488505802.6279540062,1488505802.6303560734,        0.6206054688,        0.2353515625,       -0.1909179688,      -29.3884277344,       11.8255615234,      -48.2330322266
1488505802.6306459904,1488505802.6330909729,        0.6206054688,        0.2353515625,       -0.1909179688,      -29.3884277344,        7.9193115234,      -48.9044189453
1488505802.6333770752,1488505802.6358299255,        0.6206054688,        0.2353515625,       -0.1909179688,      -31.2500000000,       10.5743408203,      -48.9044189453
1488505802.6361150742,1488505802.6384170055,        0.6108398438,        0.2470703125,       -0.1860351562,      -31.2500000000,       10.5743408203,      -49.2553710938
1488505802.6387019157,1488505802.6409959793,        0.6108398438,        0.2470703125,       -0.1860351562,      -33.3251953125,        9.6282958984,      -49.2553710938
1488505802.6412789822,1488505802.6438479424,        0.6108398438,        0.2470703125,       -0.1860351562,      -33.3251953125,        9.6282958984,      -50.4150390625
1488505802.6441349983,1488505802.6465210915,        0.6108398438,        0.2470703125,       -0.1860351562,      -35.5529785156,        8.5754394531,      -50.4150390625
1488505802.6477160454,1488505802.6500060558,        0.6274414062,        0.2270507812,       -0.1958007812,      -36.8347167969,        7.2784423828,      -51.1627197266
1488505802.6502900124,1488505802.6525850296,        0.6274414062,        0.2270507812,       -0.1958007812,      -36.8347167969,        7.2784423828,      -51.1627197266
1488505802.6528658867,1488505802.6551599503,        0.6274414062,        0.2270507812,       -0.1958007812,      -36.8347167969,        6.3476562500,      -52.0019531250
1488505802.6554410458,1488505802.6577301025,        0.6459960938,        0.2202148438,       -0.2084960938,      -36.6973876953,        6.3476562500,      -52.0019531250
1488505802.6580100060,1488505802.6603109837,        0.6459960938,        0.2202148438,       -0.2084960938,      -36.6973876953,        6.3476562500,      -52.4444580078
1488505802.6605908871,1488505802.6628899574,        0.6459960938,        0.2202148438,       -0.2084960938,      -37.6586914062,        4.7607421875,      -52.4444580078
1488505802.6631720066,1488505802.6654651165,        0.6459960938,        0.2202148438,       -0.2084960938,      -37.6586914062,        4.7607421875,      -53.7261962891
1488505802.6657459736,1488505802.6680281162,        0.6694335938,        0.2363281250,       -0.1933593750,      -39.2608642578,        3.4179687500,      -53.7261962891
1488505802.6683089733,1488505802.6706049442,        0.6694335938,        0.2363281250,       -0.1933593750,      -39.2608642578,        3.4179687500,      -53.7261962891
1488505802.6708850861,1488505802.6732289791,        0.6694335938,        0.2363281250,       -0.1933593750,      -40.5426025391,        2.4108886719,      -54.4281005859
1488505802.6735119820,1488505802.6758019924,        0.6694335938,        0.2363281250,       -0.1933593750,      -40.5426025391,        2.4108886719,      -54.4281005859
1488505802.6760840416,1488505802.6783719063,        0.6606445312,        0.2504882812,       -0.1948242188,      -41.3208007812,        0.8697509766,      -54.2602539062
1488505802.6786549091,1488505802.6809461117,        0.6606445312,        0.2504882812,       -0.1948242188,      -41.3208007812,        0.8697509766,      -54.2602539062
1488505802.6812279224,1488505802.6835229397,        0.6606445312,        0.2504882812,       -0.1948242188,      -41.0003662109,       -0.4577636719,      -54.1229248047
1488505802.6838049889,1488505802.6860959530,        0.6606445312,        0.2504882812,       -0.1948242188,      -41.0003662109,       -0.4577636719,      -54.1229248047
1488505802.6863770485,1488505802.6886639595,        0.6582031250,        0.2343750000,       -0.1977539062,      -38.4063720703,       -2.3193359375,      -54.7485351562
1488505802.6889450550,1488505802.6912350655,        0.6582031250,        0.2343750000,       -0.1977539062,      -38.4063720703,       -2.3193359375,      -54.7485351562
1488505802.6915159225,1488505802.6939580441,        0.6582031250,        0.2343750000,       -0.1977539062,      -35.6597900391,       -3.7536621094,      -55.2825927734
1488505802.6942400932,1488505802.6965310574,        0.6582031250,        0.2343750000,       -0.1977539062,      -35.6597900391,       -3.7536621094,      -55.2825927734
1488505802.6968119144,1488505802.6991031170,        0.6640625000,        0.2475585938,       -0.1923828125,      -34.1949462891,       -5.1727294922,      -55.2215576172
1488505802.6993830204,1488505802.7018110752,        0.6640625000,        0.2475585938,       -0.1923828125,      -34.1949462891,       -5.1727294922,      -55.2215576172
1488505802.7021009922,1488505802.7045030594,        0.6640625000,        0.2475585938,       -0.1923828125,      -34.1186523438,       -6.1950683594,      -54.8400878906
1488505802.7047901154,1488505802.7071990967,        0.6640625000,        0.2475585938,       -0.1923828125,      -34.1186523438,       -6.1950683594,      -54.8400878906
1488505802.7074859142,1488505802.7098898888,        0.6479492188,        0.2714843750,       -0.1948242188,      -34.0881347656,       -7.2937011719,      -54.2144775391
1488505802.7102808952,1488505802.7126948833,        0.6479492188,        0.2714843750,       -0.1948242188,      -34.0881347656,       -7.2937011719,      -54.2144775391
1488505802.7129850388,1488505802.7153871059,        0.6479492188,        0.2714843750,       -0.1948242188,      -32.8979492188,       -8.2244873047,      -55.1757812500
1488505802.7156739235,1488505802.7180728912,        0.6479492188,        0.2827148438,       -0.2104492188,      -32.8979492188,       -8.2244873047,      -55.1757812500
1488505802.7183589935,1488505802.7207610607,        0.6616210938,        0.2827148438,       -0.2104492188,      -32.9895019531,       -8.0871582031,      -55.7556152344
1488505802.7210481167,1488505802.7235019207,        0.6616210938,        0.2827148438,       -0.2104492188,      -32.9895019531,       -8.0871582031,      -55.7556152344
1488505802.7237880230,1488505802.7261900902,        0.6616210938,        0.2827148438,       -0.2104492188,      -33.2946777344,       -7.7056884766,      -55.5419921875
1488505802.7264790535,1488505802.7288858891,        0.6625976562,        0.2856445312,       -0.2338867188,      -33.2946777344,       -7.7056884766,      -55.5419921875
1488505802.7291719913,1488505802.7315709591,        0.6625976562,        0.2856445312,       -0.2338867188,      -35.1715087891,       -9.0332031250,      -54.9621582031
1488505802.7319018841,1488505802.7343080044,        0.6625976562,        0.2856445312,       -0.2338867188,      -35.1715087891,       -9.0332031250,      -54.9621582031
1488505802.7345950603,1488505802.7370030880,        0.6625976562,        0.2856445312,       -0.2338867188,      -39.0777587891,       -9.8724365234,      -54.2297363281
1488505802.7374029160,1488505802.7397129536,        0.6342773438,        0.3149414062,       -0.2250976562,      -40.8020019531,       -9.8724365234,      -54.2297363281
1488505802.7399969101,1488505802.7424709797,        0.6342773438,        0.3149414062,       -0.2250976562,      -48.6145019531,      -10.8795166016,      -55.0537109375
1488505802.7427630424,1488505802.7451519966,        0.6342773438,        0.3149414062,       -0.2250976562,      -48.3245849609,      -10.8795166016,      -55.0537109375
1488505802.7454419136,1488505802.7481179237,        0.6342773438,        0.3149414062,       -0.2485351562,      -56.1370849609,      -12.0544433594,      -55.8776855469
1488505802.7484149933,1488505802.7507278919,        0.6220703125,        0.3183593750,       -0.2485351562,      -55.2978515625,      -12.0544433594,      -55.8776855469
1488505802.7510149479,1488505802.7534279823,        0.6220703125,        0.3183593750,       -0.2485351562,      -62.5305175781,      -12.3596191406,      -56.0302734375
1488505802.7537128925,1488505802.7560019493,        0.6220703125,        0.3183593750,       -0.2485351562,      -62.5305175781,      -12.3596191406,      -56.0302734375
1488505802.7562849522,1488505802.7585780621,        0.5659179688,        0.3369140625,       -0.3066406250,      -66.4367675781,      -12.9699707031,      -55.8624267578
1488505802.7588629723,1488505802.7611520290,        0.5659179688,        0.3369140625,       -0.3066406250,      -68.4814453125,      -12.9699707031,      -55.8624267578
1488505802.7614369392,1488505802.7637300491,        0.5659179688,        0.3369140625,       -0.3066406250,      -68.4814453125,      -12.9699707031,      -54.5806884766
1488505802.7640159130,1488505802.7663021088,        0.5659179688,        0.3369140625,       -0.3066406250,      -72.3266601562,      -14.5874023438,      -54.5806884766
1488505802.7665860653,1488505802.7688720226,        0.5610351562,        0.2456054688,       -0.3666992188,      -72.3266601562,      -14.5874023438,      -53.9703369141
1488505802.7691590786,1488505802.7714500427,        0.5610351562,        0.2456054688,       -0.3666992188,      -74.6459960938,      -15.6250000000,      -53.9703369141
1488505802.7717258930,1488505802.7740139961,        0.5610351562,        0.2456054688,       -0.3666992188,      -74.6459960938,      -15.6250000000,      -53.9703369141
1488505802.7742979527,1488505802.7765839100,        0.5610351562,        0.2456054688,       -0.3666992188,      -78.8574218750,      -16.4794921875,      -52.6580810547
1488505802.7769761086,1488505802.7792708874,        0.4916992188,        0.1889648438,       -0.3784179688,      -78.8574218750,      -16.4794921875,      -52.6580810547
1488505802.7795550823,1488505802.7819008827,        0.4916992188,        0.1889648438,       -0.3784179688,      -83.9080810547,      -18.4173583984,      -48.8281250000
1488505802.7821850777,1488505802.7844839096,        0.4916992188,        0.1889648438,       -0.3784179688,      -83.9080810547,      -18.4173583984,      -48.8281250000
1488505802.7847690582,1488505802.7870559692,        0.4916992188,        0.1889648438,       -0.3784179688,      -91.0644531250,      -20.2178955078,      -42.2668457031
1488505802.7873399258,1488505802.7896280289,        0.4331054688,        0.0883789062,       -0.3598632812,      -91.0644531250,      -20.2178955078,      -42.2668457031
1488505802.7899119854,1488505802.7922410965,        0.4331054688,        0.0883789062,       -0.3598632812,     -100.6469726562,      -19.8059082031,      -34.9578857422
1488505802.7925269604,1488505802.7948150635,        0.4331054688,        0.0883789062,       -0.3598632812,     -100.6469726562,      -19.8059082031,      -34.9578857422
1488505802.7951009274,1488505802.7973930836,        0.4331054688,        0.0883789062,       -0.3598632812,     -112.2436523438,      -17.6544189453,      -26.6113281250
1488505802.7976789474,1488505802.7999749184,        0.3891601562,        0.0068359375,       -0.2885742188,     -112.2436523438,      -17.6544189453,      -26.6113281250
1488505802.8002591133,1488505802.8026390076,        0.3891601562,        0.0068359375,       -0.2885742188,     -123.6877441406,      -16.1590576172,      -16.7083740234
1488505802.8029279709,1488505802.8052179813,        0.3891601562,        0.0068359375,       -0.2885742188,     -123.6877441406,      -16.1590576172,      -16.7083740234
1488505802.8055028915,1488505802.8077919483,        0.3891601562,        0.0068359375,       -0.2885742188,     -130.9661865234,      -16.0827636719,       -6.6070556641
1488505802.8080720901,1488505802.8103559017,        0.3818359375,       -0.1059570312,       -0.2065429688,     -130.9661865234,      -16.0827636719,       -6.6070556641
1488505802.8106369972,1488505802.8129370213,        0.3818359375,       -0.1059570312,       -0.2065429688,     -130.9661865234,      -16.8304443359,        0.7476806641
1488505802.8132209778,1488505802.8155100346,        0.3818359375,       -0.1059570312,       -0.2065429688,     -135.7574462891,      -16.8304443359,        0.7476806641
1488505802.8157939911,1488505802.8180840015,        0.3818359375,       -0.1059570312,       -0.2065429688,     -135.7574462891,      -16.8304443359,        6.7443847656
1488505802.8183639050,1488505802.8206601143,        0.3676757812,       -0.0834960938,       -0.1601562500,     -139.8925781250,      -16.5252685547,        6.7443847656
1488505802.8209419250,1488505802.8233640194,        0.3676757812,       -0.0834960938,       -0.1601562500,     -139.8925781250,      -16.5252685547,       14.1906738281
1488505802.8236560822,1488505802.8260600567,        0.3676757812,       -0.0834960938,       -0.1601562500,     -141.1590576172,      -15.3045654297,       14.1906738281
1488505802.8263540268,1488505802.8287520409,        0.3676757812,       -0.2084960938,       -0.1118164062,     -141.1590576172,      -15.3045654297,       23.3306884766
1488505802.8290429115,1488505802.8314468861,        0.3930664062,       -0.1596679688,       -0.1118164062,     -139.4500732422,      -14.7094726562,       23.3306884766
1488505802.8317511082,1488505802.8341600895,        0.3930664062,       -0.1596679688,       -0.1118164062,     -139.4500732422,      -14.7094726562,       30.5938720703
1488505802.8344500065,1488505802.8368530273,        0.3930664062,       -0.1596679688,       -0.1118164062,     -136.6119384766,      -15.5487060547,       30.5938720703
1488505802.8371438980,1488505802.8395409584,        0.3706054688,       -0.1494140625,       -0.0844726562,     -136.6119384766,      -15.5487060547,       38.4063720703
1488505802.8399500847,1488505802.8424539566,        0.3706054688,       -0.1494140625,       -0.0844726562,     -134.3383789062,      -16.2963867188,       36.2548828125
1488505802.8427419662,1488505802.8450319767,        0.3706054688,       -0.1494140625,       -0.0844726562,     -134.3383789062,      -16.2963867188,       41.7938232422
1488505802.8453168869,1488505802.8476119041,        0.3706054688,       -0.1494140625,       -0.0844726562,     -130.9204101562,      -15.8081054688,       41.7938232422
1488505802.8478980064,1488505802.8501870632,        0.3740234375,       -0.1186523438,       -0.0571289062,     -130.9204101562,      -15.8081054688,       41.7938232422
1488505802.8504719734,1488505802.8527750969,        0.3740234375,       -0.1186523438,       -0.0571289062,     -128.0670166016,      -15.2435302734,       47.6684570312
1488505802.8530600071,1488505802.8553559780,        0.3740234375,       -0.1186523438,       -0.0571289062,     -128.0670166016,      -15.2435302734,       47.6684570312
