time_stamp before, time_stamp after, Acceleration x, Acceleration y, Acceleration z, Gyro x, Gyro y, Gyro z
1488506103.0292809010,1488506103.0351870060,        0.8989257812,        0.2016601562,       -0.2094726562,      -45.6237792969,        6.7291259766,      -73.6236572266
1488506103.0354959965,1488506103.0382940769,        0.8989257812,        0.2016601562,       -0.2094726562,      -47.1496582031,        6.5460205078,      -75.1800537109
1488506103.0385980606,1488506103.0408890247,        0.8989257812,        0.2016601562,       -0.2094726562,      -47.1496582031,        6.5460205078,      -75.1800537109
1488506103.0411689281,1488506103.0435609818,        0.9106445312,        0.1708984375,       -0.1787109375,      -48.0804443359,        6.4697265625,      -77.2247314453
1488506103.0438499451,1488506103.0462620258,        0.9106445312,        0.1708984375,       -0.1787109375,      -48.0804443359,        6.4697265625,      -77.2247314453
1488506103.0465490818,1488506103.0489609241,        0.9106445312,        0.1708984375,       -0.1787109375,      -49.0417480469,        6.2255859375,      -80.0933837891
1488506103.0492470264,1488506103.0517039299,        0.9106445312,        0.1708984375,       -0.1787109375,      -49.0417480469,        6.2255859375,      -80.0933837891
1488506103.0519900322,1488506103.0544059277,        0.9453125000,        0.1152343750,       -0.1562500000,      -49.8504638672,        6.5612792969,      -84.0148925781
1488506103.0546929836,1488506103.0571138859,        0.9453125000,        0.1152343750,       -0.1562500000,      -49.8504638672,        6.5612792969,      -84.0148925781
1488506103.0574018955,1488506103.0598189831,        0.9453125000,        0.1152343750,       -0.1562500000,      -48.3551025391,        6.1492919922,      -89.0045166016
1488506103.0601069927,1488506103.0624940395,        0.9453125000,        0.1152343750,       -0.1577148438,      -48.3551025391,        6.1492919922,      -89.0045166016
1488506103.0627760887,1488506103.0650680065,        0.9448242188,        0.1127929688,       -0.1577148438,      -46.8597412109,        7.2174072266,      -95.2301025391
1488506103.0653479099,1488506103.0676310062,        0.9448242188,        0.1127929688,       -0.1577148438,      -46.8597412109,        7.2174072266,      -95.2301025391
1488506103.0679121017,1488506103.0702021122,        0.9448242188,        0.1127929688,       -0.1577148438,      -47.1191406250,        6.3476562500,     -100.3265380859
1488506103.0704829693,1488506103.0728418827,        0.9448242188,        0.0810546875,       -0.1650390625,      -47.1191406250,        6.3476562500,     -100.3265380859
1488506103.0731229782,1488506103.0754148960,        0.8979492188,        0.0810546875,       -0.1650390625,      -44.3420410156,        3.8757324219,     -102.6458740234
1488506103.0756978989,1488506103.0779969692,        0.8979492188,        0.0810546875,       -0.1650390625,      -44.3420410156,        3.8757324219,     -102.6458740234
1488506103.0782780647,1488506103.0806748867,        0.8979492188,        0.0810546875,       -0.1650390625,      -41.6412353516,        4.1961669922,     -107.5134277344
1488506103.0809569359,1488506103.0834760666,        0.9731445312,        0.0625000000,       -0.2060546875,      -41.6412353516,        4.1961669922,     -107.5134277344
1488506103.0837609768,1488506103.0860610008,        0.9731445312,        0.0625000000,       -0.2060546875,      -40.3900146484,        5.1422119141,     -112.8540039062
1488506103.0863459110,1488506103.0886409283,        0.9731445312,        0.0625000000,       -0.2060546875,      -40.3900146484,        5.1422119141,     -112.8540039062
1488506103.0889229774,1488506103.0912199020,        0.9731445312,        0.0625000000,       -0.2060546875,      -40.3900146484,        5.2947998047,     -114.3493652344
1488506103.0915019512,1488506103.0940461159,        1.0532226562,        0.0341796875,       -0.2548828125,      -40.5731201172,        5.2947998047,     -114.3493652344
1488506103.0943338871,1488506103.0967190266,        1.0532226562,        0.0341796875,       -0.2548828125,      -40.5731201172,        6.9427490234,     -120.0561523438
1488506103.0977730751,1488506103.1001870632,        1.0532226562,        0.0341796875,       -0.2548828125,      -40.7562255859,        6.9427490234,     -120.0561523438
1488506103.1004769802,1488506103.1029260159,        1.0532226562,        0.0341796875,       -0.3149414062,      -41.5496826172,        8.0261230469,     -123.3367919922
1488506103.1032149792,1488506103.1056149006,        1.0859375000,        0.0454101562,       -0.3149414062,      -41.5496826172,        8.0261230469,     -123.3367919922
1488506103.1059029102,1488506103.1083099842,        1.0859375000,        0.0454101562,       -0.3149414062,      -42.1905517578,        8.1787109375,     -125.6713867188
1488506103.1086020470,1488506103.1110060215,        1.0859375000,        0.0454101562,       -0.3149414062,      -42.1905517578,        8.1787109375,     -125.6713867188
1488506103.1112940311,1488506103.1137590408,        1.0874023438,       -0.0493164062,       -0.4335937500,      -44.7540283203,       10.1165771484,     -129.5013427734
1488506103.1140511036,1488506103.1164669991,        1.0874023438,       -0.0493164062,       -0.4335937500,      -44.7540283203,       10.1165771484,     -129.5013427734
1488506103.1167609692,1488506103.1191790104,        1.0874023438,       -0.0493164062,       -0.4335937500,      -63.3697509766,       10.0708007812,     -128.2348632812
1488506103.1194698811,1488506103.1218910217,        1.0874023438,       -0.0493164062,       -0.4335937500,      -63.3697509766,       10.0708007812,     -128.2348632812
1488506103.1221790314,1488506103.1244630814,        1.0498046875,       -0.1152343750,       -0.2797851562,      -67.2149658203,        2.4414062500,     -128.2958984375
1488506103.1247460842,1488506103.1270360947,        1.0498046875,       -0.1152343750,       -0.2797851562,      -67.2149658203,        2.4414062500,     -128.2958984375
1488506103.1273179054,1488506103.1296129227,        1.0498046875,       -0.1152343750,       -0.2797851562,      -72.4945068359,       -0.4272460938,     -130.0811767578
1488506103.1298940182,1488506103.1321918964,        1.0498046875,       -0.1152343750,       -0.2797851562,      -72.4945068359,       -0.4272460938,     -130.0811767578
1488506103.1324739456,1488506103.1347689629,        1.1186523438,       -0.2202148438,       -0.4345703125,      -72.4945068359,       -0.2136230469,     -133.4075927734
1488506103.1350510120,1488506103.1373391151,        1.1186523438,       -0.2202148438,       -0.4345703125,      -79.2236328125,       -0.2136230469,     -133.4075927734
1488506103.1376221180,1488506103.1399190426,        1.1186523438,       -0.2202148438,       -0.4345703125,      -79.2236328125,       -0.2136230469,     -136.0931396484
1488506103.1401998997,1488506103.1426119804,        1.1186523438,       -0.2202148438,       -0.4345703125,      -85.7696533203,       -3.7689208984,     -136.0931396484
1488506103.1428918839,1488506103.1451869011,        1.0976562500,       -0.2719726562,       -0.4692382812,      -85.7696533203,       -3.7689208984,     -134.6282958984
1488506103.1454689503,1488506103.1477599144,        1.0976562500,       -0.2719726562,       -0.4692382812,      -93.7194824219,       -9.2773437500,     -134.6282958984
1488506103.1480400562,1488506103.1503429413,        1.0976562500,       -0.2719726562,       -0.4692382812,      -93.7194824219,       -9.2773437500,     -134.6282958984
1488506103.1506240368,1488506103.1530990601,        1.0976562500,       -0.2719726562,       -0.5942382812,     -103.0578613281,      -13.7176513672,     -134.6740722656
1488506103.1533939838,1488506103.1558179855,        1.1552734375,       -0.3041992188,       -0.5102539062,     -103.0578613281,      -13.7176513672,     -134.6740722656
1488506103.1561110020,1488506103.1585249901,        1.1552734375,       -0.3041992188,       -0.5102539062,     -111.2060546875,      -16.6473388672,     -136.4440917969
1488506103.1588189602,1488506103.1612329483,        1.1552734375,       -0.3041992188,       -0.5102539062,     -111.2060546875,      -16.6473388672,     -140.3503417969
1488506103.1616380215,1488506103.1641099453,        1.2299804688,       -0.2114257812,       -0.5161132812,     -115.8447265625,      -19.9890136719,     -139.9230957031
1488506103.1644029617,1488506103.1668190956,        1.2299804688,       -0.2114257812,       -0.5161132812,     -115.8447265625,      -19.9890136719,     -143.8293457031
1488506103.1671099663,1488506103.1695261002,        1.2299804688,       -0.2114257812,       -0.5161132812,     -120.9411621094,      -22.8424072266,     -142.7307128906
1488506103.1698169708,1488506103.1722149849,        1.2299804688,       -0.2114257812,       -0.5161132812,     -120.9411621094,      -22.8424072266,     -142.7307128906
1488506103.1725010872,1488506103.1747889519,        1.2387695312,       -0.2104492188,       -0.4921875000,     -126.1749267578,      -22.6898193359,     -142.2882080078
1488506103.1750750542,1488506103.1773710251,        1.2387695312,       -0.2104492188,       -0.4921875000,     -126.1749267578,      -22.6898193359,     -142.2882080078
1488506103.1776549816,1488506103.1799468994,        1.2387695312,       -0.2104492188,       -0.4921875000,     -129.1656494141,      -22.0642089844,     -137.2528076172
1488506103.1802299023,1488506103.1825709343,        1.2387695312,       -0.2104492188,       -0.4921875000,     -129.1656494141,      -22.0642089844,     -137.2528076172
1488506103.1828639507,1488506103.1852829456,        1.1337890625,       -0.2465820312,       -0.5605468750,     -129.9438476562,      -19.1345214844,     -133.1787109375
1488506103.1855781078,1488506103.1879920959,        1.1337890625,       -0.2465820312,       -0.5605468750,     -129.9438476562,      -19.1345214844,     -133.1787109375
1488506103.1882839203,1488506103.1907019615,        1.1337890625,       -0.2465820312,       -0.5605468750,     -127.5024414062,      -14.8925781250,     -128.5400390625
1488506103.1909949780,1488506103.1934208870,        1.1337890625,       -0.2465820312,       -0.6855468750,     -127.5024414062,      -14.8925781250,     -128.5400390625
1488506103.1937139034,1488506103.1962089539,        1.1137695312,       -0.2373046875,       -0.6337890625,     -114.4561767578,      -11.3830566406,     -125.1678466797
1488506103.1965010166,1488506103.1989219189,        1.1137695312,       -0.2373046875,       -0.6337890625,     -114.4561767578,      -11.3830566406,     -125.1678466797
1488506103.1992149353,1488506103.2016329765,        1.1137695312,       -0.2373046875,       -0.6337890625,      -99.7619628906,       -8.1176757812,     -126.5106201172
1488506103.2019679546,1488506103.2043869495,        1.2387695312,       -0.1196289062,       -0.5234375000,      -99.7619628906,       -8.1176757812,     -126.5106201172
1488506103.2046759129,1488506103.2070939541,        1.1274414062,       -0.1196289062,       -0.5234375000,      -88.4399414062,       -8.5296630859,     -126.9531250000
1488506103.2073841095,1488506103.2099111080,        1.1274414062,       -0.1196289062,       -0.5234375000,      -88.4399414062,       -8.5296630859,     -126.9531250000
1488506103.2102019787,1488506103.2132639885,        1.1274414062,       -0.1196289062,       -0.5234375000,      -86.7004394531,      -11.8713378906,     -129.4860839844
1488506103.2135510445,1488506103.2158410549,        1.0761718750,        0.0502929688,       -0.3745117188,      -86.7004394531,      -11.8713378906,     -131.1645507812
1488506103.2161269188,1488506103.2184119225,        1.0761718750,        0.0502929688,       -0.3745117188,      -72.6623535156,      -14.6942138672,     -131.1645507812
1488506103.2186961174,1488506103.2209908962,        1.0761718750,        0.0502929688,       -0.3745117188,      -72.6623535156,      -14.6942138672,     -131.1645507812
1488506103.2212760448,1488506103.2236909866,        1.0761718750,        0.0502929688,       -0.4350585938,      -64.3920898438,      -20.5078125000,     -125.8239746094
1488506103.2239770889,1488506103.2262670994,        0.6606445312,        0.4594726562,       -0.4350585938,      -64.3920898438,      -20.5078125000,     -125.8239746094
1488506103.2266650200,1488506103.2289500237,        0.6606445312,        0.4594726562,       -0.4350585938,      -71.7620849609,      -21.5606689453,     -123.0773925781
1488506103.2292380333,1488506103.2315208912,        0.6606445312,        0.4594726562,       -0.4350585938,      -71.7620849609,      -21.5606689453,     -123.0773925781
1488506103.2318060398,1488506103.2341279984,        0.6606445312,        0.3344726562,       -0.4135742188,      -98.3581542969,      -18.2495117188,     -114.1510009766
1488506103.2344141006,1488506103.2367041111,        0.5444335938,        0.3105468750,       -0.4135742188,      -98.3581542969,      -18.2495117188,     -114.1510009766
1488506103.2369890213,1488506103.2392768860,        0.5444335938,        0.3105468750,       -0.4135742188,     -118.7438964844,      -16.0217285156,      -94.3908691406
1488506103.2395620346,1488506103.2419090271,        0.5444335938,        0.3105468750,       -0.4135742188,     -118.7438964844,      -16.0217285156,      -94.3908691406
1488506103.2421939373,1488506103.2444829941,        0.5444335938,       -0.2480468750,       -0.3339843750,     -108.9477539062,      -16.0369873047,      -77.5299072266
1488506103.2447659969,1488506103.2470610142,        0.7119140625,       -0.2480468750,       -0.3339843750,     -108.9477539062,      -16.0369873047,      -77.5299072266
1488506103.2473440170,1488506103.2496330738,        0.7119140625,       -0.2480468750,       -0.3339843750,      -83.5266113281,      -16.5405273438,      -60.2722167969
1488506103.2499160767,1488506103.2522120476,        0.7119140625,       -0.2480468750,       -0.3339843750,      -83.5266113281,      -16.5405273438,      -60.2722167969
1488506103.2524960041,1488506103.2547910213,        0.4619140625,       -0.4350585938,       -0.2509765625,      -69.7021484375,      -18.3715820312,      -41.3818359375
1488506103.2550759315,1488506103.2573649883,        0.4833984375,       -0.4350585938,       -0.2509765625,      -69.7021484375,      -18.3715820312,      -41.3818359375
1488506103.2576498985,1488506103.2599370480,        0.4833984375,       -0.4350585938,       -0.2509765625,      -69.7021484375,      -18.8751220703,      -29.3121337891
1488506103.2602241039,1488506103.2626590729,        0.4833984375,       -0.4350585938,       -0.2509765625,      -62.4847412109,      -18.8751220703,      -29.3121337891
1488506103.2629449368,1488506103.2652359009,        0.4467773438,       -0.4809570312,       -0.1201171875,      -62.4847412109,      -18.8751220703,      -19.9890136719
1488506103.2655210495,1488506103.2678229809,        0.4467773438,       -0.4809570312,       -0.1201171875,      -55.1757812500,      -16.3879394531,      -19.9890136719
1488506103.2681078911,1488506103.2704000473,        0.4467773438,       -0.4809570312,       -0.1201171875,      -55.1757812500,      -16.3879394531,      -10.9252929688
1488506103.2706840038,1488506103.2732110023,        0.4467773438,       -0.4809570312,       -0.1201171875,      -45.2575683594,      -16.0827636719,      -10.9252929688
1488506103.2735040188,1488506103.2759239674,        0.3217773438,       -0.4599609375,       -0.0512695312,      -45.2575683594,      -16.0827636719,       -1.0681152344
1488506103.2762129307,1488506103.2786269188,        0.3217773438,       -0.4599609375,       -0.0512695312,      -30.8532714844,      -19.0124511719,       -1.0681152344
1488506103.2789170742,1488506103.2813339233,        0.3217773438,       -0.4599609375,       -0.0512695312,      -30.8532714844,      -19.0124511719,        7.9650878906
1488506103.2816209793,1488506103.2840430737,        0.3217773438,       -0.4599609375,       -0.0512695312,      -14.7247314453,      -21.3317871094,        7.9650878906
1488506103.2843320370,1488506103.2867488861,        0.2397460938,       -0.4101562500,       -0.0610351562,      -14.7247314453,      -21.3317871094,       17.2882080078
1488506103.2870430946,1488506103.2894620895,        0.2397460938,       -0.4101562500,       -0.0610351562,       -1.1444091797,      -20.0042724609,       17.2882080078
1488506103.2898590565,1488506103.2923219204,        0.2397460938,       -0.4101562500,       -0.0610351562,       -1.1444091797,      -20.0042724609,       26.3061523438
1488506103.2926130295,1488506103.2950301170,        0.2397460938,       -0.2724609375,       -0.0776367188,        9.8876953125,      -18.9971923828,       26.3061523438
1488506103.2953190804,1488506103.2977368832,        0.2045898438,       -0.2724609375,       -0.0776367188,        9.8876953125,      -18.9971923828,       36.7126464844
1488506103.2980260849,1488506103.3004379272,        0.2045898438,       -0.2724609375,       -0.0776367188,       17.1661376953,      -21.5606689453,       36.7126464844
1488506103.3007299900,1488506103.3030869961,        0.2045898438,       -0.2724609375,       -0.0776367188,       17.1661376953,      -21.5606689453,       47.0428466797
1488506103.3033730984,1488506103.3056681156,        0.2509765625,       -0.1601562500,       -0.1396484375,       22.4304199219,      -21.8505859375,       47.0428466797
1488506103.3059530258,1488506103.3082449436,        0.2509765625,       -0.1601562500,       -0.1396484375,       22.4304199219,      -21.8505859375,       54.8553466797
1488506103.3085300922,1488506103.3108260632,        0.2509765625,       -0.1601562500,       -0.1396484375,       26.9470214844,      -20.9960937500,       57.7850341797
1488506103.3111109734,1488506103.3134589195,        0.2509765625,       -0.1601562500,       -0.1396484375,       26.9470214844,      -20.9960937500,       57.7850341797
1488506103.3137419224,1488506103.3160359859,        0.1933593750,       -0.1459960938,       -0.1601562500,       31.9824218750,      -21.3317871094,       69.7631835938
1488506103.3163199425,1488506103.3186140060,        0.1933593750,       -0.1459960938,       -0.1601562500,       31.9824218750,      -21.3317871094,       69.7631835938
1488506103.3188989162,1488506103.3211901188,        0.1933593750,       -0.1459960938,       -0.1601562500,       37.4603271484,      -22.5067138672,       82.8399658203
1488506103.3214740753,1488506103.3239200115,        0.1933593750,       -0.1459960938,       -0.1601562500,       37.4603271484,      -22.5067138672,       82.8399658203
1488506103.3242149353,1488506103.3266348839,        0.1909179688,       -0.1181640625,       -0.1655273438,       41.5191650391,      -22.3388671875,       94.5892333984
1488506103.3269279003,1488506103.3294329643,        0.1909179688,       -0.1181640625,       -0.1655273438,       41.5191650391,      -22.3388671875,       94.5892333984
1488506103.3297290802,1488506103.3321530819,        0.1909179688,       -0.1181640625,       -0.1655273438,       44.7998046875,      -22.7203369141,      106.2011718750
1488506103.3324480057,1488506103.3348629475,        0.1909179688,       -0.1181640625,       -0.1655273438,       44.7998046875,      -22.7203369141,      106.2011718750
1488506103.3351559639,1488506103.3375749588,        0.2231445312,       -0.1611328125,       -0.1479492188,       49.2401123047,      -23.6358642578,      116.9281005859
1488506103.3378679752,1488506103.3402819633,        0.2231445312,       -0.1611328125,       -0.1479492188,       49.2401123047,      -23.6358642578,      116.9281005859
1488506103.3405730724,1488506103.3429999352,        0.2231445312,       -0.1611328125,       -0.1479492188,       55.0842285156,      -24.7344970703,      126.6632080078
1488506103.3432929516,1488506103.3457050323,        0.2231445312,       -0.1943359375,       -0.1464843750,       55.0842285156,      -24.7344970703,      126.6632080078
1488506103.3459980488,1488506103.3484170437,        0.2475585938,       -0.1943359375,       -0.1464843750,       62.0574951172,      -25.5584716797,      135.4064941406
1488506103.3487079144,1488506103.3511259556,        0.2475585938,       -0.1943359375,       -0.1464843750,       62.0574951172,      -25.5584716797,      135.4064941406
1488506103.3514180183,1488506103.3538410664,        0.2475585938,       -0.1943359375,       -0.1464843750,       67.6116943359,      -26.8096923828,      144.4091796875
1488506103.3542408943,1488506103.3566548824,        0.2680664062,       -0.1538085938,       -0.1225585938,       67.6116943359,      -26.8096923828,      144.4091796875
1488506103.3569500446,1488506103.3593680859,        0.2680664062,       -0.1538085938,       -0.1225585938,       71.0449218750,      -27.7252197266,      152.6947021484
1488506103.3596599102,1488506103.3621010780,        0.2680664062,       -0.1538085938,       -0.1225585938,       71.0449218750,      -27.7252197266,      152.6947021484
1488506103.3623900414,1488506103.3646790981,        0.2680664062,       -0.1538085938,       -0.1225585938,       72.5708007812,      -28.1372070312,      161.1785888672
1488506103.3649671078,1488506103.3672630787,        0.3232421875,       -0.1093750000,       -0.1098632812,       72.5708007812,      -28.1372070312,      161.1785888672
1488506103.3675498962,1488506103.3698439598,        0.3232421875,       -0.1093750000,       -0.1098632812,       72.7844238281,      -27.8472900391,      169.3878173828
1488506103.3701300621,1488506103.3725829124,        0.3232421875,       -0.1093750000,       -0.1098632812,       72.7844238281,      -27.8472900391,      169.3878173828
1488506103.3728690147,1488506103.3751659393,        0.3232421875,       -0.1093750000,       -0.1098632812,       72.9827880859,      -27.6794433594,      177.6733398438
1488506103.3754520416,1488506103.3777410984,        0.3823242188,       -0.0395507812,       -0.1083984375,       72.9827880859,      -27.6794433594,      177.6733398438
1488506103.3780279160,1488506103.3803200722,        0.3823242188,       -0.0395507812,       -0.1083984375,       72.4029541016,      -28.3050537109,      185.8367919922
1488506103.3806059361,1488506103.3830490112,        0.3823242188,       -0.0395507812,       -0.1083984375,       72.4029541016,      -28.3050537109,      185.8367919922
1488506103.3833460808,1488506103.3858199120,        0.3823242188,        0.0854492188,       -0.1040039062,       71.5942382812,      -28.5644531250,      194.2749023438
1488506103.3861079216,1488506103.3884019852,        0.4472656250,        0.0043945312,       -0.1040039062,       71.5942382812,      -28.5644531250,      194.2749023438
1488506103.3886890411,1488506103.3909819126,        0.4472656250,        0.0043945312,       -0.1040039062,       70.9381103516,      -28.3508300781,      200.4699707031
1488506103.3912699223,1488506103.3938241005,        0.4472656250,        0.0043945312,       -0.1040039062,       70.9381103516,      -28.3508300781,      200.4699707031
1488506103.3941180706,1488506103.3965020180,        0.5117187500,        0.0668945312,       -0.1054687500,       70.1141357422,      -27.3742675781,      206.8939208984
1488506103.3967950344,1488506103.3992769718,        0.5117187500,        0.0668945312,       -0.1054687500,       70.1141357422,      -27.3742675781,      206.8939208984
1488506103.3995690346,1488506103.4022440910,        0.5117187500,        0.0668945312,       -0.1054687500,       70.0683593750,      -26.6418457031,      213.1195068359
1488506103.4025518894,1488506103.4049329758,        0.5117187500,        0.0668945312,       -0.1054687500,       70.0683593750,      -26.6418457031,      213.1195068359
1488506103.4052240849,1488506103.4075200558,        0.5629882812,        0.1289062500,       -0.1035156250,       70.4040527344,      -25.7263183594,      218.6584472656
1488506103.4078080654,1488506103.4101059437,        0.5629882812,        0.1289062500,       -0.1035156250,       70.4040527344,      -25.7263183594,      218.6584472656
1488506103.4103920460,1488506103.4127559662,        0.5629882812,        0.1289062500,       -0.1035156250,       67.1691894531,      -24.7039794922,      222.7325439453
1488506103.4130489826,1488506103.4154639244,        0.5629882812,        0.1289062500,       -0.1035156250,       67.1691894531,      -24.7039794922,      222.7325439453
1488506103.4157578945,1488506103.4181818962,        0.6279296875,        0.1474609375,       -0.0737304688,       66.6198730469,      -23.1933593750,      228.3935546875
1488506103.4185760021,1488506103.4209949970,        0.6279296875,        0.1474609375,       -0.0737304688,       66.6198730469,      -23.1933593750,      228.3935546875
1488506103.4212880135,1488506103.4237260818,        0.6279296875,        0.1474609375,       -0.0737304688,       69.7174072266,      -20.8129882812,      234.4055175781
1488506103.4240200520,1488506103.4264369011,        0.6279296875,        0.1069335938,       -0.0805664062,       69.7174072266,      -20.8129882812,      234.4055175781
1488506103.4267320633,1488506103.4291510582,        0.6313476562,        0.1069335938,       -0.0805664062,       70.7092285156,      -19.1192626953,      239.6392822266
1488506103.4294469357,1488506103.4319059849,        0.6313476562,        0.1069335938,       -0.0805664062,       70.7092285156,      -19.1192626953,      239.6392822266
1488506103.4321930408,1488506103.4344859123,        0.6313476562,        0.1069335938,       -0.0805664062,       74.1271972656,      -18.1579589844,      245.2545166016
1488506103.4347720146,1488506103.4370660782,        0.6806640625,        0.0717773438,       -0.0971679688,       74.1271972656,      -18.1579589844,      245.2545166016
1488506103.4373519421,1488506103.4396529198,        0.6806640625,        0.0717773438,       -0.0971679688,       81.9396972656,      -17.1966552734,      247.7569580078
1488506103.4399380684,1488506103.4422869682,        0.6806640625,        0.0717773438,       -0.0971679688,       81.3751220703,      -17.1966552734,      247.7569580078
1488506103.4425721169,1488506103.4448709488,        0.6806640625,        0.0717773438,       -0.0971679688,       81.3751220703,      -17.1966552734,      248.1384277344
1488506103.4451570511,1488506103.4474520683,        0.7324218750,        0.0849609375,       -0.1596679688,       87.0361328125,      -17.1356201172,      248.1384277344
1488506103.4477379322,1488506103.4500269890,        0.7324218750,        0.0849609375,       -0.1596679688,       87.0361328125,      -17.1356201172,      250.9460449219
1488506103.4503130913,1488506103.4527769089,        0.7324218750,        0.0849609375,       -0.1596679688,       89.2944335938,      -16.4794921875,      250.9460449219
1488506103.4530630112,1488506103.4553589821,        0.7324218750,        0.0849609375,       -0.1596679688,       89.2944335938,      -16.4794921875,      254.6997070312
1488506103.4556450844,1488506103.4579401016,        0.7397460938,        0.0834960938,       -0.1767578125,       90.2252197266,      -16.3116455078,      254.6997070312
1488506103.4582281113,1488506103.4605219364,        0.7397460938,        0.0834960938,       -0.1767578125,       90.2252197266,      -16.3116455078,      254.6997070312
1488506103.4608089924,1488506103.4638400078,        0.7397460938,        0.0834960938,       -0.1767578125,       93.5516357422,      -16.1285400391,      256.0882568359
1488506103.4641439915,1488506103.4670701027,        0.7397460938,        0.0834960938,       -0.1982421875,      101.3641357422,      -16.5557861328,      257.4768066406
1488506103.4673900604,1488506103.4697918892,        0.7802734375,        0.0600585938,       -0.1982421875,       98.9532470703,      -16.5557861328,      257.4768066406
1488506103.4700860977,1488506103.4725019932,        0.7802734375,        0.0600585938,       -0.1982421875,      102.8594970703,      -16.8609619141,      259.1857910156
1488506103.4727959633,1488506103.4751999378,        0.7802734375,        0.0600585938,       -0.1982421875,      104.4921875000,      -16.8609619141,      259.1857910156
1488506103.4754920006,1488506103.4778919220,        0.8383789062,        0.0747070312,       -0.2104492188,      108.3984375000,      -16.6931152344,      261.3067626953
1488506103.4781839848,1488506103.4805850983,        0.8383789062,        0.0747070312,       -0.2104492188,      108.4899902344,      -16.6931152344,      261.3067626953
1488506103.4808781147,1488506103.4832940102,        0.8383789062,        0.0747070312,       -0.2104492188,      112.3962402344,      -16.9830322266,      264.5721435547
1488506103.4835870266,1488506103.4859879017,        0.8383789062,        0.0747070312,       -0.2104492188,      112.8234863281,      -16.9830322266,      264.5721435547
1488506103.4864308834,1488506103.4888329506,        0.8857421875,        0.0917968750,       -0.2177734375,      120.6359863281,      -16.9677734375,      268.6157226562
1488506103.4891240597,1488506103.4915289879,        0.8857421875,        0.0917968750,       -0.2177734375,      117.3553466797,      -16.9677734375,      268.6157226562
1488506103.4918310642,1488506103.4942390919,        0.8857421875,        0.0917968750,       -0.2177734375,      117.3553466797,      -16.2658691406,      272.7661132812
1488506103.4945299625,1488506103.4969389439,        0.8857421875,        0.2167968750,       -0.2143554688,      120.1934814453,      -16.2658691406,      272.7661132812
1488506103.4972290993,1488506103.4996330738,        0.9360351562,        0.1386718750,       -0.2143554688,      120.1934814453,      -14.7705078125,      276.7181396484
1488506103.4999260902,1488506103.5023438931,        0.9360351562,        0.1386718750,       -0.2143554688,      120.5291748047,      -14.7705078125,      276.7181396484
1488506103.5026359558,1488506103.5050458908,        0.9360351562,        0.1386718750,       -0.2143554688,      120.5291748047,      -13.1072998047,      279.2816162109
1488506103.5053379536,1488506103.5077381134,        1.0141601562,        0.1621093750,       -0.2324218750,      120.8038330078,      -13.1072998047,      279.2816162109
1488506103.5080289841,1488506103.5104339123,        1.0141601562,        0.1621093750,       -0.2324218750,      124.7100830078,      -10.5743408203,      280.4870605469
1488506103.5107250214,1488506103.5131518841,        1.0141601562,        0.1621093750,       -0.2324218750,      122.3297119141,      -10.5743408203,      280.4870605469
1488506103.5134460926,1488506103.5158638954,        1.0141601562,        0.1621093750,       -0.2324218750,      122.3297119141,       -8.4533691406,      282.5927734375
1488506103.5161519051,1488506103.5186579227,        1.0751953125,        0.1923828125,       -0.2500000000,      123.8708496094,       -8.4533691406,      282.5927734375
1488506103.5189499855,1488506103.5213708878,        1.0751953125,        0.1923828125,       -0.2500000000,      123.8708496094,       -6.9122314453,      283.6456298828
1488506103.5216999054,1488506103.5241160393,        1.0751953125,        0.1923828125,       -0.2500000000,      123.3978271484,       -6.9122314453,      283.6456298828
1488506103.5244030952,1488506103.5268208981,        1.0751953125,        0.1923828125,       -0.3750000000,      123.3978271484,       -4.0283203125,      284.4390869141
1488506103.5271120071,1488506103.5295250416,        1.1606445312,        0.2714843750,       -0.2700195312,      122.6959228516,       -4.0283203125,      284.4390869141
1488506103.5298130512,1488506103.5322370529,        1.1606445312,        0.2714843750,       -0.2700195312,      118.7896728516,       -1.5258789062,      285.5834960938
1488506103.5325250626,1488506103.5349440575,        1.1606445312,        0.2714843750,       -0.2700195312,      120.5291748047,       -1.5258789062,      285.5834960938
1488506103.5352320671,1488506103.5376510620,        1.1606445312,        0.3388671875,       -0.3061523438,      116.6229248047,       -0.1068115234,      286.7279052734
1488506103.5379400253,1488506103.5403609276,        1.2343750000,        0.3388671875,       -0.3061523438,      116.3330078125,       -0.1068115234,      286.7279052734
1488506103.5406520367,1488506103.5431089401,        1.2343750000,        0.3388671875,       -0.3061523438,      108.5205078125,        3.2958984375,      288.2385253906
1488506103.5433979034,1488506103.5458168983,        1.2343750000,        0.3388671875,       -0.3061523438,      108.2763671875,        3.2958984375,      288.2385253906
1488506103.5461049080,1488506103.5485270023,        1.3061523438,        0.3486328125,       -0.2719726562,      100.4638671875,        6.5917968750,      289.0777587891
1488506103.5488140583,1488506103.5512290001,        1.3061523438,        0.3486328125,       -0.2719726562,      100.3570556641,        6.5917968750,      289.0777587891
1488506103.5516250134,1488506103.5539269447,        1.3061523438,        0.3486328125,       -0.2719726562,       92.5445556641,        9.6588134766,      288.1164550781
1488506103.5542089939,1488506103.5565030575,        1.3061523438,        0.3486328125,       -0.2719726562,       93.6584472656,        9.6588134766,      288.1164550781
1488506103.5567839146,1488506103.5590739250,        1.3867187500,        0.3271484375,       -0.2778320312,       93.6584472656,       13.5650634766,      284.8663330078
1488506103.5593609810,1488506103.5618131161,        1.3867187500,        0.3271484375,       -0.2778320312,       87.9669189453,       11.7645263672,      284.8663330078
1488506103.5621008873,1488506103.5643920898,        1.3867187500,        0.3271484375,       -0.2778320312,       87.9669189453,       11.7645263672,      281.0058593750
1488506103.5646760464,1488506103.5669689178,        1.3867187500,        0.3271484375,       -0.2778320312,       82.9162597656,       13.2751464844,      281.0058593750
1488506103.5672519207,1488506103.5695490837,        1.4140625000,        0.3364257812,       -0.3115234375,       82.9162597656,       13.2751464844,      277.0996093750
1488506103.5698330402,1488506103.5723381042,        1.4140625000,        0.3364257812,       -0.3115234375,       79.0252685547,       14.4500732422,      276.6876220703
1488506103.5726308823,1488506103.5750489235,        1.4140625000,        0.3364257812,       -0.3115234375,       79.0252685547,       14.4500732422,      272.7813720703
1488506103.5753390789,1488506103.5777568817,        1.4140625000,        0.4614257812,       -0.3857421875,       76.2481689453,       15.5181884766,      269.6533203125
1488506103.5780489445,1488506103.5804650784,        1.4790039062,        0.4228515625,       -0.3857421875,       76.2481689453,       15.5181884766,      257.9345703125
1488506103.5807549953,1488506103.5831849575,        1.4790039062,        0.4228515625,       -0.3857421875,       71.9299316406,       16.6168212891,      260.3149414062
1488506103.5834760666,1488506103.5858910084,        1.4790039062,        0.4228515625,       -0.3857421875,       71.9299316406,       16.6168212891,      252.5024414062
1488506103.5861830711,1488506103.5885970592,        1.4331054688,        0.5468750000,       -0.4179687500,       66.2536621094,       17.1966552734,      250.2136230469
1488506103.5888900757,1488506103.5913739204,        1.4331054688,        0.5468750000,       -0.4179687500,       66.2536621094,       17.1966552734,      234.5886230469
1488506103.5918340683,1488506103.5941278934,        1.4331054688,        0.5468750000,       -0.4179687500,       59.2956542969,       17.6849365234,      238.0981445312
1488506103.5944120884,1488506103.5967121124,        1.4331054688,        0.5468750000,       -0.4179687500,       59.2956542969,       17.6849365234,      226.3793945312
1488506103.5970790386,1488506103.5993731022,        1.2670898438,        0.6816406250,       -0.3945312500,       52.9479980469,       17.1813964844,      223.2055664062
1488506103.5996570587,1488506103.6022360325,        1.2670898438,        0.6816406250,       -0.3945312500,       52.9479980469,       17.1813964844,      203.6743164062
1488506103.6025230885,1488506103.6048130989,        1.2670898438,        0.6816406250,       -0.3945312500,       49.6215820312,       14.2364501953,      206.0394287109
1488506103.6050999165,1488506103.6073889732,        1.2670898438,        0.6816406250,       -0.3945312500,       49.6215820312,       14.2364501953,      206.0394287109
1488506103.6076738834,1488506103.6099679470,        1.0615234375,        0.8129882812,       -0.4511718750,       49.1333007812,       10.4217529297,      187.4389648438
1488506103.6102540493,1488506103.6126630306,        1.0615234375,        0.8129882812,       -0.4511718750,       49.1333007812,       10.4217529297,      187.4389648438
1488506103.6129469872,1488506103.6152329445,        1.0615234375,        0.8129882812,       -0.4511718750,       50.5828857422,        4.8370361328,      167.2210693359
1488506103.6156220436,1488506103.6179139614,        1.0615234375,        0.8129882812,       -0.5024414062,       50.5828857422,        4.8370361328,      167.2210693359
1488506103.6181941032,1488506103.6204819679,        0.8183593750,        1.0097656250,       -0.5024414062,       48.8739013672,       -1.6784667969,      147.5067138672
1488506103.6207630634,1488506103.6230869293,        0.8183593750,        1.0097656250,       -0.5024414062,       48.8739013672,       -1.6784667969,      147.5067138672
1488506103.6233680248,1488506103.6256549358,        0.8183593750,        1.0097656250,       -0.5024414062,       42.1752929688,       -9.8571777344,      129.8217773438
1488506103.6259369850,1488506103.6282250881,        0.8183593750,        1.2597656250,       -0.4873046875,       42.1752929688,       -9.8571777344,      129.8217773438
1488506103.6285059452,1488506103.6308000088,        0.6914062500,        1.2900390625,       -0.4873046875,       29.0069580078,      -16.5710449219,      113.3575439453
1488506103.6310849190,1488506103.6334240437,        0.6914062500,        1.2900390625,       -0.4873046875,       29.0069580078,      -16.5710449219,      113.3575439453
1488506103.6337110996,1488506103.6360011101,        0.6914062500,        1.2900390625,       -0.4873046875,       12.2680664062,      -19.9279785156,       93.4448242188
1488506103.6362869740,1488506103.6385788918,        0.6914062500,        1.4731445312,       -0.3872070312,       12.2680664062,      -19.9279785156,       93.4448242188
1488506103.6388640404,1488506103.6411540508,        0.6474609375,        1.4731445312,       -0.3872070312,       -7.2631835938,      -21.4691162109,       69.4122314453
1488506103.6414349079,1488506103.6437311172,        0.6474609375,        1.4731445312,       -0.3872070312,       -4.8065185547,      -21.4691162109,       69.4122314453
1488506103.6440138817,1488506103.6462988853,        0.6474609375,        1.4731445312,       -0.3872070312,       -4.8065185547,      -21.4691162109,       44.4641113281
1488506103.6465790272,1488506103.6488630772,        0.6474609375,        1.4042968750,       -0.2768554688,      -17.6391601562,      -22.8271484375,       44.4641113281
1488506103.6491479874,1488506103.6514389515,        0.7192382812,        1.4042968750,       -0.2768554688,      -17.6391601562,      -22.8271484375,       18.8446044922
1488506103.6518290043,1488506103.6541230679,        0.7192382812,        1.4042968750,       -0.2768554688,      -23.9868164062,      -21.7742919922,       18.8446044922
1488506103.6544070244,1488506103.6566970348,        0.7192382812,        1.4042968750,       -0.2768554688,      -23.9868164062,      -21.7742919922,       -4.5928955078
1488506103.6569759846,1488506103.6592659950,        0.8813476562,        1.2915039062,       -0.2187500000,      -26.9470214844,      -17.2424316406,       -6.2713623047
1488506103.6595480442,1488506103.6618580818,        0.8813476562,        1.2915039062,       -0.2187500000,      -26.9470214844,      -17.2424316406,       -6.2713623047
1488506103.6621420383,1488506103.6644339561,        0.8813476562,        1.2915039062,       -0.2187500000,      -25.8789062500,      -10.7879638672,      -31.9213867188
1488506103.6647191048,1488506103.6670100689,        0.8813476562,        1.2915039062,       -0.2187500000,      -25.8789062500,      -10.7879638672,      -31.9213867188
1488506103.6672949791,1488506103.6695809364,        0.9189453125,        1.1884765625,       -0.1967773438,      -23.6968994141,       -3.9978027344,      -56.8237304688
1488506103.6698620319,1488506103.6721630096,        0.9189453125,        1.1884765625,       -0.1967773438,      -23.6968994141,       -3.9978027344,      -56.8237304688
1488506103.6724429131,1488506103.6747310162,        0.9189453125,        1.1884765625,       -0.1967773438,      -20.5535888672,        1.0681152344,      -80.4595947266
1488506103.6750109196,1488506103.6773009300,        0.9189453125,        1.1884765625,       -0.1967773438,      -20.5535888672,        1.0681152344,      -80.4595947266
1488506103.6777009964,1488506103.6799910069,        0.9233398438,        1.1474609375,       -0.2080078125,      -18.3563232422,        3.4484863281,     -104.0039062500
1488506103.6802740097,1488506103.6826179028,        0.9233398438,        1.1474609375,       -0.2080078125,      -18.3563232422,        3.4484863281,     -104.0039062500
1488506103.6829080582,1488506103.6853289604,        0.9233398438,        1.1474609375,       -0.2080078125,      -16.1895751953,        5.3710937500,     -124.4506835938
1488506103.6856169701,1488506103.6880319118,        0.9233398438,        1.1474609375,       -0.2080078125,      -16.1895751953,        5.3710937500,     -124.4506835938
1488506103.6883199215,1488506103.6907389164,        0.8461914062,        1.0468750000,       -0.2348632812,      -13.3361816406,        5.5084228516,     -142.8375244141
1488506103.6910269260,1488506103.6933629513,        0.8461914062,        1.0468750000,       -0.2348632812,      -13.3361816406,        5.5084228516,     -142.8375244141
1488506103.6936450005,1488506103.6959390640,        0.8461914062,        1.0468750000,       -0.2348632812,      -10.9558105469,        3.5247802734,     -162.2314453125
1488506103.6962211132,1488506103.6985120773,        0.8461914062,        1.0468750000,       -0.3598632812,      -10.9558105469,        3.5247802734,     -162.2314453125
1488506103.6987938881,1488506103.7010951042,        0.7963867188,        0.9658203125,       -0.2861328125,       -9.6588134766,        1.1749267578,     -179.2907714844
1488506103.7013750076,1488506103.7037920952,        0.7963867188,        0.9658203125,       -0.2861328125,       -9.6588134766,        1.1749267578,     -179.2907714844
1488506103.7040789127,1488506103.7065019608,        0.7963867188,        0.9658203125,       -0.2861328125,       -5.7525634766,       -3.0670166016,     -194.0765380859
1488506103.7067880630,1488506103.7092061043,        0.7963867188,        0.7158203125,       -0.3940429688,       -7.0648193359,       -3.0670166016,     -194.0765380859
1488506103.7094900608,1488506103.7119190693,        0.6752929688,        0.6967773438,       -0.3940429688,       -3.1585693359,      -11.7187500000,     -193.4509277344
1488506103.7122070789,1488506103.7146298885,        0.6752929688,        0.6967773438,       -0.3940429688,       -1.4038085938,      -11.7187500000,     -193.4509277344
1488506103.7149200439,1488506103.7173390388,        0.6752929688,        0.6967773438,       -0.3940429688,       -1.4038085938,      -18.9208984375,     -173.5992431641
1488506103.7176558971,1488506103.7201180458,        0.8237304688,       -0.5732421875,       -0.4311523438,       -2.1972656250,      -18.9208984375,     -173.5992431641
1488506103.7204070091,1488506103.7228329182,        0.8237304688,       -0.5732421875,       -0.4311523438,      -21.7285156250,       -6.0577392578,     -157.8826904297
1488506103.7231218815,1488506103.7255420685,        0.8237304688,       -0.5732421875,       -0.4311523438,      -22.6287841797,       -6.0577392578,     -157.8826904297
1488506103.7258310318,1488506103.7282490730,        0.8237304688,       -0.5732421875,       -0.4311523438,      -30.4412841797,        8.2855224609,     -132.7667236328
1488506103.7285399437,1488506103.7309520245,        0.9682617188,       -2.2929687500,        0.6796875000,      -30.1818847656,        8.2855224609,     -132.7667236328
1488506103.7312400341,1488506103.7337019444,        0.9682617188,       -2.2929687500,        0.6796875000,       28.4118652344,        7.8582763672,     -119.5526123047
1488506103.7339930534,1488506103.7364060879,        0.9682617188,       -2.2929687500,        0.6796875000,       28.1524658203,        7.8582763672,     -119.5526123047
1488506103.7366960049,1488506103.7391109467,        0.9682617188,       -2.2929687500,        0.7128906250,       98.4649658203,        3.0975341797,     -136.6424560547
1488506103.7393999100,1488506103.7418100834,        0.9423828125,       -1.4384765625,        0.7128906250,       98.4344482422,        3.0975341797,     -136.6424560547
1488506103.7422010899,1488506103.7444961071,        0.9423828125,       -1.4384765625,        0.7128906250,      145.3094482422,       -2.9144287109,     -176.1016845703
1488506103.7447800636,1488506103.7470679283,        0.9423828125,       -1.4384765625,        0.7128906250,      147.8424072266,       -2.9144287109,     -176.1016845703
1488506103.7473490238,1488506103.7496418953,        0.9423828125,        0.7607421875,       -0.2675781250,      147.8424072266,      -10.7269287109,     -205.9631347656
1488506103.7499260902,1488506103.7522850037,        1.1635742188,        0.7607421875,       -0.2675781250,      156.0363769531,       -9.6740722656,     -205.9631347656
1488506103.7525649071,1488506103.7548580170,        1.1635742188,        0.7607421875,       -0.2675781250,      156.0363769531,       -9.6740722656,     -207.6721191406
1488506103.7551391125,1488506103.7574338913,        1.1635742188,        0.7607421875,       -0.2675781250,      127.2583007812,      -15.5792236328,     -207.6721191406
1488506103.7577180862,1488506103.7600109577,        1.1635742188,        1.2607421875,       -0.8085937500,      127.2583007812,      -15.5792236328,     -195.9533691406
1488506103.7602939606,1488506103.7626140118,        1.2031250000,        1.2607421875,       -0.8085937500,       80.0323486328,      -12.3596191406,     -196.1975097656
1488506103.7628979683,1488506103.7651929855,        1.2031250000,        1.2607421875,       -0.8085937500,       80.0323486328,      -12.3596191406,     -196.1975097656
1488506103.7654759884,1488506103.7677710056,        1.2031250000,        1.2607421875,       -0.8085937500,       38.3453369141,       -8.4381103516,     -180.7098388672
1488506103.7680521011,1488506103.7703471184,        1.0976562500,        0.5888671875,       -0.5732421875,       38.3453369141,       -8.4381103516,     -180.7098388672
1488506103.7706279755,1488506103.7730689049,        1.0976562500,        0.5888671875,       -0.5732421875,       19.4091796875,      -11.4440917969,     -166.1376953125
1488506103.7733631134,1488506103.7757880688,        1.0976562500,        0.5888671875,       -0.5732421875,       19.4091796875,      -11.4440917969,     -166.1376953125
1488506103.7760779858,1488506103.7784929276,        1.0976562500,        0.5888671875,       -0.5732421875,        8.1939697266,      -11.6271972656,     -161.4074707031
1488506103.7787818909,1488506103.7811989784,        0.9487304688,        0.2119140625,       -0.1333007812,        8.1939697266,      -11.6271972656,     -161.4074707031
1488506103.7814869881,1488506103.7839119434,        0.9487304688,        0.2119140625,       -0.1333007812,        4.8828125000,      -10.6964111328,     -160.8581542969
1488506103.7842030525,1488506103.7866199017,        0.9487304688,        0.2119140625,       -0.1333007812,        4.8828125000,      -10.6964111328,     -160.8581542969
1488506103.7869100571,1488506103.7893168926,        0.9487304688,        0.2119140625,       -0.1333007812,       14.8315429688,      -16.7846679688,     -157.7301025391
1488506103.7896111012,1488506103.7920138836,        0.6879882812,        0.1835937500,       -0.1367187500,       14.8315429688,      -16.7846679688,     -157.7301025391
1488506103.7922990322,1488506103.7945940495,        0.6879882812,        0.1835937500,       -0.1367187500,       26.1993408203,      -23.8952636719,     -151.2145996094
1488506103.7948799133,1488506103.7972090244,        0.6879882812,        0.1835937500,       -0.1367187500,       26.1993408203,      -23.8952636719,     -151.2145996094
1488506103.7974960804,1488506103.7997910976,        0.6879882812,        0.1835937500,       -0.2597656250,       24.2614746094,      -25.9399414062,     -144.8974609375
1488506103.8000760078,1488506103.8024818897,        0.6513671875,        0.4453125000,       -0.2597656250,       24.2614746094,      -25.9399414062,     -144.8974609375
1488506103.8027749062,1488506103.8051619530,        0.6513671875,        0.4453125000,       -0.2597656250,        9.7961425781,      -23.8342285156,     -135.8032226562
1488506103.8055601120,1488506103.8080749512,        0.6513671875,        0.4453125000,       -0.2597656250,        9.7961425781,      -23.8342285156,     -135.8032226562
1488506103.8083620071,1488506103.8107500076,        0.6513671875,        0.5703125000,       -0.1528320312,      -10.6964111328,      -20.1873779297,     -125.6256103516
1488506103.8120529652,1488506103.8144779205,        0.6875000000,        0.5703125000,       -0.1528320312,      -10.6964111328,      -20.1873779297,     -113.9068603516
1488506103.8147730827,1488506103.8171958923,        0.6875000000,        0.5703125000,       -0.1528320312,      -31.8756103516,      -17.0898437500,     -114.4104003906
1488506103.8174901009,1488506103.8199150562,        0.6875000000,        0.5703125000,       -0.1528320312,      -31.8756103516,      -17.0898437500,     -102.6916503906
1488506103.8202071190,1488506103.8226299286,        0.6752929688,        0.3686523438,       -0.1347656250,      -45.8221435547,      -16.1743164062,     -102.8747558594
1488506103.8229229450,1488506103.8253359795,        0.6752929688,        0.3686523438,       -0.1347656250,      -45.8221435547,      -16.1743164062,      -95.0622558594
1488506103.8256280422,1488506103.8280479908,        0.6752929688,        0.3686523438,       -0.1347656250,      -49.0722656250,      -17.6849365234,      -93.7957763672
1488506103.8283400536,1488506103.8307569027,        0.6752929688,        0.2333984375,       -0.2124023438,      -49.0722656250,      -17.6849365234,      -85.9832763672
1488506103.8310480118,1488506103.8335130215,        0.6611328125,        0.2333984375,       -0.2124023438,      -44.6166992188,      -21.2554931641,      -87.0361328125
1488506103.8338060379,1488506103.8362278938,        0.6611328125,        0.2333984375,       -0.2124023438,      -44.6166992188,      -21.2554931641,      -79.2236328125
1488506103.8365190029,1488506103.8389379978,        0.6611328125,        0.2333984375,       -0.2124023438,      -40.1153564453,      -24.3377685547,      -80.8258056641
1488506103.8392319679,1488506103.8416509628,        0.6850585938,        0.2626953125,       -0.2246093750,      -40.1153564453,      -24.3377685547,      -76.9195556641
1488506103.8419780731,1488506103.8442699909,        0.6850585938,        0.2626953125,       -0.2246093750,      -37.3535156250,      -26.2298583984,      -74.7222900391
1488506103.8445549011,1488506103.8468499184,        0.6850585938,        0.2626953125,       -0.2246093750,      -37.3535156250,      -26.2298583984,      -74.7222900391
1488506103.8471329212,1488506103.8494319916,        0.6850585938,        0.2626953125,       -0.2246093750,      -37.1704101562,      -26.7486572266,      -68.3441162109
1488506103.8497159481,1488506103.8520169258,        0.6640625000,        0.2583007812,       -0.1459960938,      -37.1704101562,      -26.7486572266,      -68.3441162109
1488506103.8523039818,1488506103.8545970917,        0.6640625000,        0.2583007812,       -0.1459960938,      -39.5507812500,      -26.1993408203,      -61.7065429688
1488506103.8548810482,1488506103.8571810722,        0.6640625000,        0.2583007812,       -0.1459960938,      -39.5507812500,      -26.1993408203,      -61.7065429688
1488506103.8574640751,1488506103.8597569466,        0.6640625000,        0.2583007812,       -0.1459960938,      -41.8090820312,      -25.1617431641,      -54.7027587891
1488506103.8600420952,1488506103.8624548912,        0.6552734375,        0.1884765625,       -0.1269531250,      -41.8090820312,      -25.1617431641,      -54.7027587891
1488506103.8627409935,1488506103.8650379181,        0.6552734375,        0.1884765625,       -0.1269531250,      -43.0450439453,      -26.1077880859,      -48.5534667969
1488506103.8653230667,1488506103.8676209450,        0.6552734375,        0.1884765625,       -0.1269531250,      -43.0450439453,      -26.1077880859,      -48.5534667969
1488506103.8679070473,1488506103.8701989651,        0.6552734375,        0.1884765625,       -0.1269531250,      -42.3126220703,      -26.6723632812,      -42.9992675781
1488506103.8706009388,1488506103.8730540276,        0.6528320312,        0.1640625000,       -0.2338867188,      -42.3126220703,      -26.6723632812,      -42.9992675781
1488506103.8733470440,1488506103.8757669926,        0.6528320312,        0.1640625000,       -0.2338867188,      -40.3289794922,      -25.8026123047,      -38.3148193359
1488506103.8760600090,1488506103.8784759045,        0.6528320312,        0.1640625000,       -0.2338867188,      -40.3289794922,      -25.8026123047,      -38.3148193359
1488506103.8787670135,1488506103.8811841011,        0.6528320312,        0.1645507812,       -0.2656250000,      -39.2608642578,      -24.9328613281,      -33.5540771484
1488506103.8814799786,1488506103.8839130402,        0.6450195312,        0.1645507812,       -0.2656250000,      -39.2608642578,      -24.9328613281,      -33.5540771484
1488506103.8842039108,1488506103.8866200447,        0.6450195312,        0.1645507812,       -0.2656250000,      -40.3442382812,      -24.5819091797,      -28.1982421875
1488506103.8869121075,1488506103.8893260956,        0.6450195312,        0.1645507812,       -0.2656250000,      -40.3442382812,      -24.5819091797,      -28.1982421875
1488506103.8896179199,1488506103.8920269012,        0.6176757812,        0.1289062500,       -0.1982421875,      -39.9932861328,      -24.2156982422,      -24.6429443359
1488506103.8923110962,1488506103.8946030140,        0.6176757812,        0.1289062500,       -0.1982421875,      -39.9932861328,      -24.2156982422,      -24.6429443359
1488506103.8948891163,1488506103.8971838951,        0.6176757812,        0.1289062500,       -0.1982421875,      -40.6188964844,      -23.6816406250,      -22.8881835938
1488506103.8974680901,1488506103.8997690678,        0.6176757812,        0.1289062500,       -0.1982421875,      -40.6188964844,      -23.6816406250,      -22.8881835938
1488506103.9000539780,1488506103.9023950100,        0.6298828125,        0.1665039062,       -0.1835937500,      -40.6188964844,      -23.1781005859,      -19.8211669922
1488506103.9026889801,1488506103.9051110744,        0.6298828125,        0.1665039062,       -0.1835937500,      -41.4581298828,      -23.1781005859,      -19.8211669922
1488506103.9054050446,1488506103.9078209400,        0.6298828125,        0.1665039062,       -0.1835937500,      -45.3643798828,      -22.2015380859,      -17.1203613281
1488506103.9081120491,1488506103.9105269909,        0.6298828125,        0.1665039062,       -0.1835937500,      -43.2739257812,      -22.2015380859,      -17.1203613281
1488506103.9108181000,1488506103.9132440090,        0.6479492188,        0.1665039062,       -0.2558593750,      -43.2739257812,      -20.4315185547,      -15.3503417969
1488506103.9135379791,1488506103.9159550667,        0.6479492188,        0.1665039062,       -0.2558593750,      -46.3562011719,      -20.4315185547,      -15.3503417969
1488506103.9162499905,1488506103.9186708927,        0.6479492188,        0.1665039062,       -0.2558593750,      -46.3562011719,      -18.1579589844,      -13.3514404297
1488506103.9189620018,1488506103.9213809967,        0.6479492188,        0.0415039062,       -0.2993164062,      -48.5229492188,      -18.1579589844,      -13.3514404297
1488506103.9217069149,1488506103.9241309166,        0.6157226562,        0.0830078125,       -0.2993164062,      -48.5229492188,      -15.8843994141,      -12.1459960938
1488506103.9244239330,1488506103.9268510342,        0.6157226562,        0.0830078125,       -0.2993164062,      -49.3927001953,      -15.8843994141,      -12.1459960938
1488506103.9271440506,1488506103.9296400547,        0.6157226562,        0.0830078125,       -0.2993164062,      -53.2989501953,      -13.5192871094,      -11.6882324219
1488506103.9299359322,1488506103.9323689938,        0.6191406250,        0.0478515625,       -0.3242187500,      -51.5136718750,      -13.5192871094,      -11.6882324219
1488506103.9326629639,1488506103.9350800514,        0.6191406250,        0.0478515625,       -0.3242187500,      -51.5136718750,       -9.8724365234,      -11.3830566406
1488506103.9354810715,1488506103.9378969669,        0.6191406250,        0.0478515625,       -0.3242187500,      -54.1992187500,       -9.8724365234,      -11.3830566406
1488506103.9381859303,1488506103.9406020641,        0.6191406250,        0.0478515625,       -0.3242187500,      -58.1054687500,       -6.6223144531,      -12.2375488281
1488506103.9408929348,1488506103.9432380199,        0.6347656250,        0.0092773438,       -0.3486328125,      -57.5561523438,       -6.6223144531,      -12.2375488281
1488506103.9435229301,1488506103.9458179474,        0.6347656250,        0.0092773438,       -0.3486328125,      -57.5561523438,       -2.8076171875,      -13.4582519531
1488506103.9461009502,1488506103.9483940601,        0.6347656250,        0.0092773438,       -0.3486328125,      -62.2863769531,       -2.8076171875,      -13.4582519531
1488506103.9486761093,1488506103.9509649277,        0.6347656250,        0.0092773438,       -0.3486328125,      -62.2863769531,        1.0986328125,      -15.5487060547
1488506103.9512460232,1488506103.9536480904,        0.6118164062,       -0.1132812500,       -0.3476562500,      -65.0329589844,        0.6713867188,      -15.5487060547
1488506103.9539399147,1488506103.9563539028,        0.6118164062,       -0.1132812500,       -0.3476562500,      -65.0329589844,        0.6713867188,      -18.8140869141
1488506103.9566450119,1488506103.9590620995,        0.6118164062,       -0.1132812500,       -0.3476562500,      -62.4542236328,        2.1362304688,      -18.8140869141
1488506103.9593510628,1488506103.9617769718,        0.6118164062,       -0.2382812500,       -0.3159179688,      -62.4542236328,        2.1362304688,      -21.6827392578
1488506103.9620580673,1488506103.9643499851,        0.5571289062,       -0.2368164062,       -0.3159179688,      -54.3670654297,        1.7089843750,      -21.6827392578
1488506103.9646320343,1488506103.9669229984,        0.5571289062,       -0.2368164062,       -0.3159179688,      -54.3670654297,        1.7089843750,      -25.5889892578
1488506103.9672029018,1488506103.9694969654,        0.5571289062,       -0.2368164062,       -0.3159179688,      -42.1905517578,        1.0986328125,      -24.0631103516
1488506103.9697780609,1488506103.9722130299,        0.5571289062,       -0.1567382812,       -0.3110351562,      -42.1905517578,        1.0986328125,      -24.0631103516
1488506103.9724979401,1488506103.9747889042,        0.5439453125,       -0.1567382812,       -0.3110351562,      -30.8380126953,        0.7629394531,      -28.9764404297
1488506103.9750709534,1488506103.9773659706,        0.5439453125,       -0.1567382812,       -0.3110351562,      -30.8380126953,        0.7629394531,      -28.9764404297
1488506103.9776461124,1488506103.9799399376,        0.5439453125,       -0.1567382812,       -0.3110351562,      -24.1851806641,        0.6866455078,      -33.5083007812
1488506103.9802210331,1488506103.9826769829,        0.5478515625,       -0.0175781250,       -0.2827148438,      -24.1851806641,        0.6866455078,      -33.5083007812
1488506103.9829699993,1488506103.9853899479,        0.5478515625,       -0.0175781250,       -0.2827148438,      -20.5993652344,        1.4190673828,      -35.6445312500
1488506103.9856810570,1488506103.9880890846,        0.5478515625,       -0.0175781250,       -0.2827148438,      -20.5993652344,        1.4190673828,      -35.6445312500
1488506103.9883799553,1488506103.9907948971,        0.5478515625,       -0.0175781250,       -0.2827148438,      -19.5007324219,        1.9683837891,      -37.1093750000
1488506103.9910840988,1488506103.9934189320,        0.5268554688,       -0.0092773438,       -0.2456054688,      -19.5007324219,        1.9683837891,      -37.1093750000
1488506103.9937028885,1488506103.9959969521,        0.5268554688,       -0.0092773438,       -0.2456054688,      -20.5078125000,        1.4801025391,      -38.5589599609
1488506103.9962799549,1488506103.9985740185,        0.5268554688,       -0.0092773438,       -0.2456054688,      -20.5078125000,        1.4801025391,      -38.5589599609
1488506103.9989669323,1488506104.0012989044,        0.5268554688,       -0.0092773438,       -0.2456054688,      -22.1252441406,        0.4577636719,      -39.8101806641
1488506104.0015850067,1488506104.0040740967,        0.5439453125,        0.0048828125,       -0.2358398438,      -22.1252441406,        0.4577636719,      -39.8101806641
1488506104.0043649673,1488506104.0067489147,        0.5439453125,        0.0048828125,       -0.2358398438,      -25.5737304688,       -0.0610351562,      -40.4052734375
1488506104.0071210861,1488506104.0095069408,        0.5439453125,        0.0048828125,       -0.2358398438,      -25.5737304688,       -0.0610351562,      -40.4052734375
1488506104.0097949505,1488506104.0124208927,        0.5439453125,        0.0048828125,       -0.2480468750,      -31.3873291016,        0.2899169922,      -40.8782958984
1488506104.0127079487,1488506104.0150039196,        0.5649414062,        0.0561523438,       -0.2480468750,      -31.3873291016,        0.2899169922,      -40.8782958984
1488506104.0152881145,1488506104.0175840855,        0.5649414062,        0.0561523438,       -0.2480468750,      -37.1398925781,        0.0305175781,      -42.7856445312
1488506104.0178670883,1488506104.0201520920,        0.5649414062,        0.0561523438,       -0.2480468750,      -37.1398925781,        0.0305175781,      -42.7856445312
1488506104.0204350948,1488506104.0228159428,        0.5649414062,        0.0156250000,       -0.2250976562,      -40.0848388672,       -0.0610351562,      -44.8760986328
1488506104.0231010914,1488506104.0253911018,        0.6069335938,        0.0156250000,       -0.2250976562,      -40.0848388672,       -0.0610351562,      -44.8760986328
1488506104.0256760120,1488506104.0279560089,        0.6069335938,        0.0156250000,       -0.2250976562,      -40.8477783203,        0.5035400391,      -46.7987060547
1488506104.0282399654,1488506104.0305290222,        0.6069335938,        0.0156250000,       -0.2250976562,      -40.8477783203,        0.5035400391,      -46.7987060547
1488506104.0308129787,1488506104.0331120491,        0.6030273438,        0.0136718750,       -0.2182617188,      -44.7540283203,        0.2746582031,      -49.6368408203
1488506104.0333950520,1488506104.0356841087,        0.6030273438,        0.0136718750,       -0.2182617188,      -43.8842773438,        0.2746582031,      -49.6368408203
1488506104.0359659195,1488506104.0382630825,        0.6030273438,        0.0136718750,       -0.2182617188,      -43.8842773438,       -0.1068115234,      -53.7414550781
1488506104.0385460854,1488506104.0408320427,        0.6030273438,        0.0136718750,       -0.2182617188,      -42.4041748047,       -0.1068115234,      -53.7414550781
1488506104.0411140919,1488506104.0434429646,        0.6054687500,       -0.0112304688,       -0.2143554688,      -42.4041748047,       -0.1068115234,      -57.2509765625
1488506104.0437281132,1488506104.0460209846,        0.6054687500,       -0.0112304688,       -0.2143554688,      -37.5061035156,       -1.0375976562,      -57.2509765625
1488506104.0463030338,1488506104.0485889912,        0.6054687500,       -0.0112304688,       -0.2143554688,      -37.5061035156,       -1.0375976562,      -61.1572265625
1488506104.0488719940,1488506104.0511560440,        0.6054687500,       -0.0112304688,       -0.2143554688,      -34.3933105469,       -1.6174316406,      -61.3250732422
1488506104.0514390469,1488506104.0537359715,        0.6113281250,       -0.0214843750,       -0.2192382812,      -34.3933105469,       -1.6174316406,      -61.3250732422
1488506104.0540180206,1488506104.0563030243,        0.6113281250,       -0.0214843750,       -0.2192382812,      -30.7617187500,       -2.1057128906,      -64.7583007812
1488506104.0565869808,1488506104.0588800907,        0.6113281250,       -0.0214843750,       -0.2192382812,      -30.7617187500,       -2.1057128906,      -64.7583007812
1488506104.0591619015,1488506104.0614399910,        0.6113281250,       -0.0214843750,       -0.2192382812,      -28.0456542969,       -3.0059814453,      -67.7642822266
1488506104.0619440079,1488506104.0642440319,        0.6137695312,        0.0180664062,       -0.2358398438,      -28.0456542969,       -3.0059814453,      -67.7642822266
1488506104.0645279884,1488506104.0668199062,        0.6137695312,        0.0180664062,       -0.2358398438,      -29.6020507812,       -2.9449462891,      -70.2972412109
1488506104.0671029091,1488506104.0693910122,        0.6137695312,        0.0180664062,       -0.2358398438,      -29.6020507812,       -2.9449462891,      -70.2972412109
1488506104.0696740150,1488506104.0720450878,        0.6137695312,        0.0180664062,       -0.2358398438,      -31.8450927734,       -1.8157958984,      -72.4182128906
1488506104.0723280907,1488506104.0746281147,        0.6323242188,        0.0649414062,       -0.2460937500,      -31.8450927734,       -1.8157958984,      -72.4182128906
1488506104.0749111176,1488506104.0771970749,        0.6323242188,        0.0649414062,       -0.2460937500,      -33.6456298828,       -1.1901855469,      -73.8067626953
1488506104.0774800777,1488506104.0797710419,        0.6323242188,        0.0649414062,       -0.2460937500,      -33.6456298828,       -1.1901855469,      -73.8067626953
1488506104.0800530910,1488506104.0823390484,        0.6323242188,        0.0649414062,       -0.2460937500,      -34.4848632812,       -1.6937255859,      -74.2034912109
1488506104.0826220512,1488506104.0849130154,        0.6411132812,        0.1059570312,       -0.2563476562,      -34.4848632812,       -1.6937255859,      -74.2034912109
1488506104.0851969719,1488506104.0874900818,        0.6411132812,        0.1059570312,       -0.2563476562,      -38.3911132812,       -2.1514892578,      -75.5462646484
1488506104.0877718925,1488506104.0900580883,        0.6411132812,        0.1059570312,       -0.2563476562,      -36.2243652344,       -2.1514892578,      -75.5462646484
1488506104.0903420448,1488506104.0926980972,        0.6411132812,        0.1059570312,       -0.1313476562,      -36.2243652344,       -3.2501220703,      -75.6835937500
1488506104.0929789543,1488506104.0952739716,        0.6069335938,        0.1342773438,       -0.2480468750,      -37.7197265625,       -3.2501220703,      -75.6835937500
1488506104.0955560207,1488506104.0978469849,        0.6069335938,        0.1342773438,       -0.2480468750,      -37.7197265625,       -3.2501220703,      -76.1260986328
1488506104.0981280804,1488506104.1004250050,        0.6069335938,        0.1342773438,       -0.2480468750,      -38.4063720703,       -4.9743652344,      -76.1260986328
1488506104.1007080078,1488506104.1031439304,        0.6069335938,        0.1342773438,       -0.2587890625,      -38.4063720703,       -4.9743652344,      -76.0192871094
1488506104.1034290791,1488506104.1057169437,        0.6166992188,        0.1489257812,       -0.2587890625,      -38.8031005859,       -6.9580078125,      -76.0192871094
1488506104.1060009003,1488506104.1082880497,        0.6166992188,        0.1489257812,       -0.2587890625,      -38.8031005859,       -6.9580078125,      -76.0192871094
1488506104.1085689068,1488506104.1108560562,        0.6166992188,        0.1489257812,       -0.2587890625,      -39.2303466797,       -7.9040527344,      -76.3549804688
1488506104.1111359596,1488506104.1135940552,        0.6166992188,        0.1455078125,       -0.2363281250,      -39.2303466797,       -7.9040527344,      -76.3549804688
1488506104.1138761044,1488506104.1161680222,        0.6469726562,        0.1455078125,       -0.2363281250,      -39.3524169922,       -8.3312988281,      -77.3773193359
1488506104.1164510250,1488506104.1189880371,        0.6469726562,        0.1455078125,       -0.2363281250,      -39.3524169922,       -8.3312988281,      -77.3773193359
1488506104.1192750931,1488506104.1215629578,        0.6469726562,        0.1455078125,       -0.2363281250,      -37.9180908203,       -8.9569091797,      -78.6437988281
1488506104.1218459606,1488506104.1241390705,        0.6684570312,        0.1484375000,       -0.2153320312,      -37.9180908203,       -8.9569091797,      -78.6437988281
1488506104.1245269775,1488506104.1268179417,        0.6684570312,        0.1484375000,       -0.2153320312,      -36.8194580078,       -8.7738037109,      -79.9407958984
1488506104.1271009445,1488506104.1293890476,        0.6684570312,        0.1484375000,       -0.2153320312,      -36.8194580078,       -8.7738037109,      -79.9407958984
1488506104.1296699047,1488506104.1320400238,        0.6684570312,        0.1484375000,       -0.2153320312,      -35.2325439453,       -8.7280273438,      -80.5053710938
1488506104.1323239803,1488506104.1346139908,        0.6748046875,        0.1401367188,       -0.1982421875,      -35.2325439453,       -8.7280273438,      -80.5053710938
1488506104.1348969936,1488506104.1371810436,        0.6748046875,        0.1401367188,       -0.1982421875,      -34.7900390625,       -8.8500976562,      -82.7636718750
1488506104.1374619007,1488506104.1397519112,        0.6748046875,        0.1401367188,       -0.1982421875,      -34.7900390625,       -8.8500976562,      -82.7636718750
1488506104.1400330067,1488506104.1423380375,        0.6748046875,        0.1401367188,       -0.1982421875,      -36.3159179688,       -9.0637207031,      -84.5031738281
1488506104.1426210403,1488506104.1449089050,        0.7260742188,        0.1831054688,       -0.2426757812,      -36.3159179688,       -9.0637207031,      -84.5031738281
1488506104.1451919079,1488506104.1474819183,        0.7260742188,        0.1831054688,       -0.2426757812,      -38.4521484375,       -9.0484619141,      -84.4879150391
1488506104.1477670670,1488506104.1500499249,        0.7260742188,        0.1831054688,       -0.2426757812,      -38.4521484375,       -9.0484619141,      -84.4879150391
1488506104.1503338814,1488506104.1526820660,        0.7260742188,        0.1831054688,       -0.2426757812,      -38.4521484375,       -7.5073242188,      -85.0067138672
1488506104.1529650688,1488506104.1552479267,        0.7392578125,        0.1767578125,       -0.2573242188,      -39.9475097656,       -7.5073242188,      -85.0067138672
1488506104.1555299759,1488506104.1578159332,        0.7392578125,        0.1767578125,       -0.2573242188,      -39.9475097656,       -7.5073242188,      -86.7156982422
1488506104.1580970287,1488506104.1603848934,        0.7392578125,        0.1767578125,       -0.2573242188,      -41.8853759766,       -4.9438476562,      -86.7156982422
1488506104.1606659889,1488506104.1630311012,        0.7392578125,        0.1767578125,       -0.2573242188,      -41.8853759766,       -4.9438476562,      -88.9129638672
1488506104.1633129120,1488506104.1656050682,        0.7861328125,        0.1430664062,       -0.2348632812,      -43.9453125000,       -1.2207031250,      -88.9129638672
1488506104.1658871174,1488506104.1681740284,        0.7861328125,        0.1430664062,       -0.2348632812,      -43.9453125000,       -1.2207031250,      -88.9129638672
1488506104.1684570312,1488506104.1707510948,        0.7861328125,        0.1430664062,       -0.2348632812,      -45.3796386719,        2.0141601562,      -92.8955078125
1488506104.1710340977,1488506104.1734430790,        0.7861328125,        0.1430664062,       -0.2348632812,      -45.3796386719,        2.0141601562,      -92.8955078125
1488506104.1737260818,1488506104.1760139465,        0.8671875000,        0.1108398438,       -0.2221679688,      -45.3338623047,        5.1879882812,      -95.4437255859
1488506104.1762950420,1488506104.1785819530,        0.8671875000,        0.1108398438,       -0.2221679688,      -45.3338623047,        5.1879882812,      -95.4437255859
1488506104.1788659096,1488506104.1811549664,        0.8671875000,        0.1108398438,       -0.2221679688,      -44.6319580078,        8.2092285156,      -98.7243652344
1488506104.1814410686,1488506104.1837320328,        0.8671875000,        0.1108398438,       -0.2377929688,      -44.6319580078,        8.2092285156,      -98.7243652344
1488506104.1840140820,1488506104.1863009930,        0.9199218750,        0.0913085938,       -0.2377929688,      -43.3197021484,       10.4675292969,     -103.0426025391
1488506104.1865870953,1488506104.1888759136,        0.9199218750,        0.0913085938,       -0.2377929688,      -43.3197021484,       10.4675292969,     -103.0426025391
1488506104.1892669201,1488506104.1915609837,        0.9199218750,        0.0913085938,       -0.2377929688,      -43.3959960938,       10.4675292969,     -107.9559326172
1488506104.1918449402,1488506104.1941299438,        0.9199218750,        0.0913085938,       -0.2441406250,      -43.3959960938,       10.4675292969,     -107.9559326172
1488506104.1944150925,1488506104.1967010498,        0.9365234375,        0.0732421875,       -0.2441406250,      -43.9453125000,       11.1999511719,     -112.6556396484
1488506104.1969869137,1488506104.1992709637,        0.9365234375,        0.0732421875,       -0.2441406250,      -43.9453125000,       11.1999511719,     -112.6556396484
1488506104.1995561123,1488506104.2019150257,        0.9365234375,        0.0732421875,       -0.2441406250,      -43.9453125000,       11.3220214844,     -117.6757812500
1488506104.2022070885,1488506104.2046260834,        0.9365234375,        0.0336914062,       -0.2285156250,      -43.2128906250,       11.3220214844,     -117.6757812500
1488506104.2049190998,1488506104.2073340416,        0.9379882812,        0.0336914062,       -0.2285156250,      -39.3066406250,       10.5438232422,     -122.4212646484
1488506104.2076270580,1488506104.2100429535,        0.9379882812,        0.0336914062,       -0.2285156250,      -40.7867431641,       10.5438232422,     -122.4212646484
1488506104.2103359699,1488506104.2128429413,        0.9379882812,        0.0336914062,       -0.2285156250,      -36.8804931641,        9.3688964844,     -125.6713867188
1488506104.2131280899,1488506104.2154219151,        1.0097656250,        0.0712890625,       -0.1899414062,      -36.5142822266,        9.3688964844,     -125.6713867188
1488506104.2157039642,1488506104.2179949284,        1.0097656250,        0.0712890625,       -0.1899414062,      -36.5142822266,        9.6893310547,     -129.1198730469
1488506104.2182779312,1488506104.2205750942,        1.0097656250,        0.0712890625,       -0.1899414062,      -33.9965820312,        9.6893310547,     -129.1198730469
1488506104.2208580971,1488506104.2232410908,        1.0097656250,        0.0712890625,       -0.1899414062,      -33.9965820312,        9.6893310547,     -131.7138671875
1488506104.2235310078,1488506104.2259459496,        1.0571289062,        0.1372070312,       -0.1557617188,      -33.9202880859,       10.1776123047,     -131.7138671875
1488506104.2262380123,1488506104.2287390232,        1.0571289062,        0.1372070312,       -0.1557617188,      -33.9202880859,       10.1776123047,     -134.3536376953
1488506104.2290320396,1488506104.2314510345,        1.0571289062,        0.1372070312,       -0.1557617188,      -35.3546142578,       10.0250244141,     -134.3536376953
1488506104.2317490578,1488506104.2340459824,        1.0571289062,        0.1372070312,       -0.1557617188,      -35.3546142578,       10.0250244141,     -137.8021240234
1488506104.2343330383,1488506104.2366271019,        1.0805664062,        0.0644531250,       -0.1333007812,      -37.1704101562,        9.7045898438,     -137.8021240234
1488506104.2369110584,1488506104.2392070293,        1.0805664062,        0.0644531250,       -0.1333007812,      -37.1704101562,        9.7045898438,     -139.8162841797
1488506104.2394890785,1488506104.2418010235,        1.0805664062,        0.0644531250,       -0.1333007812,      -38.5894775391,        9.3688964844,     -139.8162841797
1488506104.2420909405,1488506104.2445139885,        1.0805664062,        0.0644531250,       -0.1513671875,      -38.5894775391,        9.3688964844,     -143.7225341797
1488506104.2448039055,1488506104.2472259998,        1.1196289062,        0.0058593750,       -0.1513671875,      -38.3148193359,        9.0484619141,     -142.2729492188
1488506104.2475149632,1488506104.2499349117,        1.1196289062,        0.0058593750,       -0.1513671875,      -38.3148193359,        9.0484619141,     -146.1791992188
1488506104.2502241135,1488506104.2526481152,        1.1196289062,        0.0058593750,       -0.1513671875,      -39.1845703125,       10.6048583984,     -145.6909179688
1488506104.2530488968,1488506104.2554700375,        1.2446289062,       -0.0302734375,       -0.2021484375,      -39.1845703125,       10.6048583984,     -149.5971679688
1488506104.2557621002,1488506104.2581729889,        1.1728515625,       -0.0302734375,       -0.2021484375,      -42.3126220703,       13.5803222656,     -150.2838134766
1488506104.2584629059,1488506104.2608840466,        1.1728515625,       -0.0302734375,       -0.2021484375,      -42.3126220703,       13.5803222656,     -150.2838134766
1488506104.2611749172,1488506104.2635099888,        1.1728515625,       -0.0302734375,       -0.2021484375,      -45.4101562500,        9.2315673828,     -152.2827148438
1488506104.2637929916,1488506104.2660920620,        1.1191406250,       -0.1010742188,       -0.2788085938,      -45.4101562500,        9.2315673828,     -152.2827148438
1488506104.2663769722,1488506104.2686710358,        1.1191406250,       -0.1010742188,       -0.2788085938,      -50.5981445312,        7.1258544922,     -153.9459228516
1488506104.2689540386,1488506104.2712490559,        1.1191406250,       -0.1010742188,       -0.2788085938,      -50.5981445312,        7.1258544922,     -153.9459228516
1488506104.2715299129,1488506104.2739419937,        1.1191406250,       -0.1010742188,       -0.2788085938,      -55.0689697266,        4.8980712891,     -156.8908691406
1488506104.2742240429,1488506104.2765250206,        1.1557617188,       -0.1762695312,       -0.3403320312,      -55.0689697266,        4.8980712891,     -156.8908691406
1488506104.2768061161,1488506104.2791059017,        1.1557617188,       -0.1762695312,       -0.3403320312,      -60.7147216797,        5.8135986328,     -160.1867675781
1488506104.2793879509,1488506104.2818179131,        1.1557617188,       -0.1762695312,       -0.3403320312,      -60.7147216797,        5.8135986328,     -160.1867675781
1488506104.2820999622,1488506104.2843930721,        1.1557617188,       -0.1762695312,       -0.3403320312,      -69.6411132812,        4.6081542969,     -161.5905761719
1488506104.2846748829,1488506104.2869710922,        1.1806640625,       -0.2485351562,       -0.3872070312,      -69.6411132812,        4.6081542969,     -161.5905761719
1488506104.2872540951,1488506104.2895500660,        1.1806640625,       -0.2485351562,       -0.3872070312,      -85.9832763672,        4.5166015625,     -161.7279052734
1488506104.2898321152,1488506104.2921519279,        1.1806640625,       -0.2485351562,       -0.3872070312,      -85.9832763672,        4.5166015625,     -161.7279052734
1488506104.2924408913,1488506104.2948629856,        1.1806640625,       -0.2485351562,       -0.5122070312,     -101.8981933594,        8.7738037109,     -162.6586914062
1488506104.2951529026,1488506104.2975780964,        1.3388671875,       -0.4541015625,       -0.5327148438,     -101.8981933594,        8.7738037109,     -162.6586914062
1488506104.2978670597,1488506104.3002820015,        1.3388671875,       -0.4541015625,       -0.5327148438,     -112.8540039062,        5.0048828125,     -165.1916503906
1488506104.3005719185,1488506104.3030068874,        1.3388671875,       -0.4541015625,       -0.5327148438,     -112.8540039062,        5.0048828125,     -165.1916503906
1488506104.3032960892,1488506104.3057160378,        1.3388671875,       -0.7060546875,       -0.6469726562,     -112.6251220703,       -9.8724365234,     -164.3981933594
1488506104.3060050011,1488506104.3084220886,        1.2529296875,       -0.7060546875,       -0.6469726562,     -112.6251220703,       -9.8724365234,     -164.3981933594
1488506104.3088569641,1488506104.3111510277,        1.2529296875,       -0.7060546875,       -0.6469726562,     -117.6147460938,      -12.4206542969,     -165.4815673828
1488506104.3114368916,1488506104.3138580322,        1.2529296875,       -0.7060546875,       -0.6469726562,     -117.6147460938,      -12.4206542969,     -165.4815673828
1488506104.3141510487,1488506104.3165340424,        1.3979492188,       -0.5957031250,       -0.6865234375,     -113.9678955078,      -14.0533447266,     -173.4924316406
1488506104.3170170784,1488506104.3194079399,        1.3979492188,       -0.5957031250,       -0.6865234375,     -113.9678955078,      -14.0533447266,     -173.4924316406
1488506104.3197000027,1488506104.3223049641,        1.3979492188,       -0.5957031250,       -0.6865234375,     -113.0676269531,      -17.0898437500,     -178.7109375000
1488506104.3225979805,1488506104.3250179291,        1.3979492188,       -0.5957031250,       -0.6865234375,     -113.0676269531,      -17.0898437500,     -178.7109375000
1488506104.3253099918,1488506104.3277258873,        1.6328125000,       -0.3383789062,       -0.6245117188,     -113.8305664062,      -19.0124511719,     -181.5185546875
1488506104.3280189037,1488506104.3304309845,        1.6328125000,       -0.3383789062,       -0.6245117188,     -113.8305664062,      -19.0124511719,     -181.5185546875
1488506104.3307230473,1488506104.3330810070,        1.6328125000,       -0.3383789062,       -0.6245117188,     -123.9013671875,      -15.4724121094,     -180.3894042969
1488506104.3333671093,1488506104.3356599808,        1.6328125000,       -0.3383789062,       -0.6357421875,     -123.9013671875,      -15.4724121094,     -180.3894042969
1488506104.3359439373,1488506104.3382399082,        1.6582031250,       -0.3134765625,       -0.6357421875,     -127.0751953125,      -10.1165771484,     -175.1403808594
1488506104.3385229111,1488506104.3408119678,        1.6582031250,       -0.3134765625,       -0.6357421875,     -127.0751953125,      -10.1165771484,     -175.1403808594
1488506104.3410971165,1488506104.3435330391,        1.6582031250,       -0.3134765625,       -0.6357421875,     -111.5112304688,       -1.1596679688,     -166.7022705078
1488506104.3438229561,1488506104.3462400436,        1.5332031250,       -0.4550781250,       -0.8178710938,     -111.5112304688,       -1.1596679688,     -166.7022705078
1488506104.3465309143,1488506104.3489449024,        1.6079101562,       -0.4550781250,       -0.8178710938,      -84.5184326172,        6.0882568359,     -164.2456054688
1488506104.3492350578,1488506104.3516519070,        1.6079101562,       -0.4550781250,       -0.8178710938,      -84.5184326172,        6.0882568359,     -164.2456054688
1488506104.3519890308,1488506104.3542840481,        1.6079101562,       -0.4550781250,       -0.8178710938,      -72.7996826172,        5.9051513672,     -168.7927246094
1488506104.3545660973,1488506104.3568589687,        1.5488281250,       -0.2109375000,       -0.6499023438,      -70.7092285156,        5.9051513672,     -168.7927246094
1488506104.3571410179,1488506104.3594310284,        1.5488281250,       -0.2109375000,       -0.6499023438,      -70.7092285156,        1.4495849609,     -178.2531738281
1488506104.3597130775,1488506104.3620491028,        1.5488281250,       -0.2109375000,       -0.6499023438,      -65.9637451172,        1.4495849609,     -178.2531738281
1488506104.3623321056,1488506104.3646249771,        1.5488281250,       -0.2109375000,       -0.6499023438,      -65.9637451172,        1.4495849609,     -185.4553222656
1488506104.3649070263,1488506104.3672010899,        1.3916015625,       -0.0307617188,       -0.5820312500,      -56.9458007812,        0.3662109375,     -185.4553222656
1488506104.3674819469,1488506104.3697729111,        1.3916015625,       -0.0307617188,       -0.5820312500,      -56.9458007812,        0.3662109375,     -181.5490722656
1488506104.3700559139,1488506104.3724720478,        1.3916015625,       -0.0307617188,       -0.5820312500,      -46.9055175781,       -5.5389404297,     -181.2896728516
1488506104.3727610111,1488506104.3751800060,        1.3916015625,       -0.0307617188,       -0.5820312500,      -46.9055175781,       -5.5389404297,     -173.4771728516
1488506104.3754699230,1488506104.3778901100,        0.9848632812,        0.3623046875,       -0.5976562500,      -53.8024902344,      -10.2539062500,     -172.5311279297
1488506104.3781819344,1488506104.3805999756,        0.9848632812,        0.3623046875,       -0.5976562500,      -53.8024902344,      -10.2539062500,     -156.9061279297
1488506104.3810019493,1488506104.3833339214,        0.9848632812,        0.3623046875,       -0.5976562500,      -68.8171386719,       -7.0800781250,     -158.0963134766
1488506104.3836181164,1488506104.3859050274,        0.9848632812,        0.3623046875,       -0.5205078125,      -68.8171386719,       -7.0800781250,     -158.0963134766
1488506104.3861870766,1488506104.3884820938,        0.7778320312,        0.1225585938,       -0.5205078125,      -94.6044921875,       -6.2103271484,     -123.6724853516
1488506104.3887660503,1488506104.3910539150,        0.7778320312,        0.1225585938,       -0.5205078125,      -94.6044921875,       -6.2103271484,     -123.6724853516
1488506104.3913369179,1488506104.3937530518,        0.7778320312,        0.1225585938,       -0.5205078125,     -103.4393310547,        2.3193359375,      -99.2431640625
1488506104.3940439224,1488506104.3964679241,        0.7778320312,       -0.3774414062,       -0.1826171875,     -103.4393310547,        2.3193359375,      -99.2431640625
1488506104.3967568874,1488506104.3991730213,        0.8833007812,       -0.4565429688,       -0.1826171875,      -86.2884521484,        3.6163330078,      -78.5980224609
1488506104.3994629383,1488506104.4019219875,        0.8833007812,       -0.4565429688,       -0.1826171875,      -86.2884521484,        3.6163330078,      -78.5980224609
1488506104.4022119045,1488506104.4046258926,        0.8833007812,       -0.4565429688,       -0.1826171875,      -69.1986083984,       -1.7395019531,      -59.2041015625
1488506104.4049160480,1488506104.4073300362,        0.5869140625,       -0.7163085938,       -0.1870117188,      -69.1986083984,       -1.7395019531,      -59.2041015625
1488506104.4076199532,1488506104.4100379944,        0.5869140625,       -0.7163085938,       -0.1870117188,      -53.1616210938,       -6.5155029297,      -45.0744628906
1488506104.4103269577,1488506104.4127550125,        0.5869140625,       -0.7163085938,       -0.1870117188,      -53.1616210938,       -6.5155029297,      -45.0744628906
1488506104.4130449295,1488506104.4154601097,        0.5869140625,       -0.7163085938,       -0.1870117188,      -36.0260009766,       -7.1716308594,      -30.5633544922
1488506104.4157490730,1488506104.4181649685,        0.4892578125,       -0.6811523438,       -0.1113281250,      -36.0260009766,       -7.1716308594,      -30.5633544922
1488506104.4184539318,1488506104.4208710194,        0.4892578125,       -0.6811523438,       -0.1113281250,      -25.0701904297,       -6.1645507812,      -15.7470703125
1488506104.4211599827,1488506104.4235899448,        0.4892578125,       -0.6811523438,       -0.1113281250,      -25.0701904297,       -6.1645507812,      -15.7470703125
1488506104.4238810539,1488506104.4262940884,        0.4892578125,       -0.6811523438,       -0.1113281250,      -13.4735107422,       -6.2255859375,       -1.6174316406
1488506104.4265789986,1488506104.4291698933,        0.3603515625,       -0.5498046875,       -0.0732421875,      -13.4735107422,       -6.2255859375,       -1.6174316406
1488506104.4294559956,1488506104.4322869778,        0.3603515625,       -0.5498046875,       -0.0732421875,       -3.6621093750,       -7.1868896484,       14.0991210938
1488506104.4325680733,1488506104.4348609447,        0.3603515625,       -0.5498046875,       -0.0732421875,       -3.6621093750,       -7.1868896484,       14.0991210938
1488506104.4351398945,1488506104.4374320507,        0.2529296875,       -0.3676757812,       -0.0786132812,        1.9989013672,       -7.6141357422,       30.1971435547
1488506104.4377110004,1488506104.4400050640,        0.2529296875,       -0.3676757812,       -0.0786132812,        1.9989013672,       -7.6141357422,       30.1971435547
1488506104.4402830601,1488506104.4426360130,        0.2529296875,       -0.3676757812,       -0.0786132812,        5.3558349609,       -8.1634521484,       46.1578369141
1488506104.4429221153,1488506104.4453430176,        0.2529296875,       -0.3676757812,       -0.0786132812,        5.3558349609,       -8.1634521484,       46.1578369141
1488506104.4457390308,1488506104.4481589794,        0.1923828125,       -0.2426757812,       -0.1103515625,        7.3394775391,       -8.1024169922,       60.8215332031
1488506104.4484450817,1488506104.4508619308,        0.1923828125,       -0.2426757812,       -0.1103515625,        7.3394775391,       -8.1024169922,       60.8215332031
1488506104.4511489868,1488506104.4534831047,        0.1923828125,       -0.2426757812,       -0.1103515625,       11.9934082031,       -8.1329345703,       74.2034912109
1488506104.4537661076,1488506104.4560561180,        0.1923828125,       -0.2426757812,       -0.1103515625,       11.9934082031,       -8.1329345703,       74.2034912109
1488506104.4563388824,1488506104.4586279392,        0.1142578125,       -0.2070312500,       -0.1181640625,       19.1040039062,       -9.5825195312,       87.9211425781
1488506104.4589109421,1488506104.4611980915,        0.1142578125,       -0.2070312500,       -0.1181640625,       19.1040039062,       -9.5825195312,       87.9211425781
1488506104.4614820480,1488506104.4638209343,        0.1142578125,       -0.2070312500,       -0.1181640625,       25.5126953125,      -13.5192871094,      103.2867431641
1488506104.4641070366,1488506104.4664020538,        0.1142578125,       -0.2070312500,       -0.1181640625,       25.5126953125,      -13.5192871094,      103.2867431641
1488506104.4666879177,1488506104.4689819813,        0.1245117188,       -0.2275390625,       -0.1274414062,       32.5317382812,      -13.6718750000,      117.0501708984
1488506104.4692680836,1488506104.4715609550,        0.1245117188,       -0.2275390625,       -0.1274414062,       32.5317382812,      -13.6718750000,      117.0501708984
1488506104.4718470573,1488506104.4741480350,        0.1245117188,       -0.2275390625,       -0.1274414062,       37.5976562500,      -10.6964111328,      126.7089843750
1488506104.4744338989,1488506104.4767310619,        0.1245117188,       -0.2275390625,       -0.0024414062,       37.5976562500,      -10.6964111328,      126.7089843750
1488506104.4770169258,1488506104.4793100357,        0.1596679688,       -0.2382812500,       -0.1250000000,       45.4101562500,      -11.5966796875,      138.4887695312
1488506104.4795958996,1488506104.4820420742,        0.1596679688,       -0.2382812500,       -0.1250000000,       44.3115234375,      -11.5966796875,      138.4887695312
1488506104.4823260307,1488506104.4846220016,        0.1596679688,       -0.2382812500,       -0.1250000000,       44.3115234375,      -12.0391845703,      150.5432128906
1488506104.4849050045,1488506104.4872000217,        0.1596679688,       -0.3632812500,       -0.1347656250,       51.9104003906,      -12.0391845703,      150.5432128906
1488506104.4874849319,1488506104.4897758961,        0.1953125000,       -0.2612304688,       -0.1347656250,       51.9104003906,      -12.0391845703,      161.8041992188
1488506104.4900600910,1488506104.4924728870,        0.1953125000,       -0.2612304688,       -0.1347656250,       59.9670410156,      -10.5895996094,      161.8041992188
1488506104.4927649498,1488506104.4951710701,        0.1953125000,       -0.2612304688,       -0.1347656250,       59.9670410156,      -10.5895996094,      173.0194091797
1488506104.4954659939,1488506104.4978621006,        0.1953125000,       -0.2480468750,       -0.1171875000,       68.7408447266,      -11.9628906250,      173.0194091797
1488506104.4981551170,1488506104.5005578995,        0.2114257812,       -0.2480468750,       -0.1171875000,       68.7408447266,      -11.9628906250,      182.9528808594
1488506104.5008490086,1488506104.5032958984,        0.2114257812,       -0.2480468750,       -0.1171875000,       76.2634277344,      -12.8936767578,      182.9528808594
1488506104.5035889149,1488506104.5059900284,        0.2114257812,       -0.2480468750,       -0.1171875000,       76.2634277344,      -12.8936767578,      192.3522949219
1488506104.5062799454,1488506104.5086789131,        0.2817382812,       -0.1918945312,       -0.1577148438,       82.1533203125,      -12.6647949219,      192.3522949219
1488506104.5090789795,1488506104.5114789009,        0.2817382812,       -0.1918945312,       -0.1577148438,       82.1533203125,      -12.6647949219,      202.1179199219
1488506104.5117819309,1488506104.5141899586,        0.2817382812,       -0.1918945312,       -0.1577148438,       85.3118896484,      -12.2985839844,      202.1179199219
1488506104.5144779682,1488506104.5168828964,        0.2817382812,       -0.1918945312,       -0.1577148438,       85.3118896484,      -12.2985839844,      211.9903564453
1488506104.5171749592,1488506104.5195789337,        0.3222656250,       -0.1445312500,       -0.1352539062,       87.1734619141,      -11.8103027344,      211.9903564453
1488506104.5198709965,1488506104.5223131180,        0.3222656250,       -0.1445312500,       -0.1352539062,       87.1734619141,      -11.8103027344,      220.2301025391
1488506104.5226058960,1488506104.5250000954,        0.3222656250,       -0.1445312500,       -0.1352539062,       89.3402099609,      -10.3302001953,      220.2301025391
1488506104.5252919197,1488506104.5276849270,        0.3222656250,       -0.0195312500,       -0.1333007812,       89.3402099609,      -10.3302001953,      228.0426025391
1488506104.5279769897,1488506104.5303809643,        0.3769531250,       -0.1230468750,       -0.1333007812,       92.8802490234,       -9.6893310547,      228.7139892578
1488506104.5306708813,1488506104.5331280231,        0.3769531250,       -0.1230468750,       -0.1333007812,       92.8802490234,       -9.6893310547,      236.5264892578
1488506104.5334179401,1488506104.5358190536,        0.3769531250,       -0.1230468750,       -0.1333007812,       97.0764160156,       -9.5062255859,      236.7553710938
1488506104.5361080170,1488506104.5385110378,        0.4511718750,       -0.1069335938,       -0.1328125000,       97.0764160156,       -9.5062255859,      244.5678710938
1488506104.5388019085,1488506104.5412049294,        0.4511718750,       -0.1069335938,       -0.1328125000,      101.6693115234,       -9.1094970703,      244.1558837891
1488506104.5414938927,1488506104.5439240932,        0.4511718750,       -0.1069335938,       -0.1328125000,      101.6693115234,       -9.1094970703,      251.9683837891
1488506104.5442149639,1488506104.5466260910,        0.4511718750,       -0.1069335938,       -0.1328125000,      104.1412353516,       -8.3007812500,      251.0070800781
1488506104.5469191074,1488506104.5494439602,        0.5205078125,       -0.0717773438,       -0.1245117188,      104.1412353516,       -8.3007812500,      258.8195800781
1488506104.5497369766,1488506104.5522589684,        0.5205078125,       -0.0717773438,       -0.1245117188,      105.2856445312,       -7.3089599609,      257.9803466797
1488506104.5525639057,1488506104.5549979210,        0.5205078125,       -0.0717773438,       -0.1245117188,      105.2856445312,       -7.3089599609,      264.8925781250
1488506104.5552909374,1488506104.5577139854,        0.5205078125,       -0.0717773438,       -0.1479492188,      105.1483154297,       -5.9661865234,      264.8925781250
1488506104.5580050945,1488506104.5604219437,        0.5795898438,       -0.0332031250,       -0.1479492188,      105.1483154297,       -5.9661865234,      271.5454101562
1488506104.5607140064,1488506104.5631399155,        0.5795898438,       -0.0332031250,       -0.1479492188,      104.7515869141,       -5.2490234375,      271.5454101562
1488506104.5634300709,1488506104.5658500195,        0.5795898438,       -0.0332031250,       -0.1479492188,      104.7515869141,       -5.2490234375,      278.5034179688
1488506104.5661439896,1488506104.5685589314,        0.7045898438,        0.0263671875,       -0.1401367188,      102.2491455078,       -5.1574707031,      278.5034179688
1488506104.5688500404,1488506104.5712769032,        0.6250000000,        0.0263671875,       -0.1401367188,      102.2491455078,       -5.1574707031,      285.2325439453
1488506104.5715670586,1488506104.5739979744,        0.6250000000,        0.0263671875,       -0.1401367188,      102.1270751953,       -3.9367675781,      285.2325439453
1488506104.5744009018,1488506104.5768220425,        0.6250000000,        0.0263671875,       -0.1401367188,      102.1270751953,       -3.9367675781,      290.7409667969
1488506104.5771129131,1488506104.5795280933,        0.6787109375,       -0.0332031250,       -0.1611328125,      107.7270507812,       -4.3029785156,      290.7409667969
1488506104.5798180103,1488506104.5822119713,        0.6787109375,       -0.0332031250,       -0.1611328125,      107.7270507812,       -4.3029785156,      297.0428466797
1488506104.5824959278,1488506104.5847949982,        0.6787109375,       -0.0332031250,       -0.1611328125,      111.9537353516,       -4.5166015625,      297.0428466797
1488506104.5850770473,1488506104.5873730183,        0.6787109375,       -0.0332031250,       -0.1611328125,      111.9537353516,       -4.5166015625,      300.9490966797
1488506104.5876560211,1488506104.5899469852,        0.7065429688,        0.0097656250,       -0.1948242188,      113.2354736328,       -4.2114257812,      302.8564453125
1488506104.5902318954,1488506104.5925340652,        0.7065429688,        0.0097656250,       -0.1948242188,      113.2354736328,       -4.2114257812,      302.8564453125
1488506104.5928180218,1488506104.5951139927,        0.7065429688,        0.0097656250,       -0.1948242188,      111.7706298828,       -3.2348632812,      308.5784912109
1488506104.5953960419,1488506104.5976850986,        0.7065429688,        0.0097656250,       -0.1948242188,      111.7706298828,       -3.2348632812,      308.5784912109
1488506104.5979690552,1488506104.6002619267,        0.7875976562,       -0.0151367188,       -0.2050781250,      111.8621826172,       -1.2512207031,      313.1713867188
1488506104.6005458832,1488506104.6029870510,        0.7875976562,       -0.0151367188,       -0.2050781250,      111.8621826172,       -1.2512207031,      313.1713867188
1488506104.6032729149,1488506104.6055688858,        0.7875976562,       -0.0151367188,       -0.2050781250,      115.0360107422,       -1.2664794922,      318.4204101562
1488506104.6058530807,1488506104.6081500053,        0.7875976562,       -0.0151367188,       -0.2460937500,      115.0360107422,       -1.2664794922,      318.4204101562
1488506104.6084330082,1488506104.6107199192,        0.8940429688,        0.0043945312,       -0.2460937500,      118.4844970703,       -1.2664794922,      322.5708007812
1488506104.6110029221,1488506104.6134769917,        0.8940429688,        0.0043945312,       -0.2460937500,      118.4844970703,       -1.2664794922,      322.5708007812
1488506104.6137690544,1488506104.6162500381,        0.8940429688,        0.0043945312,       -0.2460937500,      119.8730468750,       -0.2441406250,      327.1636962891
1488506104.6165339947,1488506104.6188321114,        0.8940429688,        0.0278320312,       -0.2944335938,      119.8730468750,       -0.2441406250,      327.1636962891
1488506104.6191151142,1488506104.6214120388,        1.0014648438,        0.0278320312,       -0.2944335938,      119.9188232422,        0.7629394531,      332.1228027344
1488506104.6218531132,1488506104.6242339611,        1.0014648438,        0.0278320312,       -0.2944335938,      119.9188232422,        0.7629394531,      332.1228027344
1488506104.6245241165,1488506104.6269040108,        1.0014648438,        0.0278320312,       -0.2944335938,      119.4305419922,        2.0751953125,      336.6546630859
1488506104.6277539730,1488506104.6300470829,        1.1445312500,        0.0439453125,       -0.3310546875,      119.4305419922,        2.0751953125,      336.6546630859
1488506104.6303310394,1488506104.6326899529,        1.1445312500,        0.0439453125,       -0.3310546875,      119.0032958984,        3.5705566406,      340.1794433594
1488506104.6329710484,1488506104.6352651119,        1.1445312500,        0.0439453125,       -0.3310546875,      119.0032958984,        3.5705566406,      340.1794433594
1488506104.6355459690,1488506104.6378331184,        1.1445312500,        0.0439453125,       -0.3310546875,      118.9270019531,        5.7830810547,      343.7042236328
1488506104.6382238865,1488506104.6405169964,        1.2622070312,        0.0205078125,       -0.3334960938,      118.9270019531,        5.7830810547,      343.7042236328
1488506104.6408009529,1488506104.6430931091,        1.2622070312,        0.0205078125,       -0.3334960938,      121.9482421875,        8.0108642578,      346.3439941406
1488506104.6433770657,1488506104.6456658840,        1.2622070312,        0.0205078125,       -0.3334960938,      121.9482421875,        8.0108642578,      346.3439941406
1488506104.6459479332,1488506104.6482400894,        1.2622070312,        0.0205078125,       -0.3334960938,      129.7607421875,        8.5449218750,      347.3205566406
1488506104.6485209465,1488506104.6508090496,        1.4033203125,       -0.0131835938,       -0.3876953125,      129.5166015625,        8.5449218750,      347.3205566406
1488506104.6510899067,1488506104.6534280777,        1.4033203125,       -0.0131835938,       -0.3876953125,      129.5166015625,        7.9193115234,      347.4273681641
1488506104.6537089348,1488506104.6560039520,        1.4033203125,       -0.0131835938,       -0.3876953125,      141.7694091797,        7.9193115234,      347.4273681641
1488506104.6562850475,1488506104.6585779190,        1.4033203125,       -0.0131835938,       -0.3876953125,      141.7694091797,        7.9193115234,      346.7102050781
1488506104.6588580608,1488506104.6611440182,        1.5698242188,        0.0908203125,       -0.4877929688,      153.0456542969,        7.0648193359,      346.7102050781
1488506104.6614260674,1488506104.6637270451,        1.5698242188,        0.0908203125,       -0.4877929688,      153.0456542969,        7.0648193359,      346.7102050781
1488506104.6640100479,1488506104.6662991047,        1.5698242188,        0.0908203125,       -0.4877929688,      162.2772216797,        6.1798095703,      346.5118408203
1488506104.6665809155,1488506104.6688680649,        1.5698242188,        0.0908203125,       -0.5727539062,      162.2772216797,        6.1798095703,      346.5118408203
1488506104.6691510677,1488506104.6714448929,        1.7104492188,        0.4912109375,       -0.5727539062,      163.1469726562,        6.4086914062,      345.3063964844
1488506104.6718380451,1488506104.6741330624,        1.7104492188,        0.4912109375,       -0.5727539062,      163.1469726562,        6.4086914062,      345.3063964844
1488506104.6744151115,1488506104.6767179966,        1.7104492188,        0.4912109375,       -0.5727539062,      138.0004882812,       14.9841308594,      347.3358154297
1488506104.6770009995,1488506104.6792879105,        1.7104492188,        0.8662109375,       -0.4326171875,      138.0004882812,       14.9841308594,      347.3358154297
1488506104.6795730591,1488506104.6820049286,        1.8125000000,        0.8198242188,       -0.4326171875,      112.7319335938,       18.9208984375,      345.3369140625
1488506104.6822900772,1488506104.6845870018,        1.8125000000,        0.8198242188,       -0.4326171875,      112.7319335938,       18.9208984375,      345.3369140625
1488506104.6848709583,1488506104.6871640682,        1.8125000000,        0.8198242188,       -0.4326171875,       99.8992919922,       18.2952880859,      337.4938964844
1488506104.6874489784,1488506104.6897420883,        1.8125000000,        0.6459960938,       -0.5107421875,       99.8992919922,       18.2952880859,      337.4938964844
1488506104.6900250912,1488506104.6923730373,        1.8579101562,        0.6459960938,       -0.5107421875,      102.0812988281,       18.2189941406,      325.2258300781
1488506104.6926651001,1488506104.6950860023,        1.8579101562,        0.6459960938,       -0.5107421875,      102.0812988281,       18.2189941406,      325.2258300781
1488506104.6953799725,1488506104.6978030205,        1.8579101562,        0.6459960938,       -0.5107421875,      110.1531982422,       19.7143554688,      308.9904785156
1488506104.6980960369,1488506104.7005128860,        1.8457031250,        0.7192382812,       -0.6235351562,      110.1531982422,       19.7143554688,      308.9904785156
1488506104.7009119987,1488506104.7033410072,        1.8457031250,        0.7192382812,       -0.6235351562,      118.3624267578,       20.9197998047,      292.0532226562
1488506104.7036340237,1488506104.7060561180,        1.8457031250,        0.7192382812,       -0.6235351562,      118.3624267578,       20.9197998047,      292.0532226562
1488506104.7063479424,1488506104.7087678909,        1.8457031250,        0.7192382812,       -0.6235351562,      123.0010986328,       18.7225341797,      272.8424072266
1488506104.7090599537,1488506104.7114779949,        1.5502929688,        1.1206054688,       -0.8105468750,      123.0010986328,       18.7225341797,      272.8424072266
1488506104.7119460106,1488506104.7143781185,        1.5502929688,        1.1206054688,       -0.8105468750,      120.4528808594,       10.6964111328,      251.3275146484
1488506104.7146720886,1488506104.7170879841,        1.5502929688,        1.1206054688,       -0.8105468750,      120.4528808594,       10.6964111328,      251.3275146484
1488506104.7173790932,1488506104.7198019028,        1.5502929688,        1.7456054688,       -1.0014648438,      104.9499511719,       -0.1068115234,      228.9123535156
1488506104.7200911045,1488506104.7225220203,        1.2353515625,        1.6689453125,       -1.0014648438,      104.9499511719,       -0.1068115234,      228.9123535156
1488506104.7228100300,1488506104.7252280712,        1.2353515625,        1.6689453125,       -1.0014648438,       76.9805908203,      -11.7340087891,      209.3963623047
1488506104.7255170345,1488506104.7279438972,        1.2353515625,        1.6689453125,       -1.0014648438,       76.9805908203,      -11.7340087891,      209.3963623047
1488506104.7282319069,1488506104.7306480408,        0.9013671875,        2.2705078125,       -1.0405273438,       36.1633300781,      -19.5922851562,      193.7103271484
1488506104.7309379578,1488506104.7332870960,        0.9013671875,        2.2705078125,       -1.0405273438,       36.1633300781,      -19.5922851562,      193.7103271484
1488506104.7335710526,1488506104.7358720303,        0.9013671875,        2.2705078125,       -1.0405273438,      -22.2015380859,      -22.7661132812,      173.9196777344
1488506104.7361569405,1488506104.7386500835,        0.9013671875,        2.2705078125,       -1.0405273438,      -22.2015380859,      -22.7661132812,      173.9196777344
1488506104.7389359474,1488506104.7412309647,        0.7065429688,        2.5053710938,       -0.8198242188,      -77.1026611328,      -26.0925292969,      148.5900878906
1488506104.7419400215,1488506104.7443580627,        0.7065429688,        2.5053710938,       -0.8198242188,      -77.1026611328,      -26.0925292969,      148.5900878906
1488506104.7446510792,1488506104.7470650673,        0.7065429688,        2.5053710938,       -0.8198242188,     -112.6098632812,      -31.3720703125,      117.8741455078
1488506104.7473568916,1488506104.7497770786,        0.7065429688,        2.5053710938,       -0.5839843750,     -112.6098632812,      -31.3720703125,      117.8741455078
1488506104.7500700951,1488506104.7524979115,        0.8403320312,        2.0717773438,       -0.5839843750,     -125.7019042969,      -33.9660644531,       83.7707519531
1488506104.7527890205,1488506104.7552149296,        0.8403320312,        2.0717773438,       -0.5839843750,     -125.7019042969,      -33.9660644531,       83.7707519531
1488506104.7555079460,1488506104.7579219341,        0.8403320312,        2.0717773438,       -0.5839843750,     -123.0163574219,      -33.3557128906,       45.3033447266
1488506104.7582130432,1488506104.7606320381,        0.9653320312,        1.8159179688,       -0.2866210938,     -123.0163574219,      -33.3557128906,       45.3033447266
1488506104.7609229088,1488506104.7633628845,        0.9501953125,        1.8159179688,       -0.2866210938,     -110.1531982422,      -28.5491943359,        9.2010498047
1488506104.7636530399,1488506104.7660729885,        0.9501953125,        1.8159179688,       -0.2866210938,     -110.1531982422,      -28.5491943359,        9.2010498047
1488506104.7664759159,1488506104.7688980103,        0.9501953125,        1.8159179688,       -0.2866210938,      -91.6748046875,      -20.8587646484,      -29.5562744141
1488506104.7691900730,1488506104.7716159821,        0.9282226562,        1.7148437500,       -0.1044921875,      -91.6748046875,      -20.8587646484,      -29.5562744141
1488506104.7719519138,1488506104.7742431164,        0.9282226562,        1.7148437500,       -0.1044921875,      -70.9228515625,      -11.8103027344,      -67.1844482422
1488506104.7745280266,1488506104.7768321037,        0.9282226562,        1.7148437500,       -0.1044921875,      -70.9228515625,      -11.8103027344,      -67.1844482422
1488506104.7771179676,1488506104.7794120312,        0.9282226562,        1.7148437500,       -0.1044921875,      -46.1730957031,       -5.1269531250,     -101.1352539062
1488506104.7796950340,1488506104.7819919586,        0.8974609375,        1.4765625000,       -0.0571289062,      -46.1730957031,       -5.1269531250,     -101.1352539062
1488506104.7822759151,1488506104.7845768929,        0.8974609375,        1.4765625000,       -0.0571289062,      -16.0064697266,       -1.1138916016,     -133.5906982422
1488506104.7848610878,1488506104.7871520519,        0.8974609375,        1.4765625000,       -0.0571289062,      -16.0064697266,       -1.1138916016,     -133.5906982422
1488506104.7874341011,1488506104.7897310257,        0.8974609375,        1.4765625000,       -0.0571289062,       19.1497802734,       -1.9378662109,     -164.0625000000
1488506104.7900118828,1488506104.7924399376,        0.9409179688,        1.2358398438,       -0.1147460938,       16.5252685547,       -1.9378662109,     -164.0625000000
1488506104.7927229404,1488506104.7950220108,        0.9409179688,        1.2358398438,       -0.1147460938,       16.5252685547,      -14.9536132812,     -176.6357421875
1488506104.7953069210,1488506104.7976059914,        0.9409179688,        1.2358398438,       -0.1147460938,       47.8973388672,      -14.9536132812,     -176.6357421875
1488506104.7978909016,1488506104.8001859188,        0.9409179688,        1.2358398438,       -0.4277343750,       47.8973388672,      -26.6723632812,     -200.5462646484
1488506104.8004701138,1488506104.8029448986,        1.0883789062,        0.8041992188,       -0.4277343750,       69.9310302734,      -24.4598388672,     -200.5462646484
1488506104.8032391071,1488506104.8056640625,        1.0883789062,        0.8041992188,       -0.4277343750,       69.9310302734,      -12.7410888672,     -222.4578857422
1488506104.8059580326,1488506104.8083710670,        1.0883789062,        0.8041992188,       -0.4277343750,       82.6110839844,      -13.7939453125,     -222.4578857422
1488506104.8086619377,1488506104.8110749722,        1.0883789062,       -0.9785156250,        0.1987304688,       82.6110839844,        5.7373046875,     -219.5587158203
1488506104.8113648891,1488506104.8137969971,        1.3281250000,       -0.9785156250,        0.1987304688,       89.9810791016,        7.1868896484,     -219.5587158203
1488506104.8140859604,1488506104.8164989948,        1.3281250000,       -0.9785156250,        0.1987304688,       89.9810791016,        7.1868896484,     -206.7260742188
1488506104.8167879581,1488506104.8192100525,        1.3281250000,       -0.9785156250,        0.1987304688,      106.0943603516,       34.2102050781,     -206.7260742188
1488506104.8195030689,1488506104.8219161034,        1.8437500000,       -2.4555664062,        0.8251953125,      106.0943603516,       34.2102050781,     -212.4633789062
1488506104.8222000599,1488506104.8244919777,        1.8437500000,       -2.4555664062,        0.8251953125,      155.8990478516,       22.6440429688,     -212.4633789062
1488506104.8247740269,1488506104.8270709515,        1.8437500000,       -2.4555664062,        0.8251953125,      155.8990478516,       22.6440429688,     -247.3754882812
1488506104.8273539543,1488506104.8296480179,        1.8437500000,       -2.4555664062,        0.8251953125,      223.4802246094,       -4.5471191406,     -247.3754882812
1488506104.8299279213,1488506104.8322999477,        1.1743164062,        0.1210937500,        0.2695312500,      223.4802246094,       -4.5471191406,     -247.3754882812
1488506104.8326969147,1488506104.8351008892,        1.1743164062,        0.1210937500,        0.2695312500,      271.9726562500,      -33.9965820312,     -275.4516601562
1488506104.8353929520,1488506104.8377931118,        1.1743164062,        0.1210937500,        0.2695312500,      271.9726562500,      -33.9965820312,     -283.2641601562
1488506104.8380808830,1488506104.8404860497,        1.1743164062,        0.1210937500,       -0.4804687500,      247.2991943359,      -43.4570312500,     -283.3557128906
1488506104.8407750130,1488506104.8431890011,        1.4653320312,        2.3491210938,       -0.4726562500,      247.2991943359,      -43.4570312500,     -283.3557128906
1488506104.8434789181,1488506104.8458750248,        1.4653320312,        2.3491210938,       -0.4726562500,      176.5747070312,      -38.1927490234,     -273.6358642578
1488506104.8461649418,1488506104.8485701084,        1.4653320312,        2.3491210938,       -0.4726562500,      176.5747070312,      -38.1927490234,     -273.6358642578
1488506104.8488590717,1488506104.8512620926,        1.4653320312,        1.2587890625,       -0.5937500000,       85.4644775391,      -24.6124267578,     -246.0937500000
1488506104.8515520096,1488506104.8539419174,        1.3725585938,        1.2587890625,       -0.5937500000,       85.4644775391,      -24.6124267578,     -246.0937500000
1488506104.8542299271,1488506104.8566141129,        1.3725585938,        1.2587890625,       -0.5937500000,       12.3291015625,      -15.4876708984,     -217.6666259766
1488506104.8569018841,1488506104.8593769073,        1.3725585938,        1.2587890625,       -0.5937500000,       12.3291015625,      -15.4876708984,     -217.6666259766
1488506104.8596670628,1488506104.8625409603,        0.7734375000,        0.3144531250,        0.1215820312,      -20.9350585938,      -17.5933837891,     -205.2612304688
1488506104.8628380299,1488506104.8652529716,        0.7734375000,        0.3144531250,        0.1215820312,      -20.9350585938,      -17.5933837891,     -199.4934082031
1488506104.8655469418,1488506104.8679730892,        0.7734375000,        0.3144531250,        0.1215820312,      -20.5688476562,      -29.1290283203,     -199.4934082031
1488506104.8682661057,1488506104.8706800938,        0.7734375000,        0.3144531250,        0.1215820312,      -20.5688476562,      -29.1290283203,     -195.7092285156
1488506104.8709740639,1488506104.8733220100,        0.5507812500,        0.3872070312,       -0.0019531250,      -10.6506347656,      -38.1011962891,     -195.7092285156
1488506104.8736109734,1488506104.8759078979,        0.5507812500,        0.3872070312,       -0.0019531250,      -10.6506347656,      -38.1011962891,     -183.9904785156
1488506104.8761940002,1488506104.8784859180,        0.5507812500,        0.3872070312,       -0.0019531250,      -10.5590820312,      -39.3371582031,     -184.5092773438
1488506104.8787729740,1488506104.8810620308,        0.5507812500,        0.3872070312,       -0.3159179688,      -10.5590820312,      -39.3371582031,     -184.5092773438
1488506104.8813469410,1488506104.8837571144,        0.5595703125,        0.6298828125,       -0.3159179688,      -21.1181640625,      -36.5753173828,     -166.6259765625
1488506104.8840510845,1488506104.8864719868,        0.5595703125,        0.6298828125,       -0.3159179688,      -21.1181640625,      -36.5753173828,     -166.6259765625
1488506104.8867619038,1488506104.8891808987,        0.5595703125,        0.6298828125,       -0.3159179688,      -32.1044921875,      -36.8347167969,     -152.3590087891
1488506104.8894751072,1488506104.8918869495,        0.5595703125,        0.6674804688,       -0.3666992188,      -32.1044921875,      -36.8347167969,     -152.3590087891
1488506104.8921730518,1488506104.8944680691,        0.6948242188,        0.6674804688,       -0.3666992188,      -42.7856445312,      -36.2243652344,     -142.1661376953
1488506104.8947510719,1488506104.8970499039,        0.6948242188,        0.6674804688,       -0.3666992188,      -42.7856445312,      -36.2243652344,     -142.1661376953
1488506104.8974409103,1488506104.8997359276,        0.6948242188,        0.6674804688,       -0.3666992188,      -51.4678955078,      -34.3170166016,     -132.5073242188
1488506104.9000220299,1488506104.9023220539,        0.7280273438,        0.4697265625,       -0.2778320312,      -51.4678955078,      -34.3170166016,     -132.5073242188
1488506104.9026091099,1488506104.9049069881,        0.7280273438,        0.4697265625,       -0.2778320312,      -58.3801269531,      -32.5469970703,     -123.8555908203
1488506104.9051909447,1488506104.9074840546,        0.7280273438,        0.4697265625,       -0.2778320312,      -58.3801269531,      -32.5469970703,     -123.8555908203
1488506104.9077680111,1488506104.9100658894,        0.7280273438,        0.4697265625,       -0.2778320312,      -60.7147216797,      -33.6456298828,     -116.0888671875
1488506104.9103519917,1488506104.9127910137,        0.6240234375,        0.2338867188,       -0.2065429688,      -60.7147216797,      -33.6456298828,     -116.0888671875
