time_stamp before, time_stamp after, Acceleration x, Acceleration y, Acceleration z, Gyro x, Gyro y, Gyro z
1488505901.0305390358,1488505901.0354740620,        0.5937500000,        0.1943359375,       -0.0375976562,        0.5493164062,       -1.8005371094,       -0.7324218750
1488505901.0357799530,1488505901.0384359360,        0.5971679688,        0.1875000000,       -0.0375976562,       -0.4425048828,       -1.4343261719,       -0.7324218750
1488505901.0387179852,1488505901.0411291122,        0.5971679688,        0.1875000000,       -0.0375976562,       -0.4425048828,       -1.4343261719,       -0.7324218750
1488505901.0414080620,1488505901.0454819202,        0.5971679688,        0.1875000000,       -0.0375976562,       -1.2969970703,       -0.9307861328,       -0.7629394531
1488505901.0457839966,1488505901.0480699539,        0.6044921875,        0.1962890625,       -0.0493164062,       -1.2969970703,       -0.9307861328,       -0.5493164062
1488505901.0483438969,1488505901.0506219864,        0.6044921875,        0.1962890625,       -0.0493164062,       -1.8920898438,       -1.4495849609,       -0.5493164062
1488505901.0508940220,1488505901.0532228947,        0.6044921875,        0.1962890625,       -0.0493164062,       -1.8920898438,       -1.4495849609,       -0.3051757812
1488505901.0534949303,1488505901.0557780266,        0.6044921875,        0.1889648438,       -0.0395507812,       -2.0446777344,       -1.8157958984,       -0.3051757812
1488505901.0560491085,1488505901.0583350658,        0.6044921875,        0.1889648438,       -0.0395507812,       -2.0446777344,       -1.8157958984,       -0.3051757812
1488505901.0586071014,1488505901.0608930588,        0.6044921875,        0.1889648438,       -0.0395507812,       -2.1057128906,       -1.8463134766,       -0.5798339844
1488505901.0611639023,1488505901.0634961128,        0.6044921875,        0.1889648438,       -0.0395507812,       -2.1057128906,       -1.8463134766,       -0.5798339844
1488505901.0637669563,1488505901.0660510063,        0.6098632812,        0.1953125000,       -0.0297851562,       -2.1972656250,       -1.6326904297,       -0.6866455078
1488505901.0663230419,1488505901.0686080456,        0.6098632812,        0.1953125000,       -0.0297851562,       -2.1972656250,       -1.6326904297,       -0.6866455078
1488505901.0688810349,1488505901.0711610317,        0.6098632812,        0.1953125000,       -0.0297851562,       -2.3956298828,       -2.1820068359,       -0.5187988281
1488505901.0714321136,1488505901.0737249851,        0.6098632812,        0.1953125000,       -0.0297851562,       -2.3956298828,       -2.1820068359,       -0.5187988281
1488505901.0739960670,1488505901.0762848854,        0.6069335938,        0.1928710938,       -0.0229492188,       -2.1820068359,       -1.8768310547,       -0.6866455078
1488505901.0765590668,1488505901.0788540840,        0.6069335938,        0.1928710938,       -0.0229492188,       -2.1820068359,       -1.8768310547,       -0.6866455078
1488505901.0791270733,1488505901.0814139843,        0.6069335938,        0.1928710938,       -0.0229492188,       -2.0904541016,       -1.5411376953,       -0.9460449219
1488505901.0817298889,1488505901.0840160847,        0.6069335938,        0.1928710938,       -0.0229492188,       -2.0904541016,       -1.5411376953,       -0.9460449219
1488505901.0842890739,1488505901.0865840912,        0.6103515625,        0.1875000000,       -0.0234375000,       -1.9073486328,       -1.1596679688,       -0.6713867188
1488505901.0868589878,1488505901.0891489983,        0.6103515625,        0.1875000000,       -0.0234375000,       -1.9073486328,       -1.1596679688,       -0.6713867188
1488505901.0894238949,1488505901.0918719769,        0.6103515625,        0.1875000000,       -0.0234375000,       -1.9073486328,       -1.4038085938,       -0.6408691406
1488505901.0921480656,1488505901.0944459438,        0.6103515625,        0.1875000000,       -0.0234375000,       -1.1901855469,       -1.4038085938,       -0.6408691406
1488505901.0947198868,1488505901.0970079899,        0.6088867188,        0.1879882812,       -0.0283203125,       -1.1901855469,       -1.4038085938,       -0.5035400391
1488505901.0974299908,1488505901.0997240543,        0.6088867188,        0.1879882812,       -0.0283203125,       -0.2288818359,       -1.6479492188,       -0.5035400391
1488505901.0999989510,1488505901.1024630070,        0.6088867188,        0.1879882812,       -0.0283203125,       -0.2288818359,       -1.6479492188,       -0.5645751953
1488505901.1027450562,1488505901.1051480770,        0.6088867188,        0.1879882812,       -0.0283203125,        1.0833740234,       -1.9073486328,       -0.5645751953
1488505901.1054298878,1488505901.1078419685,        0.5991210938,        0.1850585938,       -0.0136718750,        1.0833740234,       -1.9073486328,       -1.1291503906
1488505901.1081230640,1488505901.1105298996,        0.5991210938,        0.1850585938,       -0.0136718750,        2.0446777344,       -2.0446777344,       -1.1291503906
1488505901.1108100414,1488505901.1131451130,        0.5991210938,        0.1850585938,       -0.0136718750,        2.0446777344,       -2.0446777344,       -1.1138916016
1488505901.1134181023,1488505901.1157169342,        0.5991210938,        0.1850585938,       -0.0224609375,        2.9449462891,       -1.6326904297,       -1.1138916016
1488505901.1159899235,1488505901.1182849407,        0.6064453125,        0.1884765625,       -0.0224609375,        2.9449462891,       -1.6326904297,       -1.1138916016
1488505901.1185579300,1488505901.1209709644,        0.6064453125,        0.1884765625,       -0.0224609375,        3.1585693359,       -1.7547607422,       -1.1596679688
1488505901.1212449074,1488505901.1236500740,        0.6064453125,        0.1884765625,       -0.0224609375,        3.1585693359,       -1.7547607422,       -1.1596679688
1488505901.1239309311,1488505901.1263439655,        0.6064453125,        0.1835937500,       -0.0317382812,        3.6621093750,       -1.7242431641,       -1.2817382812
1488505901.1266241074,1488505901.1290481091,        0.5961914062,        0.1835937500,       -0.0317382812,        3.6621093750,       -1.7242431641,       -1.2817382812
1488505901.1293289661,1488505901.1317579746,        0.5961914062,        0.1835937500,       -0.0317382812,        3.8757324219,       -1.3732910156,       -1.1901855469
1488505901.1320369244,1488505901.1344521046,        0.5961914062,        0.1835937500,       -0.0317382812,        3.8757324219,       -1.3732910156,       -1.1901855469
1488505901.1347339153,1488505901.1371610165,        0.6049804688,        0.1899414062,       -0.0356445312,        3.5247802734,       -1.2817382812,       -1.2969970703
1488505901.1374409199,1488505901.1398589611,        0.6049804688,        0.1899414062,       -0.0356445312,        3.5247802734,       -1.2817382812,       -1.2969970703
1488505901.1401379108,1488505901.1426370144,        0.6049804688,        0.1899414062,       -0.0356445312,        3.9367675781,       -1.2054443359,       -1.4343261719
1488505901.1429190636,1488505901.1453359127,        0.6049804688,        0.1899414062,       -0.0356445312,        3.9367675781,       -1.2054443359,       -1.4343261719
1488505901.1456160545,1488505901.1480300426,        0.6035156250,        0.1958007812,       -0.0410156250,        3.7231445312,       -0.7934570312,       -1.4038085938
1488505901.1483120918,1488505901.1507279873,        0.6035156250,        0.1958007812,       -0.0410156250,        3.7231445312,       -0.7934570312,       -1.4038085938
1488505901.1510109901,1488505901.1534459591,        0.6035156250,        0.1958007812,       -0.0410156250,        3.2958984375,       -0.7934570312,       -1.4953613281
1488505901.1537270546,1488505901.1561429501,        0.6035156250,        0.1958007812,       -0.0483398438,        3.2958984375,       -0.7934570312,       -1.4953613281
1488505901.1564249992,1488505901.1588780880,        0.6069335938,        0.1928710938,       -0.0483398438,        3.3111572266,       -0.5950927734,       -1.2359619141
1488505901.1591610909,1488505901.1615660191,        0.6069335938,        0.1928710938,       -0.0483398438,        3.3111572266,       -0.5950927734,       -1.2359619141
1488505901.1628050804,1488505901.1651039124,        0.6069335938,        0.1928710938,       -0.0483398438,        2.6092529297,       -0.5187988281,       -0.7019042969
1488505901.1653800011,1488505901.1676759720,        0.5952148438,        0.1923828125,       -0.0361328125,        2.6092529297,       -0.5187988281,       -0.9918212891
1488505901.1679511070,1488505901.1702458858,        0.5952148438,        0.1923828125,       -0.0361328125,        1.9378662109,       -0.7629394531,       -0.9918212891
1488505901.1705200672,1488505901.1728749275,        0.5952148438,        0.1923828125,       -0.0361328125,        1.9378662109,       -0.7629394531,       -0.5798339844
1488505901.1731491089,1488505901.1754341125,        0.5952148438,        0.1923828125,       -0.0361328125,        0.9307861328,       -0.6256103516,       -0.5798339844
1488505901.1757080555,1488505901.1779999733,        0.5961914062,        0.2021484375,       -0.0541992188,        0.9307861328,       -0.6256103516,       -0.5798339844
1488505901.1782739162,1488505901.1805639267,        0.5961914062,        0.2021484375,       -0.0541992188,        0.1525878906,       -0.7781982422,       -0.2441406250
1488505901.1808381081,1488505901.1832358837,        0.5961914062,        0.2021484375,       -0.0541992188,        0.1525878906,       -0.7781982422,       -0.2441406250
1488505901.1835129261,1488505901.1858050823,        0.5961914062,        0.2021484375,       -0.0541992188,       -1.0070800781,       -0.2441406250,        0.0762939453
1488505901.1860799789,1488505901.1883749962,        0.5878906250,        0.2080078125,       -0.0444335938,       -1.0070800781,       -0.2441406250,        0.0762939453
1488505901.1886489391,1488505901.1909470558,        0.5878906250,        0.2080078125,       -0.0444335938,       -1.0986328125,        0.0152587891,       -0.1525878906
1488505901.1912200451,1488505901.1935179234,        0.5878906250,        0.2080078125,       -0.0444335938,       -1.0986328125,        0.0152587891,       -0.1525878906
1488505901.1937930584,1488505901.1960799694,        0.5878906250,        0.2080078125,       -0.0444335938,       -1.0681152344,       -0.0915527344,       -0.2441406250
1488505901.1963539124,1488505901.1986498833,        0.5849609375,        0.2001953125,       -0.0390625000,       -1.0681152344,       -0.0915527344,       -0.2441406250
1488505901.1989250183,1488505901.2012109756,        0.5849609375,        0.2001953125,       -0.0390625000,       -1.6632080078,       -0.1373291016,       -0.0762939453
1488505901.2014870644,1488505901.2038218975,        0.5849609375,        0.2001953125,       -0.0390625000,       -1.6632080078,       -0.1373291016,       -0.0762939453
1488505901.2040960789,1488505901.2063899040,        0.5849609375,        0.2001953125,       -0.0458984375,       -2.0904541016,       -0.1220703125,        0.0305175781
1488505901.2066650391,1488505901.2089569569,        0.5878906250,        0.2021484375,       -0.0458984375,       -2.0904541016,       -0.1220703125,        0.0305175781
1488505901.2092330456,1488505901.2115259171,        0.5878906250,        0.2021484375,       -0.0458984375,       -2.0904541016,       -0.3509521484,        0.2441406250
1488505901.2118721008,1488505901.2141599655,        0.5878906250,        0.2021484375,       -0.0458984375,       -2.2430419922,       -0.3509521484,        0.2441406250
1488505901.2144351006,1488505901.2167229652,        0.5878906250,        0.2021484375,       -0.0395507812,       -2.2430419922,       -0.3509521484,        0.6408691406
1488505901.2169990540,1488505901.2192869186,        0.5942382812,        0.2031250000,       -0.0395507812,       -1.6021728516,       -0.7476806641,        0.6408691406
1488505901.2195630074,1488505901.2221128941,        0.5942382812,        0.2031250000,       -0.0395507812,       -1.6021728516,       -0.7476806641,        0.3356933594
1488505901.2223899364,1488505901.2246770859,        0.5942382812,        0.2031250000,       -0.0395507812,       -1.1138916016,       -0.7324218750,        0.3356933594
1488505901.2250630856,1488505901.2273550034,        0.5942382812,        0.1982421875,       -0.0288085938,       -1.1138916016,       -0.7324218750,        0.0762939453
1488505901.2276279926,1488505901.2299129963,        0.5971679688,        0.1982421875,       -0.0288085938,       -1.3427734375,       -0.2441406250,        0.0762939453
1488505901.2301919460,1488505901.2325060368,        0.5971679688,        0.1982421875,       -0.0288085938,       -1.3427734375,       -0.2441406250,        0.0762939453
1488505901.2327830791,1488505901.2350680828,        0.5971679688,        0.1982421875,       -0.0288085938,       -0.5798339844,       -0.4272460938,        0.5187988281
1488505901.2353439331,1488505901.2376289368,        0.5893554688,        0.1938476562,       -0.0219726562,       -0.5798339844,       -0.4272460938,        0.5187988281
1488505901.2379040718,1488505901.2402191162,        0.5893554688,        0.1938476562,       -0.0219726562,       -0.1220703125,       -0.5340576172,        0.4577636719
1488505901.2404940128,1488505901.2428278923,        0.5893554688,        0.1938476562,       -0.0219726562,       -0.1220703125,       -0.5340576172,        0.4577636719
1488505901.2431020737,1488505901.2453849316,        0.5893554688,        0.1938476562,       -0.0219726562,        0.4425048828,       -0.4425048828,        0.4425048828
1488505901.2456600666,1488505901.2479538918,        0.5878906250,        0.1982421875,       -0.0283203125,        0.4425048828,       -0.4425048828,        0.4425048828
1488505901.2482299805,1488505901.2505140305,        0.5878906250,        0.1982421875,       -0.0283203125,        1.0070800781,       -0.6561279297,        0.3204345703
1488505901.2507889271,1488505901.2531149387,        0.5878906250,        0.1982421875,       -0.0283203125,        1.0070800781,       -0.6561279297,        0.3204345703
1488505901.2533888817,1488505901.2556738853,        0.5878906250,        0.1982421875,       -0.0283203125,        1.7700195312,       -0.7476806641,        0.7171630859
1488505901.2559480667,1488505901.2582418919,        0.5869140625,        0.1992187500,       -0.0385742188,        1.7700195312,       -0.7476806641,        0.7171630859
1488505901.2585160732,1488505901.2608098984,        0.5869140625,        0.1992187500,       -0.0385742188,        2.3193359375,       -0.6103515625,        0.7171630859
1488505901.2610859871,1488505901.2635309696,        0.5869140625,        0.1992187500,       -0.0385742188,        2.3193359375,       -0.6103515625,        0.7171630859
1488505901.2638130188,1488505901.2662138939,        0.5869140625,        0.1992187500,       -0.0385742188,        1.9836425781,       -0.7629394531,        0.5493164062
1488505901.2664940357,1488505901.2689011097,        0.5898437500,        0.1918945312,       -0.0366210938,        1.9836425781,       -0.7629394531,        0.5493164062
1488505901.2691829205,1488505901.2715868950,        0.5898437500,        0.1918945312,       -0.0366210938,        1.9836425781,       -0.8392333984,        0.8087158203
1488505901.2719209194,1488505901.2743330002,        0.5898437500,        0.1918945312,       -0.0366210938,        1.7395019531,       -0.8392333984,        0.8087158203
1488505901.2746160030,1488505901.2770180702,        0.5898437500,        0.1918945312,       -0.0366210938,        1.7395019531,       -0.7629394531,        0.7019042969
1488505901.2772998810,1488505901.2797460556,        0.5795898438,        0.1982421875,       -0.0283203125,        1.5258789062,       -0.7629394531,        0.7019042969
1488505901.2800281048,1488505901.2824420929,        0.5795898438,        0.1982421875,       -0.0283203125,        1.5258789062,       -0.2899169922,        1.0833740234
1488505901.2827239037,1488505901.2851328850,        0.5795898438,        0.1982421875,       -0.0283203125,        1.0375976562,       -0.2899169922,        1.0833740234
1488505901.2854120731,1488505901.2878179550,        0.5795898438,        0.2031250000,       -0.0351562500,        1.0375976562,       -0.3967285156,        1.2207031250
1488505901.2882049084,1488505901.2906088829,        0.5913085938,        0.2031250000,       -0.0351562500,        1.0070800781,       -0.3967285156,        1.2207031250
1488505901.2908909321,1488505901.2933049202,        0.5913085938,        0.2031250000,       -0.0351562500,        1.0070800781,       -0.3356933594,        1.5869140625
1488505901.2935860157,1488505901.2959849834,        0.5913085938,        0.2031250000,       -0.0351562500,        1.0528564453,       -0.3356933594,        1.5869140625
1488505901.2962639332,1488505901.2986650467,        0.5878906250,        0.2011718750,       -0.0429687500,        1.0528564453,       -0.2746582031,        1.5411376953
1488505901.2989459038,1488505901.3013539314,        0.5878906250,        0.2011718750,       -0.0429687500,        0.1220703125,       -0.2746582031,        1.5411376953
1488505901.3016359806,1488505901.3040840626,        0.5878906250,        0.2011718750,       -0.0429687500,        0.1220703125,       -0.2288818359,        1.7700195312
1488505901.3043661118,1488505901.3067719936,        0.5878906250,        0.2011718750,       -0.0429687500,        0.0305175781,       -0.2288818359,        1.7700195312
1488505901.3070530891,1488505901.3094589710,        0.5834960938,        0.2041015625,       -0.0458984375,        0.0305175781,       -0.0762939453,        1.5716552734
1488505901.3097391129,1488505901.3121399879,        0.5834960938,        0.2041015625,       -0.0458984375,       -0.6713867188,       -0.0762939453,        1.5716552734
1488505901.3124139309,1488505901.3147099018,        0.5834960938,        0.2041015625,       -0.0458984375,       -0.6713867188,        3.8299560547,        1.8310546875
1488505901.3149840832,1488505901.3172779083,        0.5834960938,        0.2041015625,       -0.0458984375,       -1.5869140625,        0.0762939453,        1.8310546875
1488505901.3175508976,1488505901.3198449612,        0.5820312500,        0.2011718750,       -0.0336914062,       -1.5869140625,        0.0762939453,        1.5106201172
1488505901.3201599121,1488505901.3224890232,        0.5820312500,        0.2011718750,       -0.0336914062,       -2.0751953125,       -0.5950927734,        1.5106201172
1488505901.3227651119,1488505901.3250560760,        0.5820312500,        0.2011718750,       -0.0336914062,       -2.0751953125,       -0.5950927734,        1.5106201172
1488505901.3253309727,1488505901.3276209831,        0.5820312500,        0.2011718750,       -0.0366210938,       -2.1362304688,       -0.6866455078,        1.3732910156
1488505901.3278949261,1488505901.3301839828,        0.5922851562,        0.1948242188,       -0.0366210938,       -2.1362304688,       -0.6866455078,        1.3732910156
1488505901.3304579258,1488505901.3328609467,        0.5922851562,        0.1948242188,       -0.0366210938,       -2.8228759766,       -0.3509521484,        1.7089843750
1488505901.3331360817,1488505901.3354279995,        0.5922851562,        0.1948242188,       -0.0366210938,       -2.8228759766,       -0.3509521484,        1.7089843750
1488505901.3357019424,1488505901.3379969597,        0.5922851562,        0.1948242188,       -0.0444335938,       -2.3803710938,       -0.6866455078,        1.6937255859
1488505901.3382699490,1488505901.3405621052,        0.5947265625,        0.1938476562,       -0.0444335938,       -2.3803710938,       -0.6866455078,        1.6937255859
1488505901.3408360481,1488505901.3433170319,        0.5947265625,        0.1938476562,       -0.0444335938,       -2.4719238281,       -0.6103515625,        1.7547607422
1488505901.3435990810,1488505901.3460159302,        0.5947265625,        0.1938476562,       -0.0444335938,       -2.4719238281,       -0.6103515625,        1.7547607422
1488505901.3462989330,1488505901.3487100601,        0.5947265625,        0.1928710938,       -0.0385742188,       -2.8076171875,       -0.5798339844,        1.7700195312
1488505901.3489921093,1488505901.3515620232,        0.5922851562,        0.1928710938,       -0.0385742188,       -2.8076171875,       -0.5798339844,        1.7700195312
1488505901.3521449566,1488505901.3544480801,        0.5922851562,        0.1928710938,       -0.0385742188,       -2.8686523438,       -0.7476806641,        1.3732910156
1488505901.3547229767,1488505901.3570089340,        0.5922851562,        0.1928710938,       -0.0385742188,       -2.8686523438,       -0.7476806641,        1.3732910156
1488505901.3573830128,1488505901.3596770763,        0.5986328125,        0.1840820312,       -0.0283203125,       -2.4108886719,       -0.7781982422,        1.4190673828
1488505901.3599519730,1488505901.3626880646,        0.5986328125,        0.1840820312,       -0.0283203125,       -2.4108886719,       -0.7781982422,        1.4190673828
1488505901.3629710674,1488505901.3653910160,        0.5986328125,        0.1840820312,       -0.0283203125,       -2.3498535156,       -0.5798339844,        1.9226074219
1488505901.3656730652,1488505901.3680930138,        0.5986328125,        0.1840820312,       -0.0288085938,       -2.3498535156,       -0.5798339844,        1.9226074219
1488505901.3683741093,1488505901.3707859516,        0.5908203125,        0.1821289062,       -0.0288085938,       -2.1209716797,       -0.8697509766,        1.8768310547
1488505901.3710670471,1488505901.3735330105,        0.5908203125,        0.1821289062,       -0.0288085938,       -2.1209716797,       -0.8697509766,        1.8768310547
1488505901.3738160133,1488505901.3762309551,        0.5908203125,        0.1821289062,       -0.0288085938,       -2.2735595703,       -0.6866455078,        1.5716552734
1488505901.3765120506,1488505901.3789250851,        0.5908203125,        0.1938476562,       -0.0317382812,       -2.2735595703,       -0.6866455078,        1.5716552734
1488505901.3792059422,1488505901.3816199303,        0.6020507812,        0.1938476562,       -0.0317382812,       -1.7089843750,       -0.4272460938,        1.1901855469
1488505901.3819520473,1488505901.3843610287,        0.6020507812,        0.1938476562,       -0.0317382812,       -1.7089843750,       -0.4272460938,        1.1901855469
1488505901.3846418858,1488505901.3870570660,        0.6020507812,        0.1938476562,       -0.0317382812,       -1.8157958984,       -0.7476806641,        1.2054443359
1488505901.3873391151,1488505901.3897669315,        0.6035156250,        0.1865234375,       -0.0244140625,       -1.8157958984,       -0.7476806641,        1.2054443359
1488505901.3900480270,1488505901.3924689293,        0.6035156250,        0.1865234375,       -0.0244140625,       -2.3345947266,       -1.1138916016,        1.4343261719
1488505901.3927419186,1488505901.3950369358,        0.6035156250,        0.1865234375,       -0.0244140625,       -2.3345947266,       -1.1138916016,        1.4343261719
1488505901.3953111172,1488505901.3975999355,        0.6035156250,        0.1865234375,       -0.0244140625,       -2.3803710938,       -1.1291503906,        1.3885498047
1488505901.3978719711,1488505901.4001610279,        0.6030273438,        0.1772460938,       -0.0292968750,       -2.3803710938,       -1.1291503906,        1.3885498047
1488505901.4004371166,1488505901.4027390480,        0.6030273438,        0.1772460938,       -0.0292968750,       -2.4261474609,       -0.8087158203,        1.4190673828
1488505901.4030139446,1488505901.4053070545,        0.6030273438,        0.1772460938,       -0.0292968750,       -2.4261474609,       -0.8087158203,        1.4190673828
1488505901.4055819511,1488505901.4078700542,        0.6030273438,        0.1772460938,       -0.0292968750,       -2.6245117188,       -0.7629394531,        1.2817382812
1488505901.4081439972,1488505901.4104380608,        0.6137695312,        0.1821289062,       -0.0415039062,       -2.6245117188,       -0.7629394531,        1.2817382812
1488505901.4107110500,1488505901.4131779671,        0.6137695312,        0.1821289062,       -0.0415039062,       -2.3193359375,       -0.8392333984,        1.2664794922
1488505901.4134540558,1488505901.4157500267,        0.6137695312,        0.1821289062,       -0.0415039062,       -2.3193359375,       -0.8392333984,        1.2664794922
1488505901.4161241055,1488505901.4184188843,        0.6137695312,        0.1821289062,       -0.0415039062,       -2.3193359375,       -0.7781982422,        1.3885498047
1488505901.4186949730,1488505901.4209849834,        0.6162109375,        0.1826171875,       -0.0234375000,       -2.1362304688,       -0.7781982422,        1.3885498047
1488505901.4212579727,1488505901.4238140583,        0.6162109375,        0.1826171875,       -0.0234375000,       -2.1362304688,       -1.1291503906,        1.1444091797
1488505901.4240949154,1488505901.4265120029,        0.6162109375,        0.1826171875,       -0.0234375000,       -2.1057128906,       -1.1291503906,        1.1444091797
1488505901.4267919064,1488505901.4292080402,        0.6162109375,        0.1777343750,       -0.0214843750,       -2.1057128906,       -1.2054443359,        0.8697509766
1488505901.4294888973,1488505901.4319169521,        0.6147460938,        0.1777343750,       -0.0214843750,       -2.0599365234,       -1.2054443359,        0.8697509766
1488505901.4321980476,1488505901.4346120358,        0.6147460938,        0.1777343750,       -0.0214843750,       -2.0599365234,       -0.9613037109,        0.8850097656
1488505901.4348959923,1488505901.4373159409,        0.6147460938,        0.1777343750,       -0.0214843750,       -1.1596679688,       -0.9613037109,        0.8850097656
1488505901.4375960827,1488505901.4400119781,        0.6088867188,        0.1738281250,       -0.0131835938,       -1.1596679688,       -0.9613037109,        1.0223388672
1488505901.4402930737,1488505901.4427199364,        0.6088867188,        0.1738281250,       -0.0131835938,       -1.2512207031,       -1.0223388672,        1.0223388672
1488505901.4430010319,1488505901.4454219341,        0.6088867188,        0.1738281250,       -0.0131835938,       -1.2512207031,       -1.0223388672,        0.9155273438
1488505901.4457049370,1488505901.4481229782,        0.6088867188,        0.1738281250,       -0.0131835938,       -0.7324218750,       -1.4038085938,        0.9155273438
1488505901.4484059811,1488505901.4508171082,        0.6118164062,        0.1831054688,       -0.0258789062,       -0.7324218750,       -1.4038085938,        0.7324218750
1488505901.4510989189,1488505901.4534380436,        0.6118164062,        0.1831054688,       -0.0258789062,       -0.1373291016,       -2.0446777344,        0.7324218750
1488505901.4537119865,1488505901.4560060501,        0.6118164062,        0.1831054688,       -0.0258789062,       -0.1373291016,       -2.0446777344,        0.2136230469
1488505901.4562809467,1488505901.4585809708,        0.6118164062,        0.1831054688,       -0.0258789062,        1.3732910156,       -2.1514892578,        0.2136230469
1488505901.4588549137,1488505901.4611449242,        0.5971679688,        0.1811523438,       -0.0107421875,        1.3732910156,       -2.1514892578,        0.2136230469
1488505901.4614179134,1488505901.4638309479,        0.5971679688,        0.1811523438,       -0.0107421875,        2.0141601562,       -2.0446777344,        0.1373291016
1488505901.4641120434,1488505901.4665310383,        0.5971679688,        0.1811523438,       -0.0107421875,        2.0141601562,       -2.0446777344,        0.1373291016
1488505901.4668149948,1488505901.4692330360,        0.5971679688,        0.1811523438,       -0.0166015625,        2.8686523438,       -2.3193359375,       -0.1983642578
1488505901.4695138931,1488505901.4719440937,        0.5883789062,        0.1845703125,       -0.0166015625,        2.8686523438,       -2.3193359375,       -0.1983642578
1488505901.4722249508,1488505901.4746499062,        0.5883789062,        0.1845703125,       -0.0166015625,        5.3100585938,       -2.3803710938,       -1.1291503906
1488505901.4749290943,1488505901.4773459435,        0.5883789062,        0.1845703125,       -0.0166015625,        5.3100585938,       -2.3803710938,       -1.1291503906
1488505901.4776389599,1488505901.4801819324,        0.5883789062,        0.1933593750,       -0.0268554688,        6.9580078125,       -2.6245117188,       -1.1444091797
1488505901.4804658890,1488505901.4833219051,        0.5913085938,        0.1933593750,       -0.0268554688,        6.9580078125,       -2.6245117188,       -0.8239746094
1488505901.4837129116,1488505901.4861259460,        0.5913085938,        0.1933593750,       -0.0268554688,        6.4392089844,       -2.5787353516,       -0.8239746094
1488505901.4864060879,1488505901.4888238907,        0.5913085938,        0.1933593750,       -0.0268554688,        6.4392089844,       -2.5787353516,       -0.5645751953
1488505901.4891068935,1488505901.4915180206,        0.6040039062,        0.2099609375,       -0.0268554688,        4.4555664062,       -1.9836425781,       -0.5645751953
1488505901.4918088913,1488505901.4942350388,        0.6040039062,        0.2099609375,       -0.0268554688,        4.4555664062,       -1.9836425781,       -0.7629394531
1488505901.4945158958,1488505901.4969320297,        0.6040039062,        0.2099609375,       -0.0268554688,        2.7923583984,       -1.4038085938,       -0.7629394531
1488505901.4972119331,1488505901.4996259212,        0.6040039062,        0.2099609375,       -0.0483398438,        2.7923583984,       -1.4038085938,       -0.9002685547
1488505901.4999089241,1488505901.5023179054,        0.5795898438,        0.1977539062,       -0.0483398438,        2.0599365234,       -1.1291503906,       -0.9002685547
1488505901.5025949478,1488505901.5048830509,        0.5795898438,        0.1977539062,       -0.0483398438,        2.0599365234,       -1.1291503906,       -1.5563964844
1488505901.5051569939,1488505901.5074479580,        0.5795898438,        0.1977539062,       -0.0483398438,        1.2969970703,       -1.3732910156,       -1.5563964844
1488505901.5077209473,1488505901.5100250244,        0.5795898438,        0.1928710938,       -0.0576171875,        1.2969970703,       -1.3732910156,       -1.5563964844
1488505901.5102980137,1488505901.5125958920,        0.5937500000,        0.1928710938,       -0.0576171875,       -1.2207031250,       -0.9765625000,       -2.3498535156
1488505901.5128710270,1488505901.5151700974,        0.5937500000,        0.1928710938,       -0.0576171875,       -1.2207031250,       -0.9765625000,       -2.3498535156
1488505901.5154440403,1488505901.5177350044,        0.5937500000,        0.1928710938,       -0.0576171875,       -2.7313232422,       -0.3051757812,       -2.8381347656
1488505901.5180089474,1488505901.5202989578,        0.5937500000,        0.1752929688,       -0.0537109375,       -2.7313232422,       -0.3051757812,       -2.8381347656
1488505901.5205729008,1488505901.5229010582,        0.6049804688,        0.1752929688,       -0.0537109375,       -3.8909912109,       -0.4425048828,       -3.8757324219
1488505901.5231750011,1488505901.5254681110,        0.6049804688,        0.1752929688,       -0.0537109375,       -3.8909912109,       -0.4425048828,       -3.8757324219
1488505901.5257420540,1488505901.5280289650,        0.6049804688,        0.1752929688,       -0.0537109375,       -4.7607421875,       -0.3356933594,       -5.1727294922
1488505901.5283041000,1488505901.5306060314,        0.6245117188,        0.1401367188,       -0.0678710938,       -4.7607421875,       -0.3356933594,       -5.1727294922
1488505901.5308818817,1488505901.5333490372,        0.6245117188,        0.1401367188,       -0.0678710938,       -4.8675537109,        0.0152587891,       -6.1187744141
1488505901.5336220264,1488505901.5359189510,        0.6245117188,        0.1401367188,       -0.0678710938,       -4.8675537109,        0.0152587891,       -6.1187744141
1488505901.5361919403,1488505901.5384860039,        0.6245117188,        0.1401367188,       -0.0678710938,       -5.3253173828,        0.3509521484,       -7.2174072266
1488505901.5387599468,1488505901.5410499573,        0.6577148438,        0.1049804688,       -0.0664062500,       -5.3253173828,        0.3509521484,       -7.2174072266
1488505901.5413250923,1488505901.5438590050,        0.6577148438,        0.1049804688,       -0.0664062500,       -4.3487548828,        0.9155273438,       -9.3841552734
1488505901.5441420078,1488505901.5465610027,        0.6577148438,        0.1049804688,       -0.0664062500,       -4.3487548828,        0.9155273438,       -9.3841552734
1488505901.5469529629,1488505901.5493700504,        0.6577148438,        0.1049804688,       -0.0664062500,       -2.8381347656,        2.2125244141,      -11.0931396484
1488505901.5496559143,1488505901.5521039963,        0.6982421875,        0.0991210938,       -0.0668945312,       -2.8381347656,        2.2125244141,      -11.0931396484
1488505901.5523838997,1488505901.5546770096,        0.6982421875,        0.0991210938,       -0.0668945312,       -3.0517578125,        2.9602050781,      -12.4206542969
1488505901.5549569130,1488505901.5572490692,        0.6982421875,        0.0991210938,       -0.0668945312,       -3.0517578125,        2.9602050781,      -12.4206542969
1488505901.5575261116,1488505901.5598208904,        0.6982421875,        0.0991210938,       -0.0668945312,       -3.0517578125,        3.4027099609,      -12.8936767578
1488505901.5600979328,1488505901.5624439716,        0.7065429688,        0.1274414062,       -0.0571289062,       -2.8533935547,        3.4027099609,      -12.8936767578
1488505901.5627288818,1488505901.5651569366,        0.7065429688,        0.1274414062,       -0.0571289062,       -2.8533935547,        3.4027099609,      -13.7176513672
1488505901.5654439926,1488505901.5678598881,        0.7065429688,        0.1274414062,       -0.0571289062,       -2.7008056641,        3.2501220703,      -13.7176513672
1488505901.5681428909,1488505901.5705599785,        0.7065429688,        0.1406250000,       -0.0566406250,       -2.7008056641,        7.1563720703,      -14.6789550781
1488505901.5708448887,1488505901.5733089447,        0.7070312500,        0.1406250000,       -0.0566406250,       -2.8686523438,        4.1961669922,      -14.6789550781
1488505901.5735940933,1488505901.5760140419,        0.7070312500,        0.1406250000,       -0.0566406250,       -2.8686523438,        4.1961669922,      -15.1519775391
1488505901.5762999058,1488505901.5787200928,        0.7070312500,        0.1406250000,       -0.0566406250,       -3.0975341797,        4.7912597656,      -15.1519775391
1488505901.5790069103,1488505901.5814249516,        0.7153320312,        0.1401367188,       -0.0634765625,       -3.0975341797,        4.7912597656,      -15.5181884766
1488505901.5817201138,1488505901.5841419697,        0.7153320312,        0.1401367188,       -0.0634765625,       -3.6010742188,        4.6234130859,      -15.5181884766
1488505901.5844271183,1488505901.5868520737,        0.7153320312,        0.1401367188,       -0.0634765625,       -3.6010742188,        4.6234130859,      -15.9606933594
1488505901.5871379375,1488505901.5895531178,        0.7153320312,        0.1401367188,       -0.0634765625,       -3.6315917969,        4.8675537109,      -15.9606933594
1488505901.5898380280,1488505901.5922949314,        0.6914062500,        0.1337890625,       -0.0546875000,       -3.6315917969,        4.8675537109,      -16.3116455078
1488505901.5925800800,1488505901.5950050354,        0.6914062500,        0.1337890625,       -0.0546875000,       -3.2196044922,        5.4016113281,      -16.3116455078
1488505901.5952899456,1488505901.5978119373,        0.6914062500,        0.1337890625,       -0.0546875000,       -3.2196044922,        5.4016113281,      -17.1661376953
1488505901.5981080532,1488505901.6005260944,        0.6914062500,        0.1337890625,       -0.0424804688,       -2.8839111328,        5.2490234375,      -17.1661376953
1488505901.6008129120,1488505901.6033151150,        0.6826171875,        0.1557617188,       -0.0424804688,       -2.8839111328,        5.2032470703,      -17.8375244141
1488505901.6035950184,1488505901.6058919430,        0.6826171875,        0.1557617188,       -0.0424804688,       -3.0975341797,        5.2032470703,      -17.8375244141
1488505901.6061720848,1488505901.6084659100,        0.6826171875,        0.1557617188,       -0.0424804688,       -3.0975341797,        5.2032470703,      -17.7917480469
1488505901.6087439060,1488505901.6110360622,        0.6826171875,        0.1801757812,       -0.0483398438,       -4.0283203125,        5.4321289062,      -17.7917480469
1488505901.6114320755,1488505901.6138510704,        0.6938476562,        0.1801757812,       -0.0483398438,       -4.0283203125,        5.4321289062,      -17.3492431641
1488505901.6141359806,1488505901.6165540218,        0.6938476562,        0.1801757812,       -0.0483398438,       -6.0424804688,        5.4931640625,      -17.3492431641
1488505901.6168379784,1488505901.6192541122,        0.6938476562,        0.1801757812,       -0.0483398438,       -6.0424804688,        5.4931640625,      -17.5323486328
1488505901.6195399761,1488505901.6219758987,        0.7006835938,        0.1728515625,       -0.0249023438,       -8.0108642578,        6.1645507812,      -17.5323486328
1488505901.6222629547,1488505901.6246778965,        0.7006835938,        0.1728515625,       -0.0249023438,       -8.0108642578,        6.1645507812,      -17.7307128906
1488505901.6249649525,1488505901.6273770332,        0.7006835938,        0.1728515625,       -0.0249023438,       -8.3160400391,        6.4392089844,      -17.7307128906
1488505901.6276619434,1488505901.6300830841,        0.7006835938,        0.1728515625,       -0.0249023438,       -8.3160400391,        6.4392089844,      -18.6462402344
1488505901.6303679943,1488505901.6327450275,        0.6928710938,        0.1455078125,       -0.0395507812,       -7.4462890625,        7.0648193359,      -18.6462402344
1488505901.6330239773,1488505901.6353199482,        0.6928710938,        0.1455078125,       -0.0395507812,       -7.4462890625,        7.0648193359,      -22.5524902344
1488505901.6356000900,1488505901.6378879547,        0.6928710938,        0.1455078125,       -0.0395507812,       -6.1340332031,        7.6141357422,      -19.7906494141
1488505901.6381690502,1488505901.6404569149,        0.6928710938,        0.1455078125,       -0.0395507812,       -6.1340332031,        7.6141357422,      -19.7906494141
1488505901.6407349110,1488505901.6430780888,        0.6801757812,        0.1215820312,       -0.0209960938,       -3.9978027344,        7.2784423828,      -21.2860107422
1488505901.6433560848,1488505901.6456489563,        0.6801757812,        0.1215820312,       -0.0209960938,       -3.9978027344,        7.2784423828,      -21.2860107422
1488505901.6459279060,1488505901.6482191086,        0.6801757812,        0.1215820312,       -0.0209960938,       -1.4343261719,        8.0566406250,      -23.5290527344
1488505901.6484971046,1488505901.6507909298,        0.6801757812,        0.1215820312,       -0.0209960938,       -1.4343261719,        8.0566406250,      -23.5290527344
1488505901.6510689259,1488505901.6535348892,        0.6801757812,        0.0961914062,       -0.0195312500,        1.9378662109,        7.9345703125,      -25.7110595703
1488505901.6538140774,1488505901.6561160088,        0.6801757812,        0.0961914062,       -0.0195312500,        1.9378662109,        7.9345703125,      -25.7110595703
1488505901.6563940048,1488505901.6587719917,        0.6801757812,        0.0961914062,       -0.0195312500,        3.6926269531,        7.6904296875,      -27.4353027344
1488505901.6590509415,1488505901.6613409519,        0.6801757812,        0.0961914062,       -0.0292968750,        3.6926269531,        7.6904296875,      -27.4353027344
1488505901.6616220474,1488505901.6640620232,        0.7011718750,        0.1157226562,       -0.0292968750,        4.9285888672,        7.9803466797,      -28.5034179688
1488505901.6643431187,1488505901.6666378975,        0.7011718750,        0.1157226562,       -0.0292968750,        4.9285888672,        7.9803466797,      -28.5034179688
1488505901.6669158936,1488505901.6692109108,        0.7011718750,        0.1157226562,       -0.0292968750,        5.9356689453,        8.8500976562,      -29.4799804688
1488505901.6694889069,1488505901.6718571186,        0.7011718750,        0.1235351562,       -0.0229492188,        5.9356689453,        8.8500976562,      -29.4799804688
1488505901.6721560955,1488505901.6745500565,        0.7001953125,        0.1235351562,       -0.0229492188,        7.9498291016,        8.5601806641,      -30.8837890625
1488505901.6749470234,1488505901.6773300171,        0.7001953125,        0.1235351562,       -0.0229492188,        7.9498291016,        8.5601806641,      -30.8837890625
1488505901.6782140732,1488505901.6805059910,        0.7001953125,        0.1235351562,       -0.0229492188,       11.9781494141,        8.4686279297,      -32.2265625000
1488505901.6807899475,1488505901.6832280159,        0.6933593750,        0.1381835938,       -0.0458984375,       11.9781494141,        8.4686279297,      -32.2265625000
1488505901.6835100651,1488505901.6857988834,        0.6933593750,        0.1381835938,       -0.0458984375,       14.5721435547,        8.9569091797,      -33.2946777344
1488505901.6860799789,1488505901.6883680820,        0.6933593750,        0.1381835938,       -0.0458984375,       14.5721435547,        8.9569091797,      -33.2946777344
1488505901.6886489391,1488505901.6909370422,        0.6933593750,        0.1381835938,       -0.0458984375,       15.8081054688,        9.2620849609,      -34.5458984375
1488505901.6912190914,1488505901.6935129166,        0.6928710938,        0.1645507812,       -0.0683593750,       15.8081054688,        9.2620849609,      -34.5458984375
1488505901.6937971115,1488505901.6960909367,        0.6928710938,        0.1645507812,       -0.0683593750,       15.8081054688,        9.0637207031,      -35.6140136719
1488505901.6963729858,1488505901.6986649036,        0.6928710938,        0.1645507812,       -0.0683593750,       15.7775878906,        9.0637207031,      -35.6140136719
1488505901.6989459991,1488505901.7012341022,        0.6928710938,        0.1645507812,       -0.0683593750,       15.7775878906,        9.0637207031,      -35.9802246094
1488505901.7015149593,1488505901.7038331032,        0.6684570312,        0.1728515625,       -0.0815429688,       15.2435302734,        9.2315673828,      -35.9802246094
1488505901.7041161060,1488505901.7064080238,        0.6684570312,        0.1728515625,       -0.0815429688,       15.2435302734,        9.2315673828,      -36.2243652344
1488505901.7066910267,1488505901.7089788914,        0.6684570312,        0.1728515625,       -0.0815429688,       15.4418945312,        9.4604492188,      -36.2243652344
1488505901.7092609406,1488505901.7115509510,        0.6684570312,        0.1728515625,       -0.0927734375,       15.4418945312,        9.4604492188,      -36.2243652344
1488505901.7118310928,1488505901.7141261101,        0.6420898438,        0.1816406250,       -0.0927734375,       15.4876708984,        9.4757080078,      -36.5600585938
1488505901.7144091129,1488505901.7167010307,        0.6420898438,        0.1816406250,       -0.0927734375,       15.4876708984,        9.4757080078,      -36.5600585938
1488505901.7169830799,1488505901.7192718983,        0.6420898438,        0.1816406250,       -0.0927734375,       15.2435302734,        9.3231201172,      -36.8041992188
1488505901.7195539474,1488505901.7220139503,        0.6420898438,        0.1816406250,       -0.0922851562,       15.2435302734,        9.3231201172,      -36.8041992188
1488505901.7222959995,1488505901.7245950699,        0.6274414062,        0.2099609375,       -0.0922851562,       15.0604248047,        9.5062255859,      -36.6821289062
1488505901.7248790264,1488505901.7271730900,        0.6274414062,        0.2099609375,       -0.0922851562,       15.0604248047,        9.5062255859,      -36.6821289062
1488505901.7274549007,1488505901.7297439575,        0.6274414062,        0.2099609375,       -0.0922851562,       13.7634277344,        9.5214843750,      -36.2701416016
1488505901.7300260067,1488505901.7324419022,        0.6274414062,        0.2285156250,       -0.0830078125,       13.7634277344,        9.5214843750,      -36.2701416016
1488505901.7327339649,1488505901.7351500988,        0.6162109375,        0.2285156250,       -0.0830078125,       10.7727050781,        9.9639892578,      -36.0260009766
1488505901.7354409695,1488505901.7378499508,        0.6162109375,        0.2285156250,       -0.0830078125,       10.7727050781,        9.9639892578,      -36.0260009766
1488505901.7382500172,1488505901.7406640053,        0.6162109375,        0.2285156250,       -0.0830078125,        7.4310302734,       10.7269287109,      -35.8886718750
1488505901.7409529686,1488505901.7433009148,        0.6044921875,        0.1850585938,       -0.0483398438,        7.4310302734,       10.7269287109,      -35.8886718750
1488505901.7435820103,1488505901.7458748817,        0.6044921875,        0.1850585938,       -0.0483398438,        7.2937011719,       11.0168457031,      -35.9954833984
1488505901.7461559772,1488505901.7484450340,        0.6044921875,        0.1850585938,       -0.0483398438,        7.2937011719,       11.0168457031,      -35.9954833984
1488505901.7487258911,1488505901.7510199547,        0.6044921875,        0.1850585938,       -0.0483398438,        7.4157714844,       10.9405517578,      -36.3311767578
1488505901.7513029575,1488505901.7537400723,        0.5874023438,        0.1914062500,       -0.0356445312,        7.4157714844,       10.9405517578,      -36.3311767578
1488505901.7540290356,1488505901.7564449310,        0.5874023438,        0.1914062500,       -0.0356445312,        7.4005126953,       11.5356445312,      -35.7971191406
1488505901.7567338943,1488505901.7592980862,        0.5874023438,        0.1914062500,       -0.0356445312,        7.4005126953,       11.5356445312,      -35.7971191406
1488505901.7595810890,1488505901.7620499134,        0.5874023438,        0.1914062500,       -0.0356445312,        6.5765380859,       11.4288330078,      -34.7900390625
1488505901.7623369694,1488505901.7647249699,        0.5615234375,        0.2636718750,       -0.0117187500,        6.5765380859,       11.4288330078,      -34.7900390625
1488505901.7650139332,1488505901.7674939632,        0.5615234375,        0.2636718750,       -0.0117187500,        5.4931640625,       11.4440917969,      -32.9742431641
1488505901.7677979469,1488505901.7701120377,        0.5615234375,        0.2636718750,       -0.0117187500,        5.4931640625,       11.4440917969,      -32.9742431641
1488505901.7703979015,1488505901.7727220058,        0.5615234375,        0.3354492188,        0.0151367188,        4.5166015625,       11.6882324219,      -31.2347412109
1488505901.7730031013,1488505901.7752981186,        0.5556640625,        0.3354492188,        0.0151367188,        4.5166015625,       11.6882324219,      -31.2347412109
1488505901.7755780220,1488505901.7778670788,        0.5556640625,        0.3354492188,        0.0151367188,        3.1433105469,       12.0544433594,      -29.9224853516
1488505901.7781479359,1488505901.7804410458,        0.5556640625,        0.3354492188,        0.0151367188,        3.1433105469,       12.0544433594,      -29.9224853516
1488505901.7807209492,1488505901.7830638885,        0.5556640625,        0.3540039062,        0.0317382812,        3.1433105469,       12.4053955078,      -28.6102294922
1488505901.7833459377,1488505901.7856349945,        0.5317382812,        0.3540039062,        0.0317382812,        2.0294189453,       12.4053955078,      -28.6102294922
1488505901.7859160900,1488505901.7882099152,        0.5317382812,        0.3540039062,        0.0317382812,        2.0294189453,        8.4991455078,      -27.5115966797
1488505901.7884879112,1488505901.7907779217,        0.5317382812,        0.3540039062,        0.0317382812,        1.5563964844,       11.7034912109,      -27.5115966797
1488505901.7910580635,1488505901.7933549881,        0.4912109375,        0.3388671875,        0.0478515625,        1.5563964844,       11.7034912109,      -26.5045166016
1488505901.7936360836,1488505901.7959330082,        0.4912109375,        0.3388671875,        0.0478515625,        0.7476806641,       10.9252929688,      -26.5045166016
1488505901.7962191105,1488505901.7985069752,        0.4912109375,        0.3388671875,        0.0478515625,        0.7476806641,       10.9252929688,      -26.5045166016
1488505901.7987909317,1488505901.8010790348,        0.4912109375,        0.3388671875,        0.0478515625,       -0.0152587891,       11.0626220703,      -25.9246826172
1488505901.8014760017,1488505901.8038220406,        0.4785156250,        0.2895507812,        0.0439453125,       -0.0152587891,       11.0626220703,      -25.9246826172
1488505901.8041040897,1488505901.8063879013,        0.4785156250,        0.2895507812,        0.0439453125,        0.1373291016,       10.9863281250,      -25.3295898438
1488505901.8066699505,1488505901.8089649677,        0.4785156250,        0.2895507812,        0.0439453125,        0.1373291016,       10.9863281250,      -25.3295898438
1488505901.8092451096,1488505901.8115339279,        0.4785156250,        0.2895507812,        0.0439453125,        1.4648437500,       10.5590820312,      -24.9938964844
1488505901.8118538857,1488505901.8141500950,        0.4848632812,        0.2822265625,        0.0498046875,        1.4648437500,       10.5590820312,      -24.9938964844
1488505901.8144330978,1488505901.8167340755,        0.4848632812,        0.2822265625,        0.0498046875,        3.5552978516,       10.4217529297,      -24.9938964844
1488505901.8170139790,1488505901.8193070889,        0.4848632812,        0.2822265625,        0.0498046875,        3.5552978516,       10.4217529297,      -24.9938964844
1488505901.8195879459,1488505901.8220279217,        0.4848632812,        0.2822265625,        0.0498046875,        4.8828125000,       10.2539062500,      -23.9410400391
1488505901.8223090172,1488505901.8246049881,        0.4931640625,        0.3310546875,        0.0351562500,        4.8828125000,       10.2539062500,      -23.9410400391
1488505901.8248879910,1488505901.8271780014,        0.4931640625,        0.3310546875,        0.0351562500,        5.7525634766,        9.9639892578,      -22.5219726562
1488505901.8274559975,1488505901.8297529221,        0.4931640625,        0.3310546875,        0.0351562500,        5.7525634766,        9.9639892578,      -22.5219726562
1488505901.8300290108,1488505901.8324160576,        0.4931640625,        0.3310546875,        0.0351562500,        6.9732666016,        9.7503662109,      -21.2249755859
1488505901.8326950073,1488505901.8349819183,        0.4965820312,        0.3413085938,        0.0332031250,        6.9732666016,        9.7503662109,      -21.2249755859
1488505901.8352611065,1488505901.8375511169,        0.4965820312,        0.3413085938,        0.0332031250,       10.8795166016,       10.2081298828,      -20.4772949219
1488505901.8378350735,1488505901.8401250839,        0.4965820312,        0.3413085938,        0.0332031250,        8.1481933594,       10.2081298828,      -20.4772949219
1488505901.8404068947,1488505901.8426980972,        0.4965820312,        0.3413085938,        0.0332031250,        8.1481933594,       10.2081298828,      -19.6228027344
1488505901.8429799080,1488505901.8452749252,        0.4965820312,        0.3369140625,        0.0332031250,        9.3536376953,       10.6201171875,      -19.6228027344
1488505901.8455588818,1488505901.8478510380,        0.4965820312,        0.3369140625,        0.0332031250,        9.3536376953,       10.6201171875,      -19.1802978516
1488505901.8481340408,1488505901.8504240513,        0.4965820312,        0.3369140625,        0.0332031250,       10.7727050781,       10.4217529297,      -19.1802978516
1488505901.8507089615,1488505901.8530509472,        0.4965820312,        0.3369140625,        0.0141601562,       10.7727050781,       10.4217529297,      -19.1802978516
1488505901.8533339500,1488505901.8556239605,        0.4877929688,        0.3349609375,        0.0141601562,       11.0321044922,        9.7045898438,      -18.4631347656
1488505901.8559060097,1488505901.8581979275,        0.4877929688,        0.3349609375,        0.0141601562,       11.0321044922,        9.7045898438,      -18.4631347656
1488505901.8584799767,1488505901.8607690334,        0.4877929688,        0.3349609375,        0.0141601562,       11.1999511719,        9.8724365234,      -18.1884765625
1488505901.8610498905,1488505901.8636341095,        0.4877929688,        0.3349609375,        0.0092773438,       11.1999511719,        9.8724365234,      -18.1884765625
1488505901.8640260696,1488505901.8663179874,        0.4765625000,        0.3208007812,        0.0092773438,       11.9018554688,        9.7961425781,      -17.2119140625
1488505901.8666019440,1488505901.8694961071,        0.4765625000,        0.3208007812,        0.0092773438,       11.9018554688,        9.7961425781,      -17.2119140625
1488505901.8697841167,1488505901.8721189499,        0.4765625000,        0.3208007812,        0.0092773438,       13.8244628906,       10.0097656250,      -17.1508789062
1488505901.8724060059,1488505901.8746950626,        0.4824218750,        0.3129882812,       -0.0039062500,       13.8244628906,       10.0097656250,      -17.1508789062
1488505901.8749799728,1488505901.8772680759,        0.4824218750,        0.3129882812,       -0.0039062500,       15.5334472656,        9.6435546875,      -16.2353515625
1488505901.8775489330,1488505901.8798379898,        0.4824218750,        0.3129882812,       -0.0039062500,       15.5334472656,        9.6435546875,      -16.2353515625
1488505901.8801200390,1488505901.8824610710,        0.4824218750,        0.3129882812,       -0.0039062500,       16.7999267578,       10.0097656250,      -16.4489746094
1488505901.8827469349,1488505901.8850309849,        0.4936523438,        0.3183593750,       -0.0170898438,       16.7999267578,       10.0097656250,      -16.4489746094
1488505901.8853158951,1488505901.8875989914,        0.4936523438,        0.3183593750,       -0.0170898438,       16.4947509766,        9.9639892578,      -15.3656005859
1488505901.8878788948,1488505901.8901650906,        0.4936523438,        0.3183593750,       -0.0170898438,       16.4947509766,        9.9639892578,      -15.3656005859
1488505901.8904459476,1488505901.8927419186,        0.4936523438,        0.3183593750,       -0.0170898438,       16.0064697266,        9.6588134766,      -14.6636962891
1488505901.8930239677,1488505901.8953120708,        0.5161132812,        0.3388671875,       -0.0283203125,       16.0064697266,        9.6588134766,      -14.6636962891
1488505901.8955929279,1488505901.8978788853,        0.5161132812,        0.3388671875,       -0.0283203125,       15.0604248047,        9.5977783203,      -14.8315429688
1488505901.8981599808,1488505901.9004590511,        0.5161132812,        0.3388671875,       -0.0283203125,       15.0604248047,        9.5977783203,      -14.8315429688
1488505901.9007411003,1488505901.9031050205,        0.5161132812,        0.3388671875,       -0.0283203125,       14.8162841797,        9.3688964844,      -13.8244628906
1488505901.9033870697,1488505901.9056749344,        0.5219726562,        0.3383789062,       -0.0375976562,       14.8162841797,        9.3688964844,      -13.8244628906
1488505901.9059579372,1488505901.9082469940,        0.5219726562,        0.3383789062,       -0.0375976562,       14.8162841797,        8.8806152344,      -13.6718750000
1488505901.9085290432,1488505901.9108169079,        0.5219726562,        0.3383789062,       -0.0375976562,       15.3961181641,        8.8806152344,      -13.6718750000
1488505901.9110989571,1488505901.9135439396,        0.5219726562,        0.3383789062,       -0.0478515625,       15.3961181641,        8.8806152344,      -13.3056640625
1488505901.9138269424,1488505901.9161140919,        0.5400390625,        0.3369140625,       -0.0478515625,       16.1590576172,        8.2397460938,      -13.3056640625
1488505901.9163939953,1488505901.9186809063,        0.5400390625,        0.3369140625,       -0.0478515625,       16.1590576172,        8.2397460938,      -13.1225585938
1488505901.9189629555,1488505901.9212579727,        0.5400390625,        0.3369140625,       -0.0478515625,       16.1895751953,        7.4768066406,      -13.1225585938
1488505901.9215381145,1488505901.9239449501,        0.5400390625,        0.3369140625,       -0.0649414062,       16.1895751953,        7.4768066406,      -13.1225585938
1488505901.9242279530,1488505901.9265201092,        0.5380859375,        0.3569335938,       -0.0649414062,       17.1661376953,        7.1563720703,      -13.5955810547
1488505901.9269111156,1488505901.9292020798,        0.5380859375,        0.3569335938,       -0.0649414062,       17.1661376953,        7.1563720703,      -13.5955810547
1488505901.9294838905,1488505901.9317779541,        0.5380859375,        0.3569335938,       -0.0649414062,       21.3775634766,        6.6070556641,      -14.3127441406
1488505901.9320619106,1488505901.9343550205,        0.5380859375,        0.3554687500,       -0.0659179688,       21.3775634766,        6.6070556641,      -14.3127441406
1488505901.9346399307,1488505901.9369258881,        0.5258789062,        0.3554687500,       -0.0659179688,       28.2897949219,        6.1798095703,      -13.9312744141
1488505901.9372069836,1488505901.9394960403,        0.5258789062,        0.3554687500,       -0.0659179688,       28.2897949219,        6.1798095703,      -13.9312744141
1488505901.9397780895,1488505901.9421210289,        0.5258789062,        0.3554687500,       -0.0659179688,       29.7393798828,        5.9356689453,      -14.1296386719
1488505901.9424018860,1488505901.9446959496,        0.4008789062,        0.4194335938,       -0.0581054688,       29.7393798828,        5.9356689453,      -14.1296386719
1488505901.9449770451,1488505901.9472761154,        0.4960937500,        0.4194335938,       -0.0581054688,       26.1230468750,        5.7067871094,      -12.6342773438
1488505901.9475579262,1488505901.9498529434,        0.4960937500,        0.4194335938,       -0.0581054688,       26.1230468750,        5.7067871094,      -12.6342773438
1488505901.9501340389,1488505901.9525210857,        0.4960937500,        0.4194335938,       -0.0581054688,       23.1628417969,        5.2795410156,       -9.0179443359
1488505901.9528079033,1488505901.9552299976,        0.4326171875,        0.3891601562,       -0.0439453125,       23.1628417969,        5.2795410156,       -9.0179443359
1488505901.9555180073,1488505901.9579310417,        0.4326171875,        0.3891601562,       -0.0439453125,       21.2860107422,        5.1116943359,       -7.0190429688
1488505901.9582169056,1488505901.9606359005,        0.4326171875,        0.3891601562,       -0.0439453125,       21.2860107422,        5.1116943359,       -7.0190429688
1488505901.9609210491,1488505901.9633600712,        0.4326171875,        0.3891601562,       -0.0439453125,       20.9655761719,        4.9285888672,       -4.6691894531
1488505901.9636440277,1488505901.9660630226,        0.4140625000,        0.3178710938,       -0.0424804688,       20.9655761719,        4.9285888672,       -4.6691894531
1488505901.9663479328,1488505901.9687700272,        0.4140625000,        0.3178710938,       -0.0424804688,       20.7214355469,        4.8522949219,       -0.3662109375
1488505901.9690580368,1488505901.9714779854,        0.4140625000,        0.3178710938,       -0.0424804688,       20.7214355469,        4.8522949219,       -0.3662109375
1488505901.9717750549,1488505901.9741919041,        0.4140625000,        0.3178710938,        0.0825195312,       23.2086181641,        4.6081542969,        4.1809082031
1488505901.9744770527,1488505901.9768929482,        0.3593750000,        0.1166992188,        0.0205078125,       23.2086181641,        4.6081542969,        4.1809082031
1488505901.9771780968,1488505901.9798181057,        0.3593750000,        0.1166992188,        0.0205078125,       33.2946777344,        2.7618408203,        7.6751708984
1488505901.9801061153,1488505901.9828550816,        0.3593750000,        0.1166992188,        0.0205078125,       33.2946777344,        2.7618408203,        7.6751708984
1488505901.9831418991,1488505901.9855630398,        0.3920898438,        0.0727539062,       -0.0649414062,       48.5839843750,       -0.4425048828,        5.9967041016
1488505901.9858489037,1488505901.9882659912,        0.3920898438,        0.0727539062,       -0.0649414062,       48.5839843750,       -0.4425048828,        5.9967041016
1488505901.9885509014,1488505901.9909679890,        0.3920898438,        0.0727539062,       -0.0649414062,       61.2640380859,       -4.5471191406,        2.1667480469
1488505901.9913690090,1488505901.9936919212,        0.3920898438,        0.0727539062,       -0.0649414062,       61.2640380859,       -4.5471191406,        2.1667480469
1488505901.9939699173,1488505901.9962608814,        0.3979492188,        0.1450195312,       -0.2036132812,       66.7266845703,       -6.7596435547,        4.0283203125
1488505901.9965400696,1488505901.9988300800,        0.3979492188,        0.1450195312,       -0.2036132812,       66.7266845703,       -6.7596435547,        4.0283203125
1488505901.9991080761,1488505902.0013990402,        0.3979492188,        0.1450195312,       -0.2036132812,       66.3909912109,       -7.3089599609,        7.5531005859
1488505902.0017108917,1488505902.0041279793,        0.3979492188,        0.1450195312,       -0.2036132812,       66.3909912109,       -7.3089599609,        7.5531005859
1488505902.0044140816,1488505902.0068290234,        0.4345703125,        0.1552734375,       -0.2246093750,       63.2324218750,       -7.3852539062,        9.7808837891
1488505902.0071129799,1488505902.0095291138,        0.4345703125,        0.1552734375,       -0.2246093750,       63.2324218750,       -7.3852539062,        9.7808837891
1488505902.0098140240,1488505902.0122079849,        0.4345703125,        0.1552734375,       -0.2246093750,       59.3261718750,       -7.6904296875,       10.9252929688
1488505902.0124900341,1488505902.0147800446,        0.4345703125,        0.1552734375,       -0.2192382812,       59.3261718750,       -7.6904296875,       10.9252929688
1488505902.0150620937,1488505902.0173540115,        0.4809570312,        0.1591796875,       -0.2192382812,       56.3049316406,       -9.2926025391,       12.4664306641
1488505902.0176389217,1488505902.0199329853,        0.4809570312,        0.1591796875,       -0.2192382812,       56.3049316406,       -9.2926025391,       12.4664306641
1488505902.0202140808,1488505902.0225119591,        0.4809570312,        0.1591796875,       -0.2192382812,       56.3049316406,      -11.0778808594,       14.2364501953
1488505902.0227959156,1488505902.0250930786,        0.4809570312,        0.1591796875,       -0.1806640625,       54.1381835938,      -11.0778808594,       14.2364501953
1488505902.0253770351,1488505902.0276739597,        0.5131835938,        0.1484375000,       -0.1806640625,       54.1381835938,      -11.0778808594,       16.1437988281
1488505902.0279569626,1488505902.0302510262,        0.5131835938,        0.1484375000,       -0.1806640625,       50.2929687500,      -12.1154785156,       16.1437988281
1488505902.0305349827,1488505902.0329759121,        0.5131835938,        0.1484375000,       -0.1806640625,       50.2929687500,      -12.1154785156,       18.0969238281
1488505902.0332610607,1488505902.0355489254,        0.5131835938,        0.1655273438,       -0.1538085938,       44.4183349609,      -12.9699707031,       18.0969238281
1488505902.0358319283,1488505902.0381429195,        0.5493164062,        0.1655273438,       -0.1538085938,       44.4183349609,      -12.9699707031,       22.0031738281
1488505902.0384271145,1488505902.0407218933,        0.5493164062,        0.1655273438,       -0.1538085938,       38.9556884766,      -13.8244628906,       20.4467773438
1488505902.0410048962,1488505902.0442659855,        0.5493164062,        0.1655273438,       -0.1538085938,       38.9556884766,      -13.8244628906,       22.6593017578
1488505902.0445690155,1488505902.0470359325,        0.5493164062,        0.1606445312,       -0.1401367188,       34.4543457031,      -14.6179199219,       22.6593017578
1488505902.0473310947,1488505902.0497460365,        0.5493164062,        0.1606445312,       -0.1401367188,       34.4543457031,      -15.7012939453,       24.6582031250
1488505902.0500369072,1488505902.0525040627,        0.5493164062,        0.1606445312,       -0.1401367188,       28.9306640625,      -15.7012939453,       24.6582031250
1488505902.0527980328,1488505902.0552129745,        0.5493164062,        0.1606445312,       -0.1508789062,       28.9306640625,      -17.3034667969,       26.7181396484
1488505902.0556139946,1488505902.0580270290,        0.5649414062,        0.1708984375,       -0.1508789062,       23.8189697266,      -17.3034667969,       26.7181396484
1488505902.0583178997,1488505902.0607349873,        0.5649414062,        0.1708984375,       -0.1508789062,       16.0064697266,      -18.7377929688,       27.8167724609
1488505902.0610260963,1488505902.0634469986,        0.5649414062,        0.1708984375,       -0.1508789062,       18.0816650391,      -18.7377929688,       27.8167724609
1488505902.0637390614,1488505902.0661590099,        0.5771484375,        0.1835937500,       -0.1528320312,       18.0816650391,      -19.7143554688,       28.6865234375
1488505902.0665569305,1488505902.0688650608,        0.5771484375,        0.1835937500,       -0.1528320312,       13.5498046875,      -19.7143554688,       28.6865234375
1488505902.0691490173,1488505902.0714430809,        0.5771484375,        0.1835937500,       -0.1528320312,       13.5498046875,      -21.0571289062,       30.4870605469
1488505902.0718560219,1488505902.0742340088,        0.5771484375,        0.1835937500,       -0.1528320312,       10.2233886719,      -21.0571289062,       30.4870605469
1488505902.0745239258,1488505902.0769131184,        0.5786132812,        0.1962890625,       -0.1318359375,       10.2233886719,      -22.1862792969,       31.5399169922
1488505902.0777490139,1488505902.0800430775,        0.5786132812,        0.1962890625,       -0.1318359375,        6.6223144531,      -22.1862792969,       31.5399169922
1488505902.0803260803,1488505902.0826950073,        0.5786132812,        0.1962890625,       -0.1318359375,        6.6223144531,      -22.9492187500,       32.8521728516
1488505902.0829761028,1488505902.0852680206,        0.5786132812,        0.1962890625,       -0.0068359375,        4.2114257812,      -22.9492187500,       32.8521728516
1488505902.0855500698,1488505902.0878388882,        0.5883789062,        0.2119140625,       -0.1162109375,        4.2114257812,      -23.5748291016,       33.9660644531
1488505902.0881199837,1488505902.0904150009,        0.5883789062,        0.2119140625,       -0.1162109375,        0.3662109375,      -23.5748291016,       33.9660644531
1488505902.0906970501,1488505902.0930380821,        0.5883789062,        0.2119140625,       -0.1162109375,        0.3662109375,      -23.5748291016,       34.9273681641
1488505902.0933189392,1488505902.0956048965,        0.5883789062,        0.2119140625,       -0.1025390625,       -3.9367675781,      -23.9562988281,       34.9273681641
1488505902.0958859921,1488505902.0981841087,        0.5825195312,        0.2177734375,       -0.1025390625,       -3.9367675781,      -23.9562988281,       35.9344482422
1488505902.0984671116,1488505902.1007499695,        0.5825195312,        0.2177734375,       -0.1025390625,       -6.7291259766,      -25.0091552734,       35.9344482422
1488505902.1010339260,1488505902.1033279896,        0.5825195312,        0.2177734375,       -0.1025390625,       -6.7291259766,      -25.0091552734,       35.9344482422
1488505902.1036100388,1488505902.1059010029,        0.5825195312,        0.2177734375,       -0.0898437500,       -9.6588134766,      -25.6195068359,       37.3229980469
1488505902.1061830521,1488505902.1084749699,        0.5937500000,        0.1875000000,       -0.0898437500,       -9.6588134766,      -25.6195068359,       37.3229980469
1488505902.1087570190,1488505902.1110539436,        0.5937500000,        0.1875000000,       -0.0898437500,      -11.2609863281,      -26.9927978516,       38.1469726562
1488505902.1113390923,1488505902.1136589050,        0.5937500000,        0.1875000000,       -0.0898437500,      -11.2609863281,      -26.9927978516,       38.1469726562
1488505902.1139459610,1488505902.1162419319,        0.5937500000,        0.1342773438,       -0.0756835938,      -12.1154785156,      -27.8167724609,       39.0014648438
1488505902.1165270805,1488505902.1188330650,        0.5966796875,        0.1342773438,       -0.0756835938,      -12.1154785156,      -27.8167724609,       39.0014648438
1488505902.1192181110,1488505902.1215128899,        0.5966796875,        0.1342773438,       -0.0756835938,      -10.7269287109,      -28.5186767578,       39.1998291016
1488505902.1218459606,1488505902.1241469383,        0.5966796875,        0.1342773438,       -0.0756835938,      -10.7269287109,      -28.5186767578,       39.1998291016
1488505902.1244330406,1488505902.1267271042,        0.6074218750,        0.1064453125,       -0.0732421875,       -8.1787109375,      -28.9154052734,       39.6575927734
1488505902.1270120144,1488505902.1293039322,        0.6074218750,        0.1064453125,       -0.0732421875,       -8.1787109375,      -28.9154052734,       39.6575927734
1488505902.1295859814,1488505902.1320281029,        0.6074218750,        0.1064453125,       -0.0732421875,       -4.8828125000,      -29.7241210938,       39.6575927734
1488505902.1323111057,1488505902.1346049309,        0.6074218750,        0.1064453125,       -0.0732421875,       -4.8828125000,      -29.7241210938,       39.6575927734
1488505902.1348869801,1488505902.1371920109,        0.6035156250,        0.0859375000,       -0.0405273438,       -0.9918212891,      -29.6783447266,       39.5965576172
1488505902.1375288963,1488505902.1398479939,        0.6035156250,        0.0859375000,       -0.0405273438,       -0.9918212891,      -29.6783447266,       39.5965576172
1488505902.1401329041,1488505902.1425139904,        0.6035156250,        0.0859375000,       -0.0405273438,        2.9144287109,      -30.0445556641,       39.7796630859
1488505902.1428029537,1488505902.1452329159,        0.6035156250,        0.0859375000,       -0.0405273438,        3.6468505859,      -30.0445556641,       39.7796630859
1488505902.1455209255,1488505902.1479430199,        0.6035156250,        0.0805664062,       -0.0136718750,       11.4593505859,      -30.7312011719,       39.4439697266
1488505902.1482379436,1488505902.1506550312,        0.6035156250,        0.0805664062,       -0.0136718750,        8.0413818359,      -30.7312011719,       39.4439697266
1488505902.1509439945,1488505902.1533739567,        0.6035156250,        0.0805664062,       -0.0136718750,        8.0413818359,      -30.4412841797,       39.3066406250
1488505902.1536641121,1488505902.1560769081,        0.6035156250,        0.0805664062,       -0.0136718750,       11.2152099609,      -30.4412841797,       39.3066406250
1488505902.1563711166,1488505902.1587829590,        0.5922851562,        0.0942382812,       -0.0034179688,       15.1214599609,      -30.2429199219,       40.1458740234
1488505902.1590750217,1488505902.1614940166,        0.5922851562,        0.0942382812,       -0.0034179688,       14.5874023438,      -30.2429199219,       40.1458740234
1488505902.1617960930,1488505902.1642150879,        0.5922851562,        0.0942382812,       -0.0034179688,       18.4936523438,      -30.7922363281,       41.1376953125
1488505902.1645069122,1488505902.1669321060,        0.5922851562,        0.1108398438,       -0.0166015625,       17.0440673828,      -30.7922363281,       41.1376953125
1488505902.1672239304,1488505902.1696400642,        0.5976562500,        0.1108398438,       -0.0166015625,       17.0440673828,      -31.1126708984,       42.0074462891
1488505902.1699330807,1488505902.1723639965,        0.5976562500,        0.1108398438,       -0.0166015625,       17.5170898438,      -31.1126708984,       42.0074462891
1488505902.1726570129,1488505902.1750760078,        0.5976562500,        0.1108398438,       -0.0166015625,       17.5170898438,      -30.6701660156,       43.7774658203
1488505902.1753690243,1488505902.1777870655,        0.6083984375,        0.1318359375,       -0.0332031250,       16.3879394531,      -30.6701660156,       43.7774658203
1488505902.1780779362,1488505902.1804959774,        0.6083984375,        0.1318359375,       -0.0332031250,       16.3879394531,      -30.6854248047,       45.2728271484
1488505902.1807880402,1488505902.1831450462,        0.6083984375,        0.1318359375,       -0.0332031250,       15.8538818359,      -30.6854248047,       45.2728271484
1488505902.1834299564,1488505902.1857259274,        0.6083984375,        0.1318359375,       -0.0332031250,       15.8538818359,      -30.6854248047,       46.7529296875
1488505902.1861219406,1488505902.1884789467,        0.6118164062,        0.1220703125,       -0.0244140625,       14.5568847656,      -30.5023193359,       46.7529296875
1488505902.1887650490,1488505902.1910600662,        0.6118164062,        0.1220703125,       -0.0244140625,       14.5568847656,      -30.5023193359,       48.1109619141
1488505902.1913449764,1488505902.1938350201,        0.6118164062,        0.1220703125,       -0.0244140625,       15.2435302734,      -30.6549072266,       48.1109619141
1488505902.1941230297,1488505902.1964190006,        0.6118164062,        0.1220703125,       -0.0244140625,       15.2435302734,      -30.6549072266,       49.1943359375
1488505902.1967060566,1488505902.1989979744,        0.6206054688,        0.1489257812,       -0.0458984375,       14.3432617188,      -30.2886962891,       49.1943359375
1488505902.1992819309,1488505902.2015790939,        0.6206054688,        0.1489257812,       -0.0458984375,       14.3432617188,      -30.2886962891,       50.0640869141
1488505902.2019290924,1488505902.2043449879,        0.6206054688,        0.1489257812,       -0.0458984375,       12.4053955078,      -29.6325683594,       50.0640869141
1488505902.2046380043,1488505902.2070600986,        0.6206054688,        0.1489257812,       -0.0400390625,       12.4053955078,      -29.6325683594,       50.6896972656
1488505902.2073509693,1488505902.2097721100,        0.6333007812,        0.1562500000,       -0.0400390625,       11.3677978516,      -29.1595458984,       50.6896972656
1488505902.2100648880,1488505902.2124550343,        0.6333007812,        0.1562500000,       -0.0400390625,       11.3677978516,      -29.1595458984,       54.5959472656
1488505902.2127408981,1488505902.2150349617,        0.6333007812,        0.1562500000,       -0.0400390625,        9.7503662109,      -29.0222167969,       51.5899658203
1488505902.2153179646,1488505902.2176198959,        0.6445312500,        0.1645507812,       -0.0366210938,        9.7503662109,      -29.0222167969,       51.5899658203
1488505902.2179019451,1488505902.2201900482,        0.6445312500,        0.1645507812,       -0.0366210938,        7.2784423828,      -28.3660888672,       52.2003173828
1488505902.2204730511,1488505902.2227718830,        0.6445312500,        0.1645507812,       -0.0366210938,        7.2784423828,      -28.3660888672,       52.2003173828
1488505902.2230548859,1488505902.2253420353,        0.6445312500,        0.1645507812,       -0.0366210938,        5.6304931641,      -27.7099609375,       53.0395507812
1488505902.2256240845,1488505902.2279150486,        0.6547851562,        0.1254882812,       -0.0190429688,        5.6304931641,      -27.7099609375,       53.0395507812
1488505902.2281959057,1488505902.2304921150,        0.6547851562,        0.1254882812,       -0.0190429688,        5.3558349609,      -27.2064208984,       53.6651611328
1488505902.2307720184,1488505902.2331109047,        0.6547851562,        0.1254882812,       -0.0190429688,        5.3558349609,      -27.2064208984,       53.6651611328
1488505902.2333929539,1488505902.2356779575,        0.6547851562,        0.1254882812,       -0.0190429688,        5.8593750000,      -26.3671875000,       54.2602539062
1488505902.2359600067,1488505902.2382540703,        0.6479492188,        0.0859375000,       -0.0043945312,        5.8593750000,      -26.3671875000,       54.2602539062
1488505902.2385358810,1488505902.2408289909,        0.6479492188,        0.0859375000,       -0.0043945312,        8.2092285156,      -25.4821777344,       54.5501708984
1488505902.2411100864,1488505902.2435679436,        0.6479492188,        0.0859375000,       -0.0043945312,        8.2092285156,      -25.4821777344,       54.5501708984
1488505902.2438540459,1488505902.2461469173,        0.6479492188,        0.0859375000,       -0.0043945312,       10.6811523438,      -24.4140625000,       54.8248291016
1488505902.2464361191,1488505902.2487258911,        0.6298828125,        0.0649414062,        0.0195312500,       10.6811523438,      -24.4140625000,       54.8248291016
1488505902.2491250038,1488505902.2514219284,        0.6298828125,        0.0649414062,        0.0195312500,       13.5955810547,      -23.1781005859,       55.2520751953
1488505902.2518401146,1488505902.2541329861,        0.6298828125,        0.0649414062,        0.0195312500,       13.5955810547,      -23.1781005859,       55.2520751953
1488505902.2544159889,1488505902.2567059994,        0.6298828125,        0.0649414062,        0.0195312500,       17.5018310547,      -21.7132568359,       55.4809570312
1488505902.2569890022,1488505902.2592840195,        0.6303710938,        0.0468750000,        0.0317382812,       17.6239013672,      -21.7132568359,       55.4809570312
1488505902.2595679760,1488505902.2619450092,        0.6303710938,        0.0468750000,        0.0317382812,       17.6239013672,      -21.7132568359,       55.8776855469
1488505902.2622361183,1488505902.2646670341,        0.6303710938,        0.0468750000,        0.0317382812,       21.8505859375,      -20.7824707031,       55.8776855469
1488505902.2649619579,1488505902.2673680782,        0.6303710938,        0.0468750000,        0.0424804688,       21.8505859375,      -20.7824707031,       56.3049316406
1488505902.2676599026,1488505902.2700810432,        0.6342773438,        0.0390625000,        0.0424804688,       25.7415771484,      -19.6990966797,       56.3049316406
1488505902.2703731060,1488505902.2728109360,        0.6342773438,        0.0390625000,        0.0424804688,       25.7415771484,      -15.7928466797,       56.8695068359
1488505902.2731029987,1488505902.2755239010,        0.6342773438,        0.0390625000,        0.0424804688,       29.5410156250,      -18.4326171875,       56.8695068359
1488505902.2758150101,1488505902.2782330513,        0.6342773438,        0.0351562500,        0.0234375000,       29.5410156250,      -18.4326171875,       57.0068359375
1488505902.2785279751,1488505902.2809491158,        0.6293945312,        0.0351562500,        0.0234375000,       32.3791503906,      -17.0288085938,       57.0068359375
1488505902.2812399864,1488505902.2835988998,        0.6293945312,        0.0351562500,        0.0234375000,       32.3791503906,      -17.0288085938,       57.6934814453
1488505902.2838830948,1488505902.2861819267,        0.6293945312,        0.0351562500,        0.0234375000,       35.6750488281,      -16.0369873047,       57.6934814453
1488505902.2864658833,1488505902.2887609005,        0.6352539062,        0.0356445312,        0.0332031250,       35.6750488281,      -16.0369873047,       58.6853027344
1488505902.2890439034,1488505902.2913401127,        0.6352539062,        0.0356445312,        0.0332031250,       39.0014648438,      -15.0756835938,       58.6853027344
1488505902.2916240692,1488505902.2939751148,        0.6352539062,        0.0356445312,        0.0332031250,       39.0014648438,      -15.0756835938,       58.6853027344
1488505902.2942590714,1488505902.2965509892,        0.6352539062,        0.0356445312,        0.0332031250,       41.5802001953,      -14.1906738281,       59.8602294922
1488505902.2968349457,1488505902.2991249561,        0.6347656250,        0.0424804688,        0.0058593750,       41.5802001953,      -14.1906738281,       59.8602294922
1488505902.2994120121,1488505902.3017580509,        0.6347656250,        0.0424804688,        0.0058593750,       43.8537597656,      -12.8784179688,       60.9436035156
1488505902.3020520210,1488505902.3044660091,        0.6347656250,        0.0424804688,        0.0058593750,       43.8537597656,      -12.8784179688,       60.9436035156
1488505902.3047609329,1488505902.3071839809,        0.6347656250,        0.0424804688,        0.0058593750,       45.0134277344,      -12.2375488281,       61.4318847656
1488505902.3074760437,1488505902.3099670410,        0.6494140625,        0.0576171875,       -0.0180664062,       45.0134277344,      -12.2375488281,       61.4318847656
1488505902.3102579117,1488505902.3131189346,        0.6494140625,        0.0576171875,       -0.0180664062,       46.1578369141,      -11.3067626953,       62.1032714844
1488505902.3135240078,1488505902.3159389496,        0.6494140625,        0.0576171875,       -0.0180664062,       46.1578369141,      -11.3067626953,       63.0798339844
1488505902.3162300587,1488505902.3186409473,        0.6494140625,        0.0805664062,       -0.0327148438,       47.3480224609,      -10.1165771484,       63.0798339844
1488505902.3189311028,1488505902.3213520050,        0.6577148438,        0.0805664062,       -0.0327148438,       47.3480224609,      -10.1165771484,       63.4765625000
1488505902.3216469288,1488505902.3240981102,        0.6577148438,        0.0805664062,       -0.0327148438,       48.6297607422,       -9.6893310547,       63.4765625000
1488505902.3243880272,1488505902.3268020153,        0.6577148438,        0.0805664062,       -0.0327148438,       48.6297607422,       -9.6893310547,       63.8580322266
1488505902.3270928860,1488505902.3295109272,        0.6669921875,        0.1035156250,       -0.0390625000,       48.8739013672,       -9.4604492188,       63.8580322266
1488505902.3298010826,1488505902.3321940899,        0.6669921875,        0.1035156250,       -0.0390625000,       48.8739013672,       -9.4604492188,       63.8580322266
1488505902.3324790001,1488505902.3347799778,        0.6669921875,        0.1035156250,       -0.0390625000,       47.3785400391,       -9.1705322266,       63.9038085938
1488505902.3350620270,1488505902.3373548985,        0.6669921875,        0.1035156250,       -0.0390625000,       47.3785400391,       -9.1705322266,       63.9038085938
1488505902.3376390934,1488505902.3399250507,        0.6650390625,        0.1103515625,       -0.0541992188,       45.1049804688,       -7.6141357422,       64.1326904297
1488505902.3402099609,1488505902.3425130844,        0.6650390625,        0.1103515625,       -0.0541992188,       45.1049804688,       -7.6141357422,       64.1326904297
1488505902.3427960873,1488505902.3450920582,        0.6650390625,        0.1103515625,       -0.0541992188,       43.0145263672,       -6.8054199219,       64.9719238281
1488505902.3453741074,1488505902.3476669788,        0.6650390625,        0.1103515625,       -0.0541992188,       43.0145263672,       -6.8054199219,       64.9719238281
1488505902.3479480743,1488505902.3502459526,        0.6708984375,        0.0957031250,       -0.0634765625,       40.6341552734,       -6.7749023438,       65.3991699219
1488505902.3505270481,1488505902.3528668880,        0.6708984375,        0.0957031250,       -0.0634765625,       40.6341552734,       -6.7749023438,       65.3991699219
1488505902.3531489372,1488505902.3554489613,        0.6708984375,        0.0957031250,       -0.0634765625,       38.7573242188,       -6.5002441406,       65.6890869141
1488505902.3557319641,1488505902.3580219746,        0.6708984375,        0.0957031250,       -0.0634765625,       38.7573242188,       -6.5002441406,       65.6890869141
1488505902.3583030701,1488505902.3605968952,        0.6660156250,        0.0581054688,       -0.0498046875,       37.3840332031,       -5.6304931641,       65.8569335938
1488505902.3608789444,1488505902.3633430004,        0.6660156250,        0.0581054688,       -0.0498046875,       37.3840332031,       -5.6304931641,       65.8569335938
1488505902.3636291027,1488505902.3659238815,        0.6660156250,        0.0581054688,       -0.0498046875,       36.6058349609,       -4.3792724609,       65.9484863281
1488505902.3662049770,1488505902.3684980869,        0.6660156250,        0.0581054688,       -0.0625000000,       36.6058349609,       -4.3792724609,       65.9484863281
1488505902.3687789440,1488505902.3710789680,        0.6801757812,        0.0405273438,       -0.0625000000,       36.6058349609,       -3.9672851562,       65.6280517578
1488505902.3713610172,1488505902.3738629818,        0.6801757812,        0.0405273438,       -0.0625000000,       35.9954833984,       -3.9672851562,       65.6280517578
1488505902.3741528988,1488505902.3765769005,        0.6801757812,        0.0405273438,       -0.0625000000,       35.9954833984,       -3.6163330078,       65.5822753906
1488505902.3769750595,1488505902.3793950081,        0.6655273438,        0.0375976562,       -0.0478515625,       35.7360839844,       -3.6163330078,       65.5822753906
1488505902.3796861172,1488505902.3820960522,        0.6655273438,        0.0375976562,       -0.0478515625,       35.4766845703,       -3.1738281250,       65.6127929688
1488505902.3823781013,1488505902.3846750259,        0.6655273438,        0.0375976562,       -0.0478515625,       35.4766845703,       -3.1738281250,       65.6127929688
1488505902.3849570751,1488505902.3872530460,        0.6655273438,        0.0375976562,       -0.0478515625,       35.4766845703,       -2.6397705078,       65.6890869141
1488505902.3875339031,1488505902.3898210526,        0.6547851562,        0.0322265625,       -0.0590820312,       35.5682373047,       -2.6397705078,       65.6890869141
1488505902.3901031017,1488505902.3924438953,        0.6547851562,        0.0322265625,       -0.0590820312,       35.5682373047,       -2.6397705078,       65.4907226562
1488505902.3927309513,1488505902.3951361179,        0.6547851562,        0.0322265625,       -0.0590820312,       36.2091064453,       -2.0294189453,       65.4907226562
1488505902.3954238892,1488505902.3978240490,        0.6547851562,        0.0322265625,       -0.0590820312,       36.2091064453,       -2.0294189453,       65.9027099609
1488505902.3981130123,1488505902.4005091190,        0.6596679688,        0.0190429688,       -0.0678710938,       36.4685058594,       -1.6174316406,       65.9027099609
1488505902.4007959366,1488505902.4032080173,        0.6596679688,        0.0190429688,       -0.0678710938,       36.4685058594,       -1.6174316406,       66.1315917969
1488505902.4034938812,1488505902.4058959484,        0.6596679688,        0.0190429688,       -0.0678710938,       37.0941162109,       -1.3275146484,       66.1315917969
1488505902.4061830044,1488505902.4085860252,        0.6596679688,        0.0190429688,       -0.0678710938,       37.0941162109,       -1.3275146484,       66.9250488281
1488505902.4088730812,1488505902.4112710953,        0.6645507812,        0.0014648438,       -0.0615234375,       37.2924804688,       -0.8392333984,       66.9250488281
1488505902.4115650654,1488505902.4139850140,        0.6645507812,        0.0014648438,       -0.0615234375,       37.2924804688,       -0.8392333984,       67.6116943359
1488505902.4142749310,1488505902.4166760445,        0.6645507812,        0.0014648438,       -0.0615234375,       38.2080078125,       -0.6103515625,       67.6116943359
1488505902.4169669151,1488505902.4193708897,        0.6645507812,       -0.0063476562,       -0.0751953125,       38.2080078125,       -0.6103515625,       67.8710937500
1488505902.4196600914,1488505902.4221079350,        0.6772460938,       -0.0063476562,       -0.0751953125,       39.1082763672,       -0.1831054688,       67.8710937500
1488505902.4223959446,1488505902.4248850346,        0.6772460938,       -0.0063476562,       -0.0751953125,       39.1082763672,       -0.1831054688,       69.0612792969
1488505902.4251790047,1488505902.4275989532,        0.6772460938,       -0.0063476562,       -0.0751953125,       39.0777587891,        0.0000000000,       69.0612792969
1488505902.4279000759,1488505902.4304020405,        0.6723632812,       -0.0083007812,       -0.0805664062,       39.0777587891,        0.0000000000,       68.9239501953
1488505902.4306941032,1488505902.4334518909,        0.6723632812,       -0.0083007812,       -0.0805664062,       40.3900146484,       -0.3051757812,       68.9239501953
1488505902.4337379932,1488505902.4360280037,        0.6723632812,       -0.0083007812,       -0.0805664062,       40.3900146484,        3.6010742188,       69.0307617188
1488505902.4363129139,1488505902.4386069775,        0.6723632812,       -0.0083007812,       -0.0805664062,       42.8619384766,        0.0152587891,       69.0307617188
1488505902.4388909340,1488505902.4411849976,        0.6816406250,        0.0156250000,       -0.0883789062,       42.8619384766,        0.0152587891,       68.6950683594
1488505902.4415760040,1488505902.4440689087,        0.6816406250,        0.0156250000,       -0.0883789062,       44.4183349609,        0.8087158203,       68.6950683594
1488505902.4443590641,1488505902.4467771053,        0.6816406250,        0.0156250000,       -0.0883789062,       44.4183349609,        0.8087158203,       68.2067871094
1488505902.4470670223,1488505902.4494869709,        0.6816406250,        0.0156250000,       -0.0976562500,       44.0979003906,        0.9918212891,       68.2067871094
1488505902.4497790337,1488505902.4522039890,        0.6767578125,        0.0346679688,       -0.0976562500,       44.0979003906,        0.9918212891,       68.5272216797
1488505902.4524950981,1488505902.4549179077,        0.6767578125,        0.0346679688,       -0.0976562500,       43.3349609375,        0.9307861328,       68.5272216797
1488505902.4552071095,1488505902.4576220512,        0.6767578125,        0.0346679688,       -0.0976562500,       43.3349609375,        0.9307861328,       68.7255859375
1488505902.4579110146,1488505902.4603209496,        0.6875000000,        0.0234375000,       -0.1059570312,       42.5415039062,        0.9765625000,       68.7255859375
1488505902.4606130123,1488505902.4629690647,        0.6875000000,        0.0234375000,       -0.1059570312,       42.5415039062,        0.9765625000,       68.6035156250
1488505902.4632530212,1488505902.4655458927,        0.6875000000,        0.0234375000,       -0.1059570312,       42.5262451172,        1.4038085938,       68.6035156250
1488505902.4658300877,1488505902.4681220055,        0.6875000000,        0.0234375000,       -0.1059570312,       42.5262451172,        1.4038085938,       68.6035156250
1488505902.4684040546,1488505902.4707040787,        0.6801757812,       -0.0156250000,       -0.1093750000,       42.4041748047,        1.9378662109,       68.2373046875
1488505902.4709858894,1488505902.4732830524,        0.6801757812,       -0.0156250000,       -0.1093750000,       42.4041748047,        1.9378662109,       68.2373046875
1488505902.4735651016,1488505902.4763700962,        0.6801757812,       -0.0156250000,       -0.1093750000,       42.8771972656,        2.5482177734,       67.4743652344
1488505902.4766550064,1488505902.4789490700,        0.6801757812,       -0.0156250000,       -0.1093750000,       42.8771972656,        2.5482177734,       67.4743652344
1488505902.4792320728,1488505902.4815220833,        0.6831054688,       -0.0268554688,       -0.1079101562,       43.1823730469,        3.1127929688,       67.0318603516
1488505902.4817969799,1488505902.4840910435,        0.6831054688,       -0.0268554688,       -0.1079101562,       43.1823730469,        3.1127929688,       67.0318603516
1488505902.4843750000,1488505902.4866690636,        0.6831054688,       -0.0268554688,       -0.1079101562,       42.9687500000,        4.0893554688,       66.9403076172
1488505902.4869520664,1488505902.4892389774,        0.6831054688,       -0.0268554688,       -0.1079101562,       42.9687500000,        4.0893554688,       66.9403076172
1488505902.4895229340,1488505902.4918189049,        0.6801757812,       -0.0263671875,       -0.1059570312,       41.8090820312,        4.8675537109,       66.9860839844
1488505902.4921009541,1488505902.4943900108,        0.6801757812,       -0.0263671875,       -0.1059570312,       41.8090820312,        4.8675537109,       66.9860839844
1488505902.4946730137,1488505902.4969670773,        0.6801757812,       -0.0263671875,       -0.1059570312,       39.8254394531,        5.4168701172,       67.1539306641
1488505902.4972488880,1488505902.4995379448,        0.6801757812,       -0.0263671875,       -0.1059570312,       39.8254394531,        5.4168701172,       67.1539306641
1488505902.4998199940,1488505902.5021259785,        0.6831054688,       -0.0288085938,       -0.1142578125,       38.7878417969,        6.1035156250,       66.9860839844
1488505902.5024099350,1488505902.5046999454,        0.6831054688,       -0.0288085938,       -0.1142578125,       38.7878417969,        6.1035156250,       66.9860839844
1488505902.5050919056,1488505902.5073850155,        0.6831054688,       -0.0288085938,       -0.1142578125,       37.3992919922,        6.8206787109,       67.3217773438
1488505902.5076661110,1488505902.5099599361,        0.6831054688,       -0.0288085938,       -0.1142578125,       37.3992919922,        6.8206787109,       67.3217773438
1488505902.5102400780,1488505902.5126399994,        0.6689453125,       -0.0351562500,       -0.1142578125,       37.3992919922,        7.0343017578,       67.3065185547
1488505902.5129249096,1488505902.5152161121,        0.6689453125,       -0.0351562500,       -0.1142578125,       35.6750488281,        7.0343017578,       67.3065185547
1488505902.5154979229,1488505902.5177841187,        0.6689453125,       -0.0351562500,       -0.1142578125,       35.6750488281,        7.3852539062,       67.5354003906
1488505902.5180659294,1488505902.5203568935,        0.6689453125,       -0.0205078125,       -0.1293945312,       33.1726074219,        7.3852539062,       67.5354003906
1488505902.5206379890,1488505902.5230278969,        0.6674804688,       -0.0205078125,       -0.1293945312,       33.1726074219,        7.3852539062,       68.0236816406
1488505902.5233108997,1488505902.5256099701,        0.6674804688,       -0.0205078125,       -0.1293945312,       30.9753417969,        7.7362060547,       68.0236816406
1488505902.5258910656,1488505902.5281820297,        0.6674804688,       -0.0205078125,       -0.1293945312,       30.9753417969,        7.7362060547,       68.0236816406
1488505902.5284628868,1488505902.5307528973,        0.6674804688,       -0.0283203125,       -0.1489257812,       29.1900634766,        8.1329345703,       68.0236816406
1488505902.5310359001,1488505902.5334239006,        0.6640625000,       -0.0283203125,       -0.1489257812,       29.1900634766,        8.1329345703,       68.0236816406
1488505902.5337080956,1488505902.5359981060,        0.6640625000,       -0.0283203125,       -0.1489257812,       26.9470214844,        8.4686279297,       68.4051513672
1488505902.5362830162,1488505902.5385770798,        0.6640625000,       -0.0283203125,       -0.1489257812,       26.9470214844,        8.4686279297,       68.4051513672
1488505902.5388610363,1488505902.5411489010,        0.6459960938,       -0.0273437500,       -0.1459960938,       26.2298583984,        8.1329345703,       68.5882568359
1488505902.5414319038,1488505902.5438389778,        0.6459960938,       -0.0273437500,       -0.1459960938,       26.2298583984,        8.1329345703,       68.5882568359
1488505902.5441279411,1488505902.5465450287,        0.6459960938,       -0.0273437500,       -0.1459960938,       25.6500244141,        8.3007812500,       68.0847167969
1488505902.5468349457,1488505902.5492539406,        0.6459960938,       -0.0273437500,       -0.1459960938,       25.6500244141,        8.3007812500,       68.0847167969
1488505902.5495419502,1488505902.5519690514,        0.6513671875,       -0.0009765625,       -0.1630859375,       23.0865478516,        8.0413818359,       67.3217773438
1488505902.5522611141,1488505902.5546729565,        0.6513671875,       -0.0009765625,       -0.1630859375,       23.0865478516,        8.0413818359,       67.3217773438
1488505902.5549619198,1488505902.5573771000,        0.6513671875,       -0.0009765625,       -0.1630859375,       21.4691162109,        7.9498291016,       66.3604736328
1488505902.5576679707,1488505902.5600829124,        0.6513671875,       -0.0009765625,       -0.1630859375,       21.4691162109,        7.9498291016,       66.3604736328
1488505902.5603709221,1488505902.5627460480,        0.6430664062,       -0.0087890625,       -0.1621093750,       21.9879150391,        7.7362060547,       65.7043457031
1488505902.5630300045,1488505902.5653231144,        0.6430664062,       -0.0087890625,       -0.1621093750,       21.9879150391,        7.7362060547,       65.7043457031
1488505902.5656061172,1488505902.5679008961,        0.6430664062,       -0.0087890625,       -0.1621093750,       22.2930908203,        7.4462890625,       64.5904541016
1488505902.5682950020,1488505902.5705840588,        0.6430664062,       -0.0087890625,       -0.1665039062,       22.2930908203,        7.4462890625,       64.5904541016
1488505902.5708680153,1488505902.5732460022,        0.6357421875,        0.0087890625,       -0.1665039062,       21.4233398438,        7.1105957031,       63.8275146484
1488505902.5735371113,1488505902.5759520531,        0.6357421875,        0.0087890625,       -0.1665039062,       21.4233398438,        7.1105957031,       63.8275146484
1488505902.5762410164,1488505902.5787110329,        0.6357421875,        0.0087890625,       -0.1665039062,       18.4173583984,        6.0729980469,       63.4002685547
1488505902.5789999962,1488505902.5814270973,        0.5107421875,        0.0307617188,       -0.1679687500,       18.4173583984,        6.0729980469,       63.4002685547
1488505902.5817270279,1488505902.5840239525,        0.6020507812,        0.0307617188,       -0.1679687500,       13.9465332031,        5.0048828125,       64.0106201172
1488505902.5843100548,1488505902.5866029263,        0.6020507812,        0.0307617188,       -0.1679687500,       13.9465332031,        5.0048828125,       64.0106201172
1488505902.5868868828,1488505902.5892779827,        0.6020507812,        0.0307617188,       -0.1679687500,       10.0860595703,        3.9978027344,       64.5904541016
1488505902.5895640850,1488505902.5926580429,        0.5927734375,        0.0068359375,       -0.1806640625,       10.0860595703,        3.9978027344,       64.5904541016
1488505902.5929439068,1488505902.5952389240,        0.5927734375,        0.0068359375,       -0.1806640625,        5.6610107422,        2.5939941406,       64.7125244141
1488505902.5955200195,1488505902.5978119373,        0.5927734375,        0.0068359375,       -0.1806640625,        5.6610107422,        2.5939941406,       64.7125244141
1488505902.5980930328,1488505902.6003770828,        0.5927734375,        0.0068359375,       -0.1806640625,        1.4648437500,        1.4953613281,       64.6362304688
1488505902.6006579399,1488505902.6029601097,        0.6010742188,       -0.0166015625,       -0.1855468750,        1.4648437500,        1.4953613281,       64.6362304688
1488505902.6032381058,1488505902.6055259705,        0.6010742188,       -0.0166015625,       -0.1855468750,       -1.4495849609,        0.4577636719,       63.8580322266
1488505902.6058070660,1488505902.6080958843,        0.6010742188,       -0.0166015625,       -0.1855468750,       -1.4495849609,        0.4577636719,       63.8580322266
1488505902.6083779335,1488505902.6106700897,        0.6010742188,       -0.0166015625,       -0.1855468750,       -4.7454833984,       -0.5187988281,       61.8286132812
1488505902.6109480858,1488505902.6132750511,        0.5932617188,       -0.0068359375,       -0.1752929688,       -4.7454833984,       -0.5187988281,       61.8286132812
1488505902.6135540009,1488505902.6158471107,        0.5932617188,       -0.0068359375,       -0.1752929688,       -4.7454833984,       -2.2583007812,       60.1348876953
1488505902.6161251068,1488505902.6184210777,        0.5932617188,       -0.0068359375,       -0.1752929688,       -8.6975097656,       -2.2583007812,       60.1348876953
1488505902.6186990738,1488505902.6209900379,        0.5932617188,       -0.0068359375,       -0.1835937500,       -8.6975097656,       -2.2583007812,       58.1817626953
1488505902.6212689877,1488505902.6237061024,        0.5849609375,        0.0126953125,       -0.1835937500,      -12.6800537109,       -3.6926269531,       58.1817626953
1488505902.6239900589,1488505902.6262819767,        0.5849609375,        0.0126953125,       -0.1835937500,      -12.6800537109,       -3.6926269531,       56.1523437500
1488505902.6265659332,1488505902.6288540363,        0.5849609375,        0.0126953125,       -0.1835937500,      -16.8304443359,       -4.6234130859,       56.1523437500
1488505902.6291348934,1488505902.6314239502,        0.5849609375,        0.0126953125,       -0.1806640625,      -16.8304443359,       -4.6234130859,       52.2460937500
1488505902.6318120956,1488505902.6341040134,        0.5927734375,        0.0292968750,       -0.1806640625,      -20.4315185547,       -6.2103271484,       54.1992187500
1488505902.6343870163,1488505902.6366789341,        0.5927734375,        0.0292968750,       -0.1806640625,      -20.4315185547,       -6.2103271484,       54.1992187500
1488505902.6369619370,1488505902.6392478943,        0.5927734375,        0.0292968750,       -0.1806640625,      -23.9105224609,       -7.9040527344,       51.8493652344
1488505902.6395280361,1488505902.6419110298,        0.5927734375,        0.0444335938,       -0.1586914062,      -23.9105224609,       -7.9040527344,       51.8493652344
1488505902.6422119141,1488505902.6445200443,        0.5961914062,        0.0444335938,       -0.1586914062,      -27.2521972656,       -8.0566406250,       48.9654541016
1488505902.6448030472,1488505902.6470980644,        0.5961914062,        0.0444335938,       -0.1586914062,      -27.2521972656,       -8.0566406250,       48.9654541016
1488505902.6473789215,1488505902.6496748924,        0.5961914062,        0.0444335938,       -0.1586914062,      -29.4952392578,       -8.4075927734,       46.0205078125
1488505902.6499578953,1488505902.6524250507,        0.5869140625,        0.0483398438,       -0.1499023438,      -29.4952392578,       -8.4075927734,       46.0205078125
1488505902.6527149677,1488505902.6551370621,        0.5869140625,        0.0483398438,       -0.1499023438,      -29.8004150391,       -8.7127685547,       43.0603027344
1488505902.6554250717,1488505902.6578440666,        0.5869140625,        0.0483398438,       -0.1499023438,      -29.8004150391,       -8.7127685547,       43.0603027344
1488505902.6581339836,1488505902.6605510712,        0.5869140625,        0.0483398438,       -0.1499023438,      -28.1524658203,       -9.0484619141,       39.5355224609
1488505902.6608400345,1488505902.6633141041,        0.6162109375,        0.0639648438,       -0.1542968750,      -28.1524658203,       -9.0484619141,       39.5355224609
1488505902.6636021137,1488505902.6660189629,        0.6162109375,        0.0639648438,       -0.1542968750,      -26.4434814453,       -9.3841552734,       35.4919433594
1488505902.6663069725,1488505902.6687269211,        0.6162109375,        0.0639648438,       -0.1542968750,      -26.4434814453,       -9.3841552734,       35.4919433594
1488505902.6690139771,1488505902.6714339256,        0.6162109375,        0.0639648438,       -0.1542968750,      -26.8859863281,       -9.6740722656,       31.5093994141
1488505902.6717360020,1488505902.6741499901,        0.6088867188,        0.0947265625,       -0.1391601562,      -26.8859863281,       -9.6740722656,       31.5093994141
1488505902.6744399071,1488505902.6768529415,        0.6088867188,        0.0947265625,       -0.1391601562,      -27.3895263672,       -9.6435546875,       27.8472900391
1488505902.6771419048,1488505902.6795558929,        0.6088867188,        0.0947265625,       -0.1391601562,      -27.3895263672,       -9.6435546875,       27.8472900391
1488505902.6798450947,1488505902.6822779179,        0.6088867188,        0.0991210938,       -0.1494140625,      -27.0233154297,       -9.7198486328,       24.1699218750
1488505902.6825590134,1488505902.6848509312,        0.6142578125,        0.0991210938,       -0.1494140625,      -27.0233154297,       -9.7198486328,       24.1699218750
1488505902.6851339340,1488505902.6874349117,        0.6142578125,        0.0991210938,       -0.1494140625,      -25.8941650391,       -9.1400146484,       19.7448730469
1488505902.6877169609,1488505902.6900091171,        0.6142578125,        0.0991210938,       -0.1494140625,      -25.8941650391,       -9.1400146484,       19.7448730469
1488505902.6902890205,1488505902.6926369667,        0.6044921875,        0.0898437500,       -0.1459960938,      -23.8647460938,       -8.2244873047,       14.9841308594
1488505902.6929268837,1488505902.6953279972,        0.6044921875,        0.0898437500,       -0.1459960938,      -23.8647460938,       -8.2244873047,       14.9841308594
1488505902.6957290173,1488505902.6981270313,        0.6044921875,        0.0898437500,       -0.1459960938,      -20.4925537109,       -7.4462890625,        9.5977783203
1488505902.6984109879,1488505902.7008070946,        0.6044921875,        0.0898437500,       -0.1459960938,      -20.4925537109,       -7.4462890625,        9.5977783203
1488505902.7010929585,1488505902.7035059929,        0.5810546875,        0.0898437500,       -0.1430664062,      -16.8609619141,       -6.9885253906,        3.9367675781
1488505902.7037909031,1488505902.7061910629,        0.5810546875,        0.0898437500,       -0.1430664062,      -16.8609619141,       -6.9885253906,        3.9367675781
1488505902.7064769268,1488505902.7089469433,        0.5810546875,        0.0898437500,       -0.1430664062,      -13.2904052734,       -7.2174072266,       -0.9613037109
1488505902.7092349529,1488505902.7116398811,        0.5810546875,        0.0898437500,       -0.1430664062,      -13.2904052734,       -7.2174072266,       -0.9613037109
1488505902.7123789787,1488505902.7147810459,        0.5649414062,        0.1166992188,       -0.1748046875,       -9.2163085938,       -6.9274902344,       -6.7749023438
1488505902.7150609493,1488505902.7174630165,        0.5649414062,        0.1166992188,       -0.1748046875,       -9.2163085938,       -6.9274902344,       -6.7749023438
1488505902.7177441120,1488505902.7201409340,        0.5649414062,        0.1166992188,       -0.1748046875,       -5.0811767578,       -7.2021484375,      -12.6190185547
1488505902.7204248905,1488505902.7228219509,        0.5649414062,        0.1132812500,       -0.1679687500,       -5.0811767578,       -7.2021484375,      -12.6190185547
1488505902.7231049538,1488505902.7255530357,        0.5410156250,        0.1132812500,       -0.1679687500,       -0.4119873047,       -7.3242187500,      -18.6767578125
1488505902.7258388996,1488505902.7282540798,        0.5410156250,        0.1132812500,       -0.1679687500,       -0.4119873047,       -7.3242187500,      -18.6767578125
1488505902.7285399437,1488505902.7309579849,        0.5410156250,        0.1132812500,       -0.1679687500,        5.0201416016,       -7.9498291016,      -24.5971679688
1488505902.7312459946,1488505902.7336030006,        0.5512695312,        0.1259765625,       -0.1826171875,        5.0201416016,       -7.9498291016,      -24.5971679688
1488505902.7338819504,1488505902.7361760139,        0.5512695312,        0.1259765625,       -0.1826171875,        9.6130371094,       -8.9416503906,      -29.5867919922
1488505902.7364530563,1488505902.7387490273,        0.5512695312,        0.1259765625,       -0.1826171875,        9.6130371094,       -8.9416503906,      -29.5867919922
1488505902.7390260696,1488505902.7413198948,        0.5512695312,        0.1259765625,       -0.1826171875,       12.2833251953,      -12.2528076172,      -30.0598144531
1488505902.7416040897,1488505902.7439000607,        0.7216796875,        0.0439453125,       -0.3090820312,       12.2833251953,      -12.2528076172,      -30.0598144531
1488505902.7441849709,1488505902.7464790344,        0.7216796875,        0.0439453125,       -0.3090820312,       12.2833251953,      -16.7999267578,      -29.8919677734
1488505902.7467620373,1488505902.7490549088,        0.7216796875,        0.0439453125,       -0.3090820312,       18.4783935547,      -16.7999267578,      -29.8919677734
1488505902.7493379116,1488505902.7516338825,        0.7216796875,        0.0439453125,       -0.3090820312,       18.4783935547,      -16.7999267578,      -32.8063964844
1488505902.7519729137,1488505902.7542688847,        0.4707031250,       -0.1406250000,       -0.2592773438,       22.8118896484,      -18.8140869141,      -32.8063964844
1488505902.7545518875,1488505902.7568440437,        0.4707031250,       -0.1406250000,       -0.2592773438,       22.8118896484,      -18.8140869141,      -33.9508056641
1488505902.7571299076,1488505902.7594220638,        0.4707031250,       -0.1406250000,       -0.2592773438,       23.1018066406,      -16.8609619141,      -33.9508056641
1488505902.7598090172,1488505902.7622370720,        0.4707031250,       -0.1406250000,       -0.2592773438,       23.1018066406,      -16.8609619141,      -33.9508056641
1488505902.7625229359,1488505902.7648129463,        0.5410156250,       -0.5644531250,       -0.1459960938,       28.2745361328,      -18.6309814453,      -33.6761474609
1488505902.7650969028,1488505902.7673940659,        0.5410156250,       -0.5644531250,       -0.1459960938,       28.2745361328,      -18.6309814453,      -33.6761474609
1488505902.7676770687,1488505902.7699739933,        0.5410156250,       -0.5644531250,       -0.1459960938,       38.6352539062,      -21.8505859375,      -35.2935791016
1488505902.7702589035,1488505902.7727138996,        0.5410156250,       -0.5644531250,       -0.1054687500,       38.6352539062,      -21.8505859375,      -35.2935791016
1488505902.7730069160,1488505902.7754240036,        0.5839843750,       -0.7573242188,       -0.1054687500,       51.9866943359,      -23.6206054688,      -34.8815917969
1488505902.7757189274,1488505902.7781410217,        0.5839843750,       -0.7573242188,       -0.1054687500,       51.9866943359,      -23.6206054688,      -34.8815917969
1488505902.7784340382,1488505902.7808470726,        0.5839843750,       -0.7573242188,       -0.1054687500,       64.0869140625,      -23.7121582031,      -35.8123779297
1488505902.7811410427,1488505902.7834749222,        0.5839843750,       -0.4624023438,       -0.0512695312,       64.0869140625,      -23.7121582031,      -35.8123779297
1488505902.7837600708,1488505902.7860510349,        0.6044921875,       -0.4624023438,       -0.0512695312,       67.7337646484,      -23.3306884766,      -37.9180908203
1488505902.7863359451,1488505902.7886300087,        0.6044921875,       -0.4624023438,       -0.0512695312,       67.7337646484,      -23.3306884766,      -37.9180908203
1488505902.7889139652,1488505902.7912080288,        0.6044921875,       -0.4624023438,       -0.0512695312,       62.7746582031,      -20.9808349609,      -39.3371582031
1488505902.7914929390,1488505902.7939438820,        0.6601562500,       -0.1328125000,       -0.0156250000,       62.7746582031,      -20.9808349609,      -39.3371582031
1488505902.7942368984,1488505902.7966530323,        0.6601562500,       -0.1328125000,       -0.0156250000,       52.6580810547,      -17.4102783203,      -39.7491455078
1488505902.7969460487,1488505902.7993650436,        0.6601562500,       -0.1328125000,       -0.0156250000,       52.6580810547,      -17.4102783203,      -39.7491455078
1488505902.7996580601,1488505902.8021180630,        0.6601562500,       -0.1328125000,       -0.0156250000,       41.6107177734,      -16.1285400391,      -40.5120849609
1488505902.8024098873,1488505902.8048310280,        0.7192382812,       -0.0375976562,       -0.0307617188,       41.6107177734,      -16.1285400391,      -40.5120849609
1488505902.8051249981,1488505902.8075389862,        0.7192382812,       -0.0375976562,       -0.0307617188,       31.8756103516,      -15.7623291016,      -44.0368652344
1488505902.8078310490,1488505902.8102459908,        0.7192382812,       -0.0375976562,       -0.0307617188,       31.8756103516,      -15.7623291016,      -44.0368652344
1488505902.8105390072,1488505902.8129670620,        0.7192382812,       -0.0375976562,       -0.0307617188,       20.4467773438,      -15.8843994141,      -46.1273193359
1488505902.8132600784,1488505902.8156759739,        0.7016601562,       -0.0727539062,       -0.0786132812,       20.4467773438,      -15.8843994141,      -46.1273193359
1488505902.8159689903,1488505902.8183898926,        0.7016601562,       -0.0727539062,       -0.0786132812,        5.8441162109,      -16.2200927734,      -46.7224121094
1488505902.8186810017,1488505902.8211030960,        0.7016601562,       -0.0727539062,       -0.0786132812,        5.8441162109,      -16.2200927734,      -46.7224121094
1488505902.8213911057,1488505902.8238260746,        0.7016601562,       -0.0844726562,       -0.0537109375,       -8.8348388672,      -16.7388916016,      -47.4395751953
1488505902.8241159916,1488505902.8265309334,        0.7109375000,       -0.0844726562,       -0.0537109375,       -8.8348388672,      -16.7388916016,      -47.4395751953
1488505902.8269279003,1488505902.8295409679,        0.7109375000,       -0.0844726562,       -0.0537109375,      -19.4396972656,      -16.9219970703,      -47.7600097656
1488505902.8298339844,1488505902.8325319290,        0.7109375000,       -0.0844726562,       -0.0537109375,      -19.4396972656,      -16.9219970703,      -47.7600097656
1488505902.8328189850,1488505902.8351180553,        0.6962890625,       -0.1352539062,       -0.0444335938,      -23.8342285156,      -18.7683105469,      -49.2095947266
1488505902.8354020119,1488505902.8376929760,        0.6962890625,       -0.1352539062,       -0.0444335938,      -23.8342285156,      -18.7683105469,      -49.2095947266
1488505902.8379769325,1488505902.8402729034,        0.6962890625,       -0.1352539062,       -0.0444335938,      -23.1323242188,      -20.5993652344,      -50.4608154297
1488505902.8405580521,1488505902.8429489136,        0.6962890625,       -0.1352539062,       -0.0444335938,      -23.1323242188,      -20.5993652344,      -50.4608154297
1488505902.8432390690,1488505902.8456449509,        0.6166992188,       -0.1503906250,       -0.1220703125,      -19.3176269531,      -22.2930908203,      -51.4068603516
1488505902.8459379673,1488505902.8483428955,        0.6166992188,       -0.1503906250,       -0.1220703125,      -19.3176269531,      -22.2930908203,      -51.4068603516
1488505902.8486349583,1488505902.8510410786,        0.6166992188,       -0.1503906250,       -0.1220703125,      -13.6260986328,      -24.6276855469,      -54.3518066406
1488505902.8513319492,1488505902.8537271023,        0.6166992188,       -0.0253906250,       -0.2397460938,      -13.6260986328,      -24.6276855469,      -54.3518066406
1488505902.8540179729,1488505902.8564019203,        0.6171875000,       -0.1235351562,       -0.2397460938,       -7.6751708984,      -25.2075195312,      -56.7779541016
1488505902.8566908836,1488505902.8590750694,        0.6171875000,       -0.1235351562,       -0.2397460938,       -7.6751708984,      -25.2075195312,      -56.7779541016
1488505902.8593640327,1488505902.8617520332,        0.6171875000,       -0.1235351562,       -0.2397460938,       -2.0141601562,      -24.3835449219,      -56.9763183594
1488505902.8620328903,1488505902.8643219471,        0.5898437500,       -0.0952148438,       -0.2866210938,       -2.0141601562,      -24.3835449219,      -56.9763183594
1488505902.8646030426,1488505902.8668959141,        0.5898437500,       -0.0952148438,       -0.2866210938,        4.0893554688,      -23.4985351562,      -56.9763183594
1488505902.8671779633,1488505902.8694689274,        0.5898437500,       -0.0952148438,       -0.2866210938,        4.0893554688,      -23.4985351562,      -56.9763183594
1488505902.8697500229,1488505902.8721539974,        0.5898437500,       -0.0952148438,       -0.2866210938,        8.7890625000,      -21.7590332031,      -56.6253662109
1488505902.8724350929,1488505902.8747289181,        0.5629882812,       -0.0424804688,       -0.3525390625,        8.7890625000,      -21.7590332031,      -56.6253662109
1488505902.8750109673,1488505902.8773078918,        0.5629882812,       -0.0424804688,       -0.3525390625,       12.6953125000,      -20.9960937500,      -54.4128417969
1488505902.8775908947,1488505902.8798820972,        0.5629882812,       -0.0424804688,       -0.3525390625,       12.2833251953,      -20.9960937500,      -54.4128417969
1488505902.8801651001,1488505902.8826110363,        0.5629882812,       -0.0424804688,       -0.3525390625,       12.2833251953,      -21.2402343750,      -53.4210205078
1488505902.8828990459,1488505902.8851869106,        0.5463867188,        0.1074218750,       -0.3891601562,       12.9852294922,      -21.2402343750,      -53.4210205078
1488505902.8854720592,1488505902.8877611160,        0.5463867188,        0.1074218750,       -0.3891601562,       12.9852294922,      -21.2402343750,      -52.1545410156
1488505902.8880450726,1488505902.8903388977,        0.5463867188,        0.1074218750,       -0.3891601562,       10.7421875000,      -20.1568603516,      -52.1545410156
1488505902.8907380104,1488505902.8931920528,        0.5463867188,        0.1074218750,       -0.3891601562,       10.7421875000,      -12.3443603516,      -49.2706298828
1488505902.8934779167,1488505902.8957710266,        0.6914062500,        0.2119140625,       -0.2583007812,        1.8920898438,      -15.5487060547,      -49.2706298828
1488505902.8960509300,1488505902.8983490467,        0.6914062500,        0.2119140625,       -0.2583007812,        1.8920898438,      -15.5487060547,      -43.8232421875
1488505902.8986279964,1488505902.9009170532,        0.6914062500,        0.2119140625,       -0.2583007812,       -4.5928955078,      -10.4675292969,      -43.8232421875
1488505902.9011979103,1488505902.9034969807,        0.6914062500,        0.2119140625,       -0.2583007812,       -4.5928955078,      -10.4675292969,      -43.8232421875
1488505902.9037799835,1488505902.9060690403,        0.6523437500,        0.0727539062,       -0.1518554688,       -8.0108642578,      -10.0250244141,      -41.2445068359
