# time_stamp before, Acceleration x, Acceleration y, Acceleration z, Gyro x, Gyro y, Gyro z
0.0000000000,-0.7294921875,0.0966796875,0.0322265625,1.4801025391,-0.1983642578,0.7476806641
0.0026588440,-0.7294921875,0.0966796875,0.0322265625,1.3580322266,-0.3051757812,0.8850097656
0.0052208900,-0.7265625000,0.1088867188,0.0395507812,1.3580322266,-0.3051757812,0.8850097656
0.0079109669,-0.7265625000,0.1088867188,0.0395507812,1.2207031250,-0.3356933594,0.7629394531
0.0106058121,-0.7265625000,0.1088867188,0.0395507812,1.2207031250,-0.3356933594,0.7629394531
0.0132968426,-0.7265625000,0.1088867188,0.0395507812,1.4648437500,-0.1373291016,1.2207031250
0.0159988403,-0.7270507812,0.0996093750,0.0395507812,1.4648437500,-0.1373291016,1.2207031250
0.0187809467,-0.7270507812,0.0996093750,0.0395507812,1.7700195312,-0.0610351562,1.4495849609
0.0214498043,-0.7270507812,0.0996093750,0.0395507812,1.7700195312,-0.0610351562,1.4495849609
0.0243690014,-0.7236328125,0.0986328125,0.0351562500,1.6174316406,-0.1831054688,1.2969970703
0.0273678303,-0.7236328125,0.0986328125,0.0351562500,1.6174316406,-0.1831054688,1.2969970703
0.0299308300,-0.7236328125,0.0986328125,0.0351562500,1.2359619141,-0.2288818359,1.2969970703
0.0324878693,-0.7236328125,0.0986328125,0.0351562500,1.2359619141,-0.2288818359,1.2969970703
0.0350439548,-0.7197265625,0.1088867188,0.0415039062,1.2969970703,-0.1220703125,1.2969970703
0.0377678871,-0.7197265625,0.1088867188,0.0415039062,1.2969970703,-0.1220703125,1.2969970703
0.0404198170,-0.7197265625,0.1088867188,0.0415039062,1.5869140625,0.0457763672,1.2969970703
0.0436768532,-0.7197265625,0.1088867188,0.0317382812,1.5869140625,0.0457763672,1.2969970703
0.0463168621,-0.7241210938,0.1035156250,0.0317382812,1.9378662109,0.3814697266,1.2207031250
0.0488870144,-0.7241210938,0.1035156250,0.0317382812,1.9378662109,0.3814697266,1.2207031250
0.0514459610,-0.7241210938,0.1035156250,0.0317382812,2.3498535156,0.5950927734,1.4495849609
0.0541658401,-0.7241210938,0.0937500000,0.0424804688,2.3498535156,0.5950927734,1.4495849609
0.0567359924,-0.7294921875,0.0937500000,0.0424804688,2.5634765625,0.2746582031,1.6937255859
0.0592978001,-0.7294921875,0.0937500000,0.0424804688,2.5634765625,0.2746582031,1.6937255859
0.0618538857,-0.7294921875,0.0937500000,0.0424804688,2.3803710938,0.1678466797,1.6174316406
0.0644209385,-0.7294921875,0.0922851562,0.0361328125,2.3803710938,0.1678466797,1.6174316406
0.0670340061,-0.7382812500,0.0922851562,0.0361328125,2.3803710938,0.4272460938,1.6784667969
0.0695970058,-0.7382812500,0.0922851562,0.0361328125,2.1514892578,0.4272460938,1.6784667969
0.0721619129,-0.7382812500,0.0922851562,0.0361328125,2.1514892578,0.4272460938,1.6479492188
0.0747258663,-0.7348632812,0.0971679688,0.0332031250,1.4801025391,0.7629394531,1.6479492188
0.0772988796,-0.7348632812,0.0971679688,0.0332031250,1.4801025391,0.7629394531,1.5563964844
0.0798628330,-0.7348632812,0.0971679688,0.0332031250,1.3885498047,0.5798339844,1.5563964844
0.0824208260,-0.7348632812,0.0971679688,0.0332031250,1.3885498047,0.5798339844,1.5563964844
0.0849878788,-0.7382812500,0.1083984375,0.0400390625,1.0070800781,0.7171630859,1.4495849609
0.0877180099,-0.7382812500,0.1083984375,0.0400390625,1.0070800781,0.7171630859,1.4495849609
0.0902898312,-0.7382812500,0.1083984375,0.0400390625,0.7171630859,0.7019042969,1.2664794922
0.0928568840,-0.7382812500,0.1083984375,0.0400390625,0.7171630859,0.7019042969,1.2664794922
0.0954298973,-0.7333984375,0.1025390625,0.0366210938,0.2593994141,0.7934570312,0.9307861328
0.0981748104,-0.7333984375,0.1025390625,0.0366210938,0.2593994141,0.7934570312,0.9307861328
0.1008388996,-0.7333984375,0.1025390625,0.0366210938,0.0457763672,0.6103515625,0.7476806641
0.1036159992,-0.7333984375,0.1025390625,0.0366210938,0.0457763672,0.6103515625,0.7476806641
0.1063239574,-0.7290039062,0.1171875000,0.0156250000,0.1068115234,0.1678466797,0.3814697266
0.1088860035,-0.7290039062,0.1171875000,0.0156250000,0.1068115234,0.1678466797,0.3814697266
0.1114559174,-0.7290039062,0.1171875000,0.0156250000,0.1373291016,0.0762939453,-0.1525878906
0.1140189171,-0.7290039062,0.1171875000,0.0156250000,0.1373291016,0.0762939453,-0.1525878906
0.1167628765,-0.7314453125,0.1108398438,0.0214843750,0.3662109375,0.0915527344,-0.1373291016
0.1193258762,-0.7314453125,0.1108398438,0.0214843750,0.3662109375,0.0915527344,-0.1373291016
0.1218879223,-0.7314453125,0.1108398438,0.0214843750,0.3356933594,0.3967285156,-0.0152587891
0.1244518757,-0.7314453125,0.1108398438,0.0302734375,0.3356933594,0.3967285156,-0.0152587891
0.1270649433,-0.7285156250,0.0991210938,0.0302734375,0.1678466797,0.5187988281,-0.1678466797
0.1296269894,-0.7285156250,0.0991210938,0.0302734375,0.1678466797,0.5187988281,-0.1678466797
0.1321949959,-0.7285156250,0.0991210938,0.0302734375,0.1678466797,0.3204345703,-0.2899169922
0.1347579956,-0.7285156250,0.0991210938,0.0322265625,0.1220703125,0.3204345703,-0.2899169922
0.1373758316,-0.7319335938,0.1000976562,0.0322265625,0.1220703125,0.3204345703,-0.3204345703
0.1399419308,-0.7319335938,0.1000976562,0.0322265625,0.0762939453,0.2899169922,-0.3204345703
0.1425018311,-0.7319335938,0.1000976562,0.0322265625,0.0762939453,0.2899169922,-0.3204345703
0.1450707912,-0.7319335938,0.1049804688,0.0200195312,0.2136230469,0.1983642578,-0.5798339844
0.1476638317,-0.7260742188,0.1049804688,0.0200195312,0.2136230469,0.1983642578,-0.5798339844
0.1502230167,-0.7260742188,0.1049804688,0.0200195312,0.0152587891,0.3356933594,-0.6561279297
0.1529588699,-0.7260742188,0.1049804688,0.0200195312,0.0152587891,0.3356933594,-0.6561279297
0.1555228233,-0.7260742188,0.1015625000,0.0244140625,0.2288818359,0.4425048828,-0.2899169922
0.1586558819,-0.7358398438,0.1015625000,0.0244140625,0.2288818359,0.4425048828,-0.2899169922
0.1613597870,-0.7358398438,0.1015625000,0.0244140625,0.1525878906,0.4882812500,-0.2593994141
0.1640558243,-0.7358398438,0.1015625000,0.0244140625,0.1525878906,0.4882812500,-0.2593994141
0.1667659283,-0.7309570312,0.1010742188,0.0322265625,0.0152587891,0.6713867188,-0.2746582031
0.1694669724,-0.7309570312,0.1010742188,0.0322265625,0.0152587891,0.6713867188,-0.2746582031
0.1721639633,-0.7309570312,0.1010742188,0.0322265625,0.7476806641,0.1678466797,-0.2441406250
0.1748700142,-0.7309570312,0.1010742188,0.0390625000,0.7476806641,0.1678466797,-0.2441406250
0.1774950027,-0.7387695312,0.0917968750,0.0390625000,0.7629394531,0.1373291016,-0.1068115234
0.1801807880,-0.7387695312,0.0917968750,0.0390625000,0.7629394531,0.1373291016,-0.1068115234
0.1827528477,-0.7387695312,0.0917968750,0.0390625000,0.2899169922,0.7171630859,-0.1678466797
0.1853179932,-0.7387695312,0.0917968750,0.0258789062,0.2899169922,0.7171630859,-0.1678466797
0.1878988743,-0.7431640625,0.0913085938,0.0258789062,-0.2136230469,0.7019042969,0.1068115234
0.1904687881,-0.7431640625,0.0913085938,0.0258789062,-0.2136230469,0.7019042969,0.1068115234
0.1930367947,-0.7431640625,0.0913085938,0.0258789062,-0.4882812500,0.8697509766,0.2441406250
0.1956079006,-0.7431640625,0.1040039062,0.0263671875,-0.4882812500,0.8697509766,0.2441406250
0.1981828213,-0.7275390625,0.1040039062,0.0263671875,-0.9460449219,0.8239746094,0.3051757812
0.2007508278,-0.7275390625,0.1040039062,0.0263671875,-0.9460449219,0.8239746094,0.3051757812
0.2034168243,-0.7275390625,0.1040039062,0.0263671875,-1.0528564453,1.1291503906,-0.0762939453
0.2060909271,-0.7275390625,0.1103515625,0.0468750000,-1.0528564453,1.1291503906,-0.0762939453
0.2086639404,-0.7275390625,0.1103515625,0.0468750000,-1.0528564453,1.1291503906,-0.0152587891
0.2112288475,-0.7275390625,0.1103515625,0.0468750000,-0.7324218750,1.1291503906,-0.0152587891
0.2137959003,-0.7275390625,0.1103515625,0.0468750000,-0.7324218750,0.4425048828,0.0915527344
0.2164058685,-0.7304687500,0.1069335938,0.0278320312,-0.2899169922,0.4425048828,0.0915527344
0.2190978527,-0.7304687500,0.1069335938,0.0278320312,-0.2899169922,0.4425048828,0.1525878906
0.2217938900,-0.7304687500,0.1069335938,0.0278320312,-0.1678466797,0.6713867188,0.1525878906
0.2244958878,-0.7304687500,0.1069335938,0.0278320312,-0.1678466797,0.6713867188,0.0152587891
0.2271738052,-0.7338867188,0.1010742188,0.0390625000,0.0915527344,0.6713867188,0.0152587891
0.2297468185,-0.7338867188,0.1010742188,0.0390625000,0.0915527344,0.6713867188,-0.2288818359
0.2323129177,-0.7338867188,0.1010742188,0.0390625000,0.2593994141,0.6561279297,-0.2288818359
0.2348768711,-0.7338867188,0.1010742188,0.0390625000,0.2593994141,0.6561279297,-0.2288818359
0.2375359535,-0.7304687500,0.0952148438,0.0400390625,0.3509521484,0.5798339844,-0.4119873047
0.2402338982,-0.7304687500,0.0952148438,0.0400390625,0.3509521484,0.5798339844,-0.4119873047
0.2430408001,-0.7304687500,0.0952148438,0.0400390625,-0.0305175781,0.9765625000,-0.3814697266
0.2457439899,-0.7304687500,0.0952148438,0.0336914062,-0.0305175781,0.9765625000,-0.3814697266
0.2484469414,-0.7363281250,0.0961914062,0.0336914062,0.0610351562,1.3427734375,-0.3509521484
0.2510159016,-0.7363281250,0.0961914062,0.0336914062,0.0610351562,1.3427734375,-0.3509521484
0.2535808086,-0.7363281250,0.0961914062,0.0336914062,0.3204345703,0.9307861328,0.1831054688
0.2563560009,-0.7363281250,0.0903320312,0.0205078125,0.3204345703,0.9307861328,0.1831054688
0.2589178085,-0.7407226562,0.0903320312,0.0205078125,0.3509521484,0.7324218750,-0.1525878906
0.2620229721,-0.7407226562,0.0903320312,0.0205078125,0.3509521484,0.7324218750,-0.1525878906
0.2645888329,-0.7407226562,0.0903320312,0.0205078125,0.4119873047,0.7781982422,0.1525878906
0.2672259808,-0.7250976562,0.0942382812,0.0170898438,0.4119873047,0.7781982422,0.1525878906
0.2697908878,-0.7250976562,0.0942382812,0.0170898438,-0.5340576172,0.7781982422,0.4577636719
0.2723469734,-0.7250976562,0.0942382812,0.0170898438,-0.5340576172,0.7781982422,0.4577636719
0.2749059200,-0.7250976562,0.0942382812,0.0170898438,-0.6713867188,0.9307861328,0.7171630859
0.2774708271,-0.7309570312,0.1015625000,0.0175781250,-0.6713867188,0.9307861328,0.7171630859
0.2800359726,-0.7309570312,0.1015625000,0.0175781250,-0.7171630859,0.6408691406,0.9155273438
0.2825949192,-0.7309570312,0.1015625000,0.0175781250,-0.7171630859,0.6408691406,0.9155273438
0.2851569653,-0.7309570312,0.1015625000,0.0175781250,-0.6408691406,0.7324218750,0.9765625000
0.2877738476,-0.7329101562,0.1054687500,0.0205078125,-0.6408691406,0.7324218750,0.9765625000
0.2903368473,-0.7329101562,0.1054687500,0.0205078125,0.1678466797,0.0915527344,0.9613037109
0.2929019928,-0.7329101562,0.1054687500,0.0205078125,0.1678466797,0.0915527344,0.9613037109
0.2954659462,-0.7329101562,0.1054687500,0.0205078125,0.1678466797,-0.1831054688,0.9002685547
0.2980368137,-0.7343750000,0.1059570312,0.0283203125,0.5187988281,-0.1831054688,0.9002685547
0.3006079197,-0.7343750000,0.1059570312,0.0283203125,0.5187988281,-0.1831054688,1.0223388672
0.3031978607,-0.7343750000,0.1059570312,0.0283203125,0.4119873047,-0.1373291016,1.0223388672
0.3058679104,-0.7343750000,0.1059570312,0.0283203125,0.4119873047,-0.1373291016,0.6408691406
0.3084988594,-0.7309570312,0.1005859375,0.0229492188,-0.0762939453,-0.0610351562,0.6408691406
0.3110690117,-0.7309570312,0.1005859375,0.0229492188,-0.0762939453,-0.0610351562,0.6408691406
0.3136408329,-0.7309570312,0.1005859375,0.0229492188,0.2441406250,0.2441406250,1.0070800781
0.3163528442,-0.7309570312,0.1005859375,0.0253906250,0.2441406250,0.2441406250,1.0070800781
0.3190469742,-0.7338867188,0.1020507812,0.0253906250,0.1678466797,0.3509521484,1.0070800781
0.3217499256,-0.7338867188,0.1020507812,0.0253906250,0.1678466797,0.3509521484,1.0070800781
0.3244500160,-0.7338867188,0.1020507812,0.0253906250,0.0305175781,0.4730224609,0.7324218750
0.3271088600,-0.7338867188,0.1040039062,0.0278320312,0.0305175781,0.4730224609,0.7324218750
0.3296718597,-0.7270507812,0.1040039062,0.0278320312,-0.0610351562,0.5035400391,0.4272460938
0.3322370052,-0.7270507812,0.1040039062,0.0278320312,-0.0610351562,0.5035400391,0.4272460938
0.3348038197,-0.7270507812,0.1040039062,0.0278320312,0.7629394531,0.2593994141,0.8544921875
0.3374869823,-0.7246093750,0.1142578125,0.0214843750,0.7629394531,0.2593994141,0.8544921875
0.3401849270,-0.7246093750,0.1142578125,0.0214843750,1.6174316406,0.1220703125,1.1901855469
0.3428878784,-0.7246093750,0.1142578125,0.0214843750,1.6174316406,0.1220703125,1.1901855469
0.3455889225,-0.7246093750,0.1142578125,0.0214843750,1.1749267578,0.1220703125,0.8087158203
0.3482978344,-0.7255859375,0.1059570312,0.0253906250,1.1749267578,0.1220703125,0.8087158203
0.3511099815,-0.7255859375,0.1059570312,0.0253906250,0.9765625000,0.3051757812,0.8239746094
0.3536779881,-0.7255859375,0.1059570312,0.0253906250,0.9765625000,0.3051757812,0.8239746094
0.3564159870,-0.7255859375,0.1059570312,0.0253906250,0.4577636719,0.3814697266,0.9460449219
0.3590748310,-0.7265625000,0.1005859375,0.0249023438,0.4577636719,0.3814697266,0.9460449219
0.3622419834,-0.7265625000,0.1005859375,0.0249023438,0.6103515625,0.4119873047,0.8697509766
0.3648118973,-0.7265625000,0.1005859375,0.0249023438,0.6103515625,0.4119873047,0.8697509766
0.3674488068,-0.7265625000,0.1064453125,0.0283203125,0.3814697266,0.3967285156,0.8544921875
0.3701169491,-0.7290039062,0.1064453125,0.0283203125,0.3814697266,0.3967285156,0.8544921875
0.3726809025,-0.7290039062,0.1064453125,0.0283203125,-0.2746582031,0.6103515625,0.6866455078
0.3752419949,-0.7290039062,0.1064453125,0.0283203125,-0.2746582031,0.6103515625,0.6866455078
0.3778247833,-0.7309570312,0.1103515625,0.0239257812,0.3356933594,0.1678466797,0.9307861328
0.3803868294,-0.7309570312,0.1103515625,0.0239257812,0.3356933594,0.1678466797,0.9307861328
0.3829569817,-0.7309570312,0.1103515625,0.0239257812,0.6561279297,-0.2899169922,0.8087158203
0.3855168819,-0.7309570312,0.1103515625,0.0239257812,0.6561279297,-0.2899169922,0.8087158203
0.3881449699,-0.7324218750,0.1010742188,0.0185546875,0.6561279297,-0.1678466797,0.9155273438
0.3907108307,-0.7324218750,0.1010742188,0.0185546875,0.9460449219,-0.1678466797,0.9155273438
0.3932747841,-0.7324218750,0.1010742188,0.0185546875,0.9460449219,-0.1678466797,1.1138916016
0.3958339691,-0.7324218750,0.1010742188,0.0185546875,1.3427734375,-0.3204345703,1.1138916016
0.3984019756,-0.7338867188,0.0947265625,0.0292968750,1.3427734375,-0.3204345703,1.0223388672
0.4009618759,-0.7338867188,0.0947265625,0.0292968750,1.2207031250,-0.1831054688,1.0223388672
0.4035317898,-0.7338867188,0.0947265625,0.0292968750,1.2207031250,-0.1831054688,1.0223388672
0.4061110020,-0.7338867188,0.0947265625,0.0292968750,1.0986328125,-0.2288818359,1.3122558594
0.4086778164,-0.7387695312,0.0947265625,0.0253906250,1.0986328125,-0.2288818359,1.3122558594
0.4112479687,-0.7387695312,0.0947265625,0.0253906250,0.7629394531,-0.0457763672,1.6174316406
0.4138159752,-0.7387695312,0.0947265625,0.0253906250,0.7629394531,-0.0457763672,1.6174316406
0.4165358543,-0.7387695312,0.0947265625,0.0253906250,0.5187988281,-0.0457763672,1.7700195312
0.4191038609,-0.7392578125,0.0952148438,0.0312500000,0.5187988281,-0.0457763672,1.7700195312
0.4216639996,-0.7392578125,0.0952148438,0.0312500000,0.3204345703,-0.1068115234,1.7852783203
0.4242389202,-0.7392578125,0.0952148438,0.0312500000,0.3204345703,-0.1068115234,1.7852783203
0.4268889427,-0.7392578125,0.0952148438,0.0312500000,-0.1678466797,0.5187988281,1.9073486328
0.4295859337,-0.7324218750,0.1088867188,0.0239257812,-0.1678466797,0.5187988281,1.9073486328
0.4322898388,-0.7324218750,0.1088867188,0.0239257812,-0.1525878906,0.4425048828,2.0904541016
0.4351079464,-0.7324218750,0.1088867188,0.0239257812,-0.1525878906,0.4425048828,2.0904541016
0.4378528595,-0.7324218750,0.1088867188,0.0219726562,0.0610351562,0.2441406250,1.5258789062
0.4405529499,-0.7294921875,0.1210937500,0.0219726562,0.0610351562,0.2441406250,1.5258789062
0.4432528019,-0.7294921875,0.1210937500,0.0219726562,0.9307861328,-0.5035400391,1.3885498047
0.4459679127,-0.7294921875,0.1210937500,0.0219726562,0.9307861328,-0.5035400391,1.3885498047
0.4486708641,-0.7255859375,0.1098632812,0.0312500000,0.7019042969,-0.9460449219,1.0681152344
0.4513688087,-0.7255859375,0.1098632812,0.0312500000,0.7019042969,-0.9460449219,1.0681152344
0.4540657997,-0.7255859375,0.1098632812,0.0312500000,0.6713867188,-0.7476806641,0.8392333984
0.4570269585,-0.7255859375,0.1098632812,0.0312500000,0.6713867188,-0.7476806641,0.8392333984
0.4596889019,-0.7250976562,0.1127929688,0.0161132812,0.2746582031,-0.6561279297,0.6256103516
0.4629759789,-0.7250976562,0.1127929688,0.0161132812,0.2746582031,-0.6561279297,0.6256103516
0.4655427933,-0.7250976562,0.1127929688,0.0161132812,0.1373291016,-0.3662109375,0.6256103516
0.4681789875,-0.7250976562,0.1093750000,0.0214843750,0.1373291016,-0.3662109375,0.6256103516
0.4707469940,-0.7250976562,0.1093750000,0.0214843750,0.4882812500,-0.2899169922,0.5645751953
0.4733078480,-0.7250976562,0.1093750000,0.0214843750,0.4882812500,-0.2899169922,0.5645751953
0.4758679867,-0.7250976562,0.1093750000,0.0214843750,0.7629394531,-0.5798339844,0.6103515625
0.4784398079,-0.7250976562,0.1103515625,0.0336914062,0.7629394531,-0.5798339844,0.6103515625
0.4810028076,-0.7211914062,0.1103515625,0.0336914062,0.5950927734,-0.3967285156,0.6866455078
0.4835679531,-0.7211914062,0.1103515625,0.0336914062,0.5950927734,-0.3967285156,0.6866455078
0.4861869812,-0.7211914062,0.1103515625,0.0336914062,0.5950927734,-0.6408691406,0.7171630859
0.4887518883,-0.7211914062,0.1030273438,0.0273437500,0.7171630859,-0.6408691406,0.7171630859
0.4913179874,-0.7221679688,0.1030273438,0.0273437500,0.7171630859,-0.6408691406,0.2593994141
0.4938819408,-0.7221679688,0.1030273438,0.0273437500,0.4577636719,-0.5187988281,0.2593994141
0.4964699745,-0.7221679688,0.1030273438,0.0273437500,0.4577636719,-0.5187988281,0.5950927734
0.4991428852,-0.7309570312,0.1166992188,0.0249023438,0.3814697266,-0.2288818359,0.5950927734
0.5017108917,-0.7309570312,0.1166992188,0.0249023438,0.3814697266,-0.2288818359,0.5950927734
0.5042729378,-0.7309570312,0.1166992188,0.0249023438,0.5950927734,-0.6256103516,0.8239746094
0.5069658756,-0.7309570312,0.1166992188,0.0249023438,0.5950927734,-0.6256103516,0.8239746094
0.5095348358,-0.7280273438,0.1098632812,0.0170898438,0.2441406250,-0.6103515625,0.6713867188
0.5120999813,-0.7280273438,0.1098632812,0.0170898438,0.2441406250,-0.6103515625,0.6713867188
0.5146708488,-0.7280273438,0.1098632812,0.0170898438,0.3509521484,-0.3204345703,0.9460449219
0.5173239708,-0.7280273438,0.1098632812,0.0170898438,0.3509521484,-0.3204345703,0.9460449219
0.5198848248,-0.7402343750,0.1123046875,0.0263671875,0.5493164062,-0.8239746094,0.9613037109
0.5224537849,-0.7402343750,0.1123046875,0.0263671875,0.5493164062,-0.8239746094,0.9613037109
0.5250139236,-0.7402343750,0.1123046875,0.0263671875,0.8087158203,-0.9307861328,1.0375976562
0.5276429653,-0.7402343750,0.1123046875,0.0263671875,0.8087158203,-0.9307861328,1.0375976562
0.5302069187,-0.7299804688,0.1079101562,0.0244140625,1.1444091797,-0.7019042969,1.3122558594
0.5327658653,-0.7299804688,0.1079101562,0.0244140625,1.1444091797,-0.7019042969,1.3122558594
0.5353319645,-0.7299804688,0.1079101562,0.0244140625,1.5869140625,-0.8392333984,1.2664794922
0.5379509926,-0.7299804688,0.1079101562,0.0244140625,1.5869140625,-0.8392333984,1.2664794922
0.5405128002,-0.7343750000,0.1054687500,0.0219726562,1.5869140625,-1.1749267578,1.2359619141
0.5430769920,-0.7343750000,0.1054687500,0.0219726562,1.4495849609,-1.1749267578,1.2359619141
0.5456409454,-0.7343750000,0.1054687500,0.0219726562,1.4495849609,-1.1749267578,1.5869140625
0.5482139587,-0.7343750000,0.1054687500,0.0219726562,1.6479492188,-0.9460449219,1.5869140625
0.5507798195,-0.7304687500,0.1025390625,0.0209960938,1.6479492188,-0.9460449219,1.9836425781
0.5533399582,-0.7304687500,0.1025390625,0.0209960938,1.3122558594,-1.1138916016,1.9836425781
0.5559058189,-0.7304687500,0.1025390625,0.0209960938,1.3122558594,-1.1138916016,1.9836425781
0.5585188866,-0.7304687500,0.1025390625,0.0209960938,0.7171630859,-0.6561279297,2.3651123047
0.5611848831,-0.7333984375,0.1059570312,0.0268554688,0.7171630859,-0.6561279297,2.3651123047
0.5637559891,-0.7333984375,0.1059570312,0.0268554688,0.4425048828,-0.7629394531,2.3345947266
0.5664179325,-0.7333984375,0.1059570312,0.0268554688,0.4425048828,-0.7629394531,2.3345947266
0.5689978600,-0.7333984375,0.1059570312,0.0288085938,0.4272460938,-0.5798339844,2.4719238281
0.5715799332,-0.7373046875,0.1108398438,0.0288085938,0.4272460938,-0.5798339844,2.4719238281
0.5743889809,-0.7373046875,0.1108398438,0.0288085938,0.8087158203,-0.8392333984,2.3193359375
0.5774757862,-0.7373046875,0.1108398438,0.0288085938,0.8087158203,-0.8392333984,2.3193359375
0.5801739693,-0.7329101562,0.1181640625,0.0253906250,0.7476806641,-0.8544921875,2.2125244141
0.5828659534,-0.7329101562,0.1181640625,0.0253906250,0.7476806641,-0.8544921875,2.2125244141
0.5855669975,-0.7329101562,0.1181640625,0.0253906250,0.7476806641,-0.8239746094,2.2430419922
0.5882818699,-0.7329101562,0.1181640625,0.0253906250,0.7476806641,-0.8239746094,2.2430419922
0.5909838676,-0.7280273438,0.1250000000,0.0283203125,0.8697509766,-0.8544921875,2.0599365234
0.5936789513,-0.7280273438,0.1250000000,0.0283203125,0.8697509766,-0.8544921875,2.0599365234
0.5963788033,-0.7280273438,0.1250000000,0.0283203125,1.1901855469,-1.1444091797,1.7547607422
0.5990829468,-0.7280273438,0.1250000000,0.0351562500,1.1901855469,-1.1444091797,1.7547607422
0.6017827988,-0.7270507812,0.1181640625,0.0351562500,1.5411376953,-1.3732910156,1.7242431641
0.6044769287,-0.7270507812,0.1181640625,0.0351562500,1.5411376953,-1.3732910156,1.7242431641
0.6071238518,-0.7270507812,0.1181640625,0.0351562500,1.6632080078,-1.0986328125,1.4343261719
0.6096878052,-0.7270507812,0.1137695312,0.0239257812,1.6632080078,-1.0986328125,1.4343261719
0.6122539043,-0.7290039062,0.1137695312,0.0239257812,1.4343261719,-0.7476806641,1.5563964844
0.6148200035,-0.7290039062,0.1137695312,0.0239257812,1.4343261719,-0.7476806641,1.5563964844
0.6174268723,-0.7290039062,0.1137695312,0.0239257812,1.3122558594,-0.8544921875,1.5869140625
0.6199958324,-0.7290039062,0.1132812500,0.0249023438,1.3122558594,-0.8544921875,1.5869140625
0.6225659847,-0.7329101562,0.1132812500,0.0249023438,1.2664794922,-0.8850097656,1.7700195312
0.6252408028,-0.7329101562,0.1132812500,0.0249023438,1.2664794922,-0.8850097656,1.7700195312
0.6279399395,-0.7329101562,0.1132812500,0.0249023438,0.7934570312,-0.9613037109,2.0446777344
0.6305069923,-0.7275390625,0.1176757812,0.0224609375,0.7934570312,-0.9613037109,2.0446777344
0.6330699921,-0.7275390625,0.1176757812,0.0224609375,0.7934570312,-0.9765625000,2.0751953125
0.6356368065,-0.7275390625,0.1176757812,0.0224609375,0.5187988281,-0.9765625000,2.0751953125
0.6384379864,-0.7275390625,0.1176757812,0.0224609375,0.5187988281,-0.6256103516,2.3498535156
0.6411368847,-0.7275390625,0.1201171875,0.0327148438,0.3356933594,-0.6256103516,2.3498535156
0.6438319683,-0.7275390625,0.1201171875,0.0327148438,0.3356933594,-0.9460449219,2.1972656250
0.6465399265,-0.7275390625,0.1201171875,0.0327148438,0.2593994141,-0.9460449219,2.1972656250
0.6492400169,-0.7275390625,0.1201171875,0.0327148438,0.2593994141,-0.9765625000,1.7242431641
0.6519348621,-0.7236328125,0.1166992188,0.0205078125,0.3662109375,-0.9765625000,1.7242431641
0.6546289921,-0.7236328125,0.1166992188,0.0205078125,0.3662109375,-0.6103515625,2.1362304688
0.6573379040,-0.7236328125,0.1166992188,0.0205078125,0.4272460938,-0.6103515625,2.1362304688
0.6600329876,-0.7236328125,0.1166992188,0.0273437500,0.4272460938,-0.6103515625,2.2430419922
0.6627268791,-0.7255859375,0.1093750000,0.0273437500,0.7171630859,-0.6561279297,2.2430419922
0.6654169559,-0.7255859375,0.1093750000,0.0273437500,0.7171630859,-0.6561279297,1.8310546875
0.6680219173,-0.7255859375,0.1093750000,0.0273437500,0.2288818359,-0.8697509766,1.8310546875
0.6705918312,-0.7255859375,0.1152343750,0.0229492188,0.2288818359,-0.8697509766,2.0141601562
0.6731548309,-0.7285156250,0.1152343750,0.0229492188,0.1525878906,-0.3814697266,2.0141601562
0.6757199764,-0.7285156250,0.1152343750,0.0229492188,0.1525878906,-0.3814697266,2.0141601562
0.6784718037,-0.7285156250,0.1152343750,0.0229492188,-0.3967285156,-0.2441406250,2.2430419922
0.6811637878,-0.7304687500,0.1215820312,0.0258789062,-0.3967285156,-0.2441406250,2.2430419922
0.6838619709,-0.7304687500,0.1215820312,0.0258789062,-0.0610351562,-0.5950927734,1.8157958984
0.6865658760,-0.7304687500,0.1215820312,0.0258789062,-0.0610351562,-0.5950927734,1.8157958984
0.6893699169,-0.7304687500,0.1215820312,0.0258789062,-0.7629394531,-0.5035400391,1.9836425781
0.6920838356,-0.7319335938,0.1108398438,0.0234375000,-0.7629394531,-0.5035400391,2.0294189453
0.6948938370,-0.7319335938,0.1108398438,0.0234375000,-1.0528564453,-0.3967285156,2.0294189453
0.6980409622,-0.7319335938,0.1108398438,0.0234375000,-1.0528564453,-0.3967285156,1.6326904297
0.7007448673,-0.7319335938,0.1171875000,0.0268554688,-1.0223388672,-0.2441406250,1.6326904297
0.7034459114,-0.7255859375,0.1171875000,0.0268554688,-1.0223388672,-0.2441406250,1.7395019531
0.7061989307,-0.7255859375,0.1171875000,0.0268554688,-1.0986328125,-0.3814697266,1.7395019531
0.7088959217,-0.7255859375,0.1171875000,0.0268554688,-1.0986328125,-0.3814697266,1.8310546875
0.7115969658,-0.7314453125,0.1289062500,0.0322265625,-0.8544921875,-0.3814697266,1.8310546875
0.7143018246,-0.7314453125,0.1289062500,0.0322265625,-0.8544921875,-0.3814697266,1.3122558594
0.7170009613,-0.7314453125,0.1289062500,0.0322265625,-0.3662109375,-0.4577636719,1.3122558594
0.7195680141,-0.7314453125,0.1289062500,0.0322265625,-0.3662109375,-0.4577636719,1.2664794922
0.7221338749,-0.7231445312,0.1225585938,0.0200195312,-0.1220703125,-0.2746582031,1.2664794922
0.7246968746,-0.7231445312,0.1225585938,0.0200195312,-0.1220703125,-0.2746582031,1.2664794922
0.7272758484,-0.7231445312,0.1225585938,0.0200195312,0.1068115234,-0.6866455078,1.0375976562
0.7298398018,-0.7231445312,0.1225585938,0.0200195312,0.1068115234,-0.6866455078,1.0375976562
0.7324039936,-0.7226562500,0.1181640625,0.0239257812,-0.1373291016,-0.7934570312,0.8087158203
0.7349739075,-0.7226562500,0.1181640625,0.0239257812,-0.1373291016,-0.7934570312,0.8087158203
0.7375907898,-0.7226562500,0.1181640625,0.0239257812,-0.2136230469,-0.1983642578,0.6103515625
0.7401528358,-0.7226562500,0.1181640625,0.0239257812,-0.2136230469,-0.1983642578,0.6103515625
0.7427148819,-0.7255859375,0.1132812500,0.0263671875,-0.6256103516,-0.0152587891,0.3356933594
0.7452838421,-0.7255859375,0.1132812500,0.0263671875,-0.6256103516,-0.0152587891,0.3356933594
0.7479579449,-0.7255859375,0.1132812500,0.0263671875,-0.3051757812,-0.1678466797,0.8392333984
0.7505288124,-0.7255859375,0.1132812500,0.0263671875,-0.3051757812,-0.1678466797,0.8392333984
0.7532098293,-0.7314453125,0.1201171875,0.0327148438,-0.0762939453,0.1220703125,0.9460449219
0.7557787895,-0.7314453125,0.1201171875,0.0327148438,-0.0762939453,0.1220703125,0.9460449219
0.7586469650,-0.7314453125,0.1201171875,0.0327148438,-0.1068115234,0.1373291016,0.9307861328
0.7612218857,-0.7314453125,0.1137695312,0.0322265625,-0.1068115234,0.1373291016,0.9307861328
0.7637829781,-0.7285156250,0.1137695312,0.0322265625,-0.1068115234,0.3662109375,0.9765625000
0.7664668560,-0.7285156250,0.1137695312,0.0322265625,-0.8087158203,0.3662109375,0.9765625000
0.7690539360,-0.7285156250,0.1137695312,0.0322265625,-0.8087158203,0.2746582031,0.9765625000
0.7721598148,-0.7319335938,0.1181640625,0.0224609375,-1.2664794922,0.2746582031,0.9765625000
0.7747318745,-0.7319335938,0.1181640625,0.0224609375,-1.2664794922,0.3662109375,0.8697509766
0.7773849964,-0.7319335938,0.1181640625,0.0224609375,-0.9613037109,0.3662109375,0.8697509766
0.7799429893,-0.7319335938,0.1181640625,0.0224609375,-0.9613037109,0.5645751953,0.5950927734
0.7825059891,-0.7353515625,0.1245117188,0.0214843750,-1.6784667969,0.5645751953,0.5950927734
0.7850677967,-0.7353515625,0.1245117188,0.0214843750,-1.6784667969,0.5645751953,0.1220703125
0.7876358032,-0.7353515625,0.1245117188,0.0214843750,-1.6021728516,0.1983642578,0.1220703125
0.7901988029,-0.7353515625,0.1245117188,0.0214843750,-1.6021728516,0.1983642578,-3.7841796875
0.7927558422,-0.7314453125,0.1215820312,0.0234375000,-1.5869140625,0.1831054688,-0.2288818359
0.7953238487,-0.7314453125,0.1215820312,0.0234375000,-1.5869140625,0.1831054688,-0.2288818359
0.7979309559,-0.7314453125,0.1215820312,0.0234375000,-1.3427734375,0.1373291016,-0.4730224609
0.8004908562,-0.7314453125,0.1215820312,0.0234375000,-1.3427734375,0.1373291016,-0.4730224609
0.8030588627,-0.7314453125,0.1269531250,0.0234375000,-1.4801025391,-0.0305175781,-1.0375976562
0.8056399822,-0.7314453125,0.1269531250,0.0234375000,-1.4801025391,-0.0305175781,-1.0375976562
0.8082928658,-0.7314453125,0.1269531250,0.0234375000,-1.0223388672,-0.3356933594,-1.3427734375
0.8108568192,-0.7314453125,0.1269531250,0.0234375000,-1.0223388672,-0.3356933594,-1.3427734375
0.8134179115,-0.7250976562,0.1254882812,0.0278320312,-0.9307861328,-0.0305175781,-1.7852783203
0.8163969517,-0.7250976562,0.1254882812,0.0278320312,-0.9307861328,-0.0305175781,-1.7852783203
0.8189678192,-0.7250976562,0.1254882812,0.0278320312,-0.9765625000,-0.2746582031,-2.3040771484
0.8215339184,-0.7250976562,0.0004882812,0.0268554688,-0.9765625000,-0.2746582031,-2.3040771484
0.8241059780,-0.7250976562,0.1230468750,0.0268554688,-0.7629394531,-0.4882812500,-2.6397705078
0.8270080090,-0.7250976562,0.1230468750,0.0268554688,-0.7629394531,-0.4882812500,-2.6397705078
0.8307039738,-0.7250976562,0.1230468750,0.0268554688,-0.8697509766,-0.3814697266,-2.8686523438
0.8335509300,-0.7187500000,0.1210937500,0.0249023438,-0.8697509766,-0.3814697266,-2.8686523438
0.8362598419,-0.7187500000,0.1210937500,0.0249023438,-1.1291503906,-0.2441406250,-3.0975341797
0.8389618397,-0.7187500000,0.1210937500,0.0249023438,-1.1291503906,-0.2441406250,-3.0975341797
0.8416588306,-0.7187500000,0.1210937500,0.0249023438,-1.5106201172,0.2288818359,-2.7008056641
0.8443548679,-0.7207031250,0.1210937500,0.0249023438,-1.5106201172,0.2288818359,-2.7008056641
0.8470728397,-0.7207031250,0.1210937500,0.0249023438,-1.3427734375,0.3662109375,-2.8076171875
0.8497669697,-0.7207031250,0.1210937500,0.0249023438,-1.3427734375,0.3662109375,-2.8076171875
0.8524580002,-0.7265625000,0.1196289062,0.0239257812,-1.4801025391,0.1525878906,-2.4414062500
0.8551568985,-0.7265625000,0.1196289062,0.0239257812,-1.4801025391,0.1525878906,-2.4414062500
0.8578639030,-0.7265625000,0.1196289062,0.0239257812,-1.6326904297,0.1678466797,-2.0904541016
0.8605649471,-0.7265625000,0.1196289062,0.0239257812,-1.6326904297,0.1678466797,-2.0904541016
0.8632588387,-0.7353515625,0.1142578125,0.0341796875,-1.5411376953,0.0915527344,-2.2583007812
0.8661208153,-0.7353515625,0.1142578125,0.0341796875,-1.5411376953,0.0915527344,-2.2583007812
0.8687839508,-0.7353515625,0.1142578125,0.0341796875,-1.4953613281,0.1678466797,-2.4719238281
0.8721969128,-0.7353515625,0.1240234375,0.0312500000,-1.4953613281,0.1678466797,-2.8686523438
0.8747708797,-0.7343750000,0.1240234375,0.0312500000,-1.2664794922,0.7171630859,-2.8686523438
0.8774077892,-0.7343750000,0.1240234375,0.0312500000,-1.2664794922,0.7171630859,-2.7770996094
0.8799669743,-0.7343750000,0.1240234375,0.0312500000,-1.4801025391,0.3662109375,-2.7770996094
0.8826448917,-0.7343750000,0.1088867188,0.0371093750,-1.4801025391,0.3662109375,-2.7770996094
0.8852047920,-0.7377929688,0.1088867188,0.0371093750,-1.3732910156,0.4119873047,-2.4719238281
0.8878068924,-0.7377929688,0.1088867188,0.0371093750,-1.3732910156,0.4119873047,-2.4719238281
0.8903658390,-0.7377929688,0.1088867188,0.0371093750,-1.1901855469,0.1678466797,-2.1362304688
0.8929269314,-0.7333984375,0.1147460938,0.0258789062,-1.1901855469,0.1678466797,-2.1362304688
0.8954939842,-0.7333984375,0.1147460938,0.0258789062,-1.3122558594,-0.0762939453,-2.1209716797
0.8980679512,-0.7333984375,0.1147460938,0.0258789062,-1.3122558594,-0.0762939453,-2.1209716797
0.9006328583,-0.7333984375,0.1147460938,0.0258789062,-1.2359619141,0.2593994141,-1.9378662109
0.9031968117,-0.7290039062,0.1196289062,0.0244140625,-1.2359619141,0.2593994141,-1.9378662109
0.9057579041,-0.7290039062,0.1196289062,0.0244140625,-1.6021728516,0.8850097656,-1.9226074219
0.9083578587,-0.7290039062,0.1196289062,0.0244140625,-1.6021728516,0.8850097656,-1.9226074219
0.9109199047,-0.7290039062,0.1196289062,0.0244140625,-0.9307861328,0.2593994141,-1.8310546875
0.9134769440,-0.7319335938,0.1103515625,0.0288085938,-0.9307861328,0.2593994141,-1.8310546875
0.9161128998,-0.7319335938,0.1103515625,0.0288085938,-0.9307861328,0.3814697266,-1.7852783203
0.9186890125,-0.7319335938,0.1103515625,0.0288085938,-0.7934570312,0.3814697266,-1.7852783203
0.9212579727,-0.7319335938,0.1103515625,0.0288085938,-0.7934570312,0.3814697266,-1.6937255859
0.9238269329,-0.7348632812,0.1132812500,0.0371093750,-1.0070800781,0.2899169922,-1.6937255859
0.9265739918,-0.7348632812,0.1132812500,0.0371093750,-1.0070800781,0.2899169922,-1.9073486328
0.9292759895,-0.7348632812,0.1132812500,0.0371093750,-0.9460449219,0.7019042969,-1.9073486328
0.9319767952,-0.7348632812,0.1132812500,0.0371093750,-0.9460449219,0.7019042969,-2.5787353516
0.9346749783,-0.7329101562,0.1132812500,0.0385742188,-0.8544921875,0.6256103516,-2.5787353516
0.9373788834,-0.7329101562,0.1132812500,0.0385742188,-0.8544921875,0.6256103516,-2.6092529297
0.9400818348,-0.7329101562,0.1132812500,0.0385742188,-0.4425048828,0.5950927734,-2.6092529297
0.9427838326,-0.7329101562,0.1132812500,0.0292968750,-0.4425048828,0.5950927734,-2.1362304688
0.9455928802,-0.7299804688,0.1098632812,0.0292968750,-0.3204345703,1.0375976562,-2.1362304688
0.9483048916,-0.7299804688,0.1098632812,0.0292968750,-0.3204345703,1.0375976562,-1.9531250000
0.9510087967,-0.7299804688,0.1098632812,0.0292968750,-0.3814697266,0.7171630859,-1.9531250000
0.9537057877,-0.7314453125,0.1176757812,0.0283203125,-0.3814697266,0.7171630859,-1.9836425781
0.9564509392,-0.7314453125,0.1176757812,0.0283203125,-0.5035400391,0.9002685547,-1.9836425781
0.9591538906,-0.7314453125,0.1176757812,0.0283203125,-0.5035400391,0.9002685547,-2.1820068359
0.9618549347,-0.7314453125,0.1176757812,0.0283203125,0.0152587891,0.5035400391,-2.1820068359
0.9646089077,-0.7382812500,0.1240234375,0.0244140625,0.0152587891,0.5035400391,-2.2277832031
0.9673619270,-0.7382812500,0.1240234375,0.0244140625,0.0762939453,0.3662109375,-2.2277832031
0.9699327946,-0.7382812500,0.1240234375,0.0244140625,0.0762939453,0.3662109375,-2.1057128906
0.9728789330,-0.7382812500,0.1240234375,0.0292968750,0.7934570312,0.2899169922,-2.1057128906
0.9754447937,-0.7324218750,0.1103515625,0.0292968750,0.7934570312,0.2899169922,-2.1362304688
0.9781568050,-0.7324218750,0.1103515625,0.0292968750,0.6713867188,0.1525878906,-2.1362304688
0.9807279110,-0.7324218750,0.1103515625,0.0292968750,0.6713867188,0.1525878906,-2.1362304688
0.9832949638,-0.7324218750,0.1113281250,0.0283203125,0.7476806641,0.0762939453,-2.0751953125
0.9858639240,-0.7290039062,0.1113281250,0.0283203125,0.7476806641,0.0762939453,-2.0751953125
0.9884510040,-0.7290039062,0.1113281250,0.0283203125,0.5798339844,0.1068115234,-2.0904541016
0.9910199642,-0.7290039062,0.1113281250,0.0283203125,0.5798339844,0.1068115234,-2.0904541016
0.9935870171,-0.7290039062,0.1142578125,0.0278320312,0.8392333984,0.2899169922,-1.7395019531
0.9962239265,-0.7314453125,0.1142578125,0.0278320312,0.8392333984,0.2899169922,-1.7395019531
0.9987838268,-0.7314453125,0.1142578125,0.0278320312,0.6713867188,0.4272460938,-1.2512207031
1.0013527870,-0.7314453125,0.1142578125,0.0278320312,0.6713867188,0.4272460938,-1.2512207031
1.0039188862,-0.7314453125,0.1054687500,0.0253906250,1.0833740234,0.1678466797,-1.3885498047
1.0065639019,-0.7290039062,0.1054687500,0.0253906250,1.0833740234,0.1678466797,-1.3885498047
1.0092480183,-0.7290039062,0.1054687500,0.0253906250,0.7171630859,0.1983642578,-1.3885498047
1.0118148327,-0.7290039062,0.1054687500,0.0253906250,0.7171630859,0.1983642578,-1.3885498047
1.0143799782,-0.7280273438,0.1147460938,0.0288085938,0.7629394531,0.6561279297,-1.2969970703
1.0171167850,-0.7280273438,0.1147460938,0.0288085938,0.7629394531,0.6561279297,-1.2969970703
1.0196859837,-0.7280273438,0.1147460938,0.0288085938,0.7629394531,0.7629394531,-0.9460449219
1.0222539902,-0.7280273438,0.1147460938,0.0288085938,0.5798339844,0.7629394531,-0.9460449219
1.0248169899,-0.7260742188,0.1196289062,0.0263671875,0.5798339844,0.8392333984,-0.9765625000
1.0275199413,-0.7260742188,0.1196289062,0.0263671875,0.0000000000,0.8392333984,-0.9765625000
1.0300920010,-0.7260742188,0.1196289062,0.0263671875,0.0000000000,0.8392333984,-1.0070800781
1.0326578617,-0.7260742188,0.1196289062,0.0263671875,-0.2136230469,0.7629394531,-1.0070800781
1.0352258682,-0.7221679688,0.1113281250,0.0332031250,-0.2136230469,0.7629394531,-0.9460449219
1.0378489494,-0.7221679688,0.1113281250,0.0332031250,0.0000000000,1.3580322266,-0.9460449219
1.0404109955,-0.7221679688,0.1113281250,0.0332031250,0.0000000000,1.3580322266,-0.9460449219
1.0429790020,-0.7221679688,0.1113281250,0.0332031250,-0.6713867188,1.1749267578,-1.0528564453
1.0455398560,-0.7211914062,0.1157226562,0.0302734375,-0.6713867188,1.1749267578,-1.0528564453
1.0481488705,-0.7211914062,0.1157226562,0.0302734375,-0.3814697266,0.6561279297,-1.1138916016
1.0507159233,-0.7211914062,0.1157226562,0.0302734375,-0.3814697266,0.6561279297,-1.1138916016
1.0532779694,-0.7211914062,0.1157226562,0.0302734375,-1.4038085938,0.9460449219,-1.2664794922
1.0558438301,-0.7158203125,0.1240234375,0.0244140625,-1.4038085938,0.9460449219,-1.2664794922
1.0584139824,-0.7158203125,0.1240234375,0.0244140625,-2.4871826172,1.1901855469,-1.6479492188
1.0609738827,-0.7158203125,0.1240234375,0.0244140625,-2.4871826172,1.1901855469,-1.6479492188
1.0635418892,-0.7158203125,0.1240234375,0.0244140625,-2.7618408203,0.7476806641,-1.5411376953
1.0663998127,-0.7265625000,0.1181640625,0.0292968750,-2.7618408203,0.7476806641,-1.5411376953
1.0689628124,-0.7265625000,0.1181640625,0.0292968750,-2.7770996094,1.3580322266,-1.7395019531
1.0721797943,-0.7265625000,0.1181640625,0.0292968750,-2.7770996094,1.3580322266,-1.7395019531
1.0747489929,-0.7250976562,0.1123046875,0.0161132812,-2.6245117188,0.9307861328,-1.7395019531
1.0773208141,-0.7250976562,0.1123046875,0.0161132812,-2.6245117188,0.9307861328,-1.7395019531
1.0798788071,-0.7250976562,0.1123046875,0.0161132812,-2.5939941406,1.2969970703,-1.5258789062
1.0824368000,-0.7250976562,0.1123046875,0.0161132812,-2.5939941406,1.2969970703,-1.5258789062
1.0849988461,-0.7348632812,0.1113281250,0.0234375000,-2.4871826172,1.2054443359,-1.4495849609
1.0876088142,-0.7348632812,0.1113281250,0.0234375000,-2.4871826172,1.2054443359,-1.4495849609
1.0901730061,-0.7348632812,0.1113281250,0.0234375000,-2.4871826172,1.2054443359,-1.2054443359
1.0927298069,-0.7348632812,0.1113281250,0.0234375000,-2.6245117188,1.2054443359,-1.2054443359
1.0952939987,-0.7446289062,0.1040039062,0.0219726562,-2.6245117188,1.2054443359,-0.7476806641
1.0978598595,-0.7446289062,0.1040039062,0.0219726562,-2.6245117188,1.2817382812,-0.7476806641
1.1004238129,-0.7446289062,0.1040039062,0.0219726562,-2.6245117188,1.2817382812,-0.7476806641
1.1029849052,-0.7446289062,0.1040039062,0.0219726562,-2.6397705078,1.0223388672,-0.4730224609
1.1055479050,-0.7407226562,0.1020507812,0.0253906250,-2.6397705078,1.0223388672,-0.4730224609
1.1081538200,-0.7407226562,0.1020507812,0.0253906250,-2.3956298828,1.0223388672,-0.4272460938
1.1107168198,-0.7407226562,0.1020507812,0.0253906250,-2.3956298828,1.0223388672,-0.4272460938
1.1132779121,-0.7407226562,0.1020507812,0.0253906250,-2.2277832031,1.2817382812,-0.1678466797
1.1158399582,-0.7392578125,0.1059570312,0.0170898438,-2.2277832031,1.2817382812,-0.1678466797
1.1184887886,-0.7392578125,0.1059570312,0.0170898438,-2.3651123047,0.9613037109,0.0152587891
1.1210558414,-0.7392578125,0.1059570312,0.0170898438,-2.3651123047,0.9613037109,0.0152587891
1.1236188412,-0.7392578125,0.1059570312,0.0170898438,-2.1209716797,0.8544921875,0.2288818359
1.1263527870,-0.7358398438,0.1079101562,0.0224609375,-2.1209716797,0.8544921875,0.2288818359
1.1290500164,-0.7358398438,0.1079101562,0.0224609375,-1.8463134766,0.7171630859,-0.1220703125
1.1317489147,-0.7358398438,0.1079101562,0.0224609375,-1.8463134766,0.7171630859,-0.1220703125
1.1344540119,-0.7358398438,0.1079101562,0.0292968750,-1.2207031250,0.5950927734,-0.2288818359
1.1372690201,-0.7226562500,0.1206054688,0.0292968750,-1.2207031250,0.5950927734,-0.2288818359
1.1399729252,-0.7226562500,0.1206054688,0.0292968750,-0.8087158203,0.5340576172,-0.4730224609
1.1426718235,-0.7226562500,0.1206054688,0.0292968750,-0.8087158203,0.5340576172,-0.4730224609
1.1453719139,-0.7226562500,0.1186523438,0.0214843750,-0.1983642578,1.1444091797,-1.0681152344
1.1479868889,-0.7226562500,0.1186523438,0.0214843750,-0.1983642578,1.1444091797,-1.0681152344
1.1505548954,-0.7226562500,0.1186523438,0.0214843750,-0.0305175781,1.0223388672,-1.3427734375
1.1531209946,-0.7226562500,0.1186523438,0.0214843750,-0.0305175781,1.0223388672,-1.3427734375
1.1556859016,-0.7246093750,0.1250000000,0.0244140625,3.8757324219,0.9613037109,-1.4038085938
1.1582558155,-0.7246093750,0.1250000000,0.0244140625,0.2899169922,0.9613037109,-1.4038085938
1.1608228683,-0.7246093750,0.1250000000,0.0244140625,0.2899169922,0.9613037109,-1.4801025391
1.1633818150,-0.7246093750,0.1250000000,0.0244140625,0.1525878906,0.6561279297,-1.4801025391
1.1660008430,-0.7314453125,0.1230468750,0.0068359375,0.1525878906,0.6561279297,-2.1514892578
1.1686589718,-0.7314453125,0.1230468750,0.0068359375,0.0457763672,1.1596679688,-2.1514892578
1.1712818146,-0.7314453125,0.1230468750,0.0068359375,0.0457763672,1.1596679688,-2.1514892578
1.1738498211,-0.7314453125,0.1230468750,0.0068359375,-1.4190673828,1.6784667969,-2.3803710938
1.1764719486,-0.7324218750,0.1157226562,0.0195312500,-1.4190673828,1.6784667969,-2.3803710938
1.1790308952,-0.7324218750,0.1157226562,0.0195312500,-3.1585693359,1.9836425781,-2.2125244141
1.1815979481,-0.7324218750,0.1157226562,0.0195312500,-3.1585693359,1.9836425781,-2.2125244141
1.1842479706,-0.7324218750,0.1157226562,0.0195312500,-4.4097900391,1.3732910156,-1.9836425781
1.1874768734,-0.7402343750,0.1025390625,0.0185546875,-4.4097900391,1.3732910156,-1.9836425781
1.1900429726,-0.7402343750,0.1025390625,0.0185546875,-4.7149658203,1.0681152344,-1.1749267578
1.1926009655,-0.7402343750,0.1025390625,0.0185546875,-4.7149658203,1.0681152344,-1.1749267578
1.1951599121,-0.7402343750,0.1025390625,0.0263671875,-4.6386718750,0.5340576172,-0.8850097656
1.1977717876,-0.7416992188,0.0937500000,0.0263671875,-4.6386718750,0.5340576172,-0.8850097656
1.2004427910,-0.7416992188,0.0937500000,0.0263671875,-5.5999755859,0.8087158203,-0.2746582031
1.2030048370,-0.7416992188,0.0937500000,0.0263671875,-5.5999755859,0.8087158203,-0.2746582031
1.2055659294,-0.7416992188,0.0864257812,0.0346679688,-7.5073242188,1.1596679688,0.3662109375
1.2082049847,-0.7333984375,0.0864257812,0.0346679688,-7.5073242188,1.1596679688,0.3662109375
1.2107698917,-0.7333984375,0.0864257812,0.0346679688,-7.4768066406,1.3122558594,1.1444091797
1.2133269310,-0.7333984375,0.0864257812,0.0346679688,-7.4768066406,1.3122558594,1.1444091797
1.2158877850,-0.7333984375,0.0893554688,0.0346679688,-6.3476562500,1.6632080078,1.9378662109
1.2184498310,-0.7324218750,0.0893554688,0.0346679688,-6.3476562500,1.6632080078,1.9378662109
1.2210078239,-0.7324218750,0.0893554688,0.0346679688,-6.3476562500,1.8920898438,2.6245117188
1.2235648632,-0.7324218750,0.0893554688,0.0346679688,-5.7220458984,1.8920898438,2.6245117188
1.2261838913,-0.7392578125,0.0898437500,0.0429687500,-5.7220458984,1.8920898438,2.3193359375
1.2287468910,-0.7392578125,0.0898437500,0.0429687500,-5.3253173828,2.0599365234,2.3193359375
1.2313067913,-0.7392578125,0.0898437500,0.0429687500,-5.3253173828,2.0599365234,2.6855468750
1.2338719368,-0.7392578125,0.0898437500,0.0429687500,-5.3710937500,2.1820068359,2.6855468750
1.2365758419,-0.7397460938,0.0971679688,0.0249023438,-5.3710937500,2.1820068359,2.6855468750
1.2391419411,-0.7397460938,0.0971679688,0.0249023438,-5.2337646484,2.5482177734,3.4637451172
1.2416949272,-0.7397460938,0.0971679688,0.0249023438,-5.2337646484,2.5482177734,3.4637451172
1.2442510128,-0.7397460938,0.0971679688,0.0249023438,-4.8217773438,2.8533935547,4.1961669922
1.2469599247,-0.7421875000,0.1054687500,0.0332031250,-4.8217773438,2.8533935547,4.1961669922
1.2495269775,-0.7421875000,0.1054687500,0.0332031250,-4.5623779297,3.5095214844,4.4097900391
1.2520887852,-0.7421875000,0.1054687500,0.0332031250,-4.5623779297,3.5095214844,4.4097900391
1.2546498775,-0.7421875000,0.1054687500,0.0332031250,-5.5999755859,4.3029785156,5.2642822266
1.2572879791,-0.7377929688,0.0986328125,0.0424804688,-5.5999755859,4.3029785156,5.2642822266
1.2599859238,-0.7377929688,0.0986328125,0.0424804688,-6.7749023438,4.9896240234,6.2255859375
1.2627918720,-0.7377929688,0.0986328125,0.0424804688,-6.7749023438,4.9896240234,6.2255859375
1.2654838562,-0.7377929688,0.0986328125,0.0424804688,-9.0179443359,5.3863525391,6.9274902344
1.2681889534,-0.7456054688,0.0839843750,0.0400390625,-9.0179443359,5.3863525391,6.9274902344
1.2708919048,-0.7456054688,0.0839843750,0.0400390625,-10.7727050781,6.0272216797,8.0718994141
1.2735688686,-0.7456054688,0.0839843750,0.0400390625,-10.7727050781,6.0272216797,8.0718994141
1.2763497829,-0.7456054688,0.0903320312,0.0244140625,-10.3149414062,6.2561035156,9.5062255859
1.2790138721,-0.7602539062,0.0903320312,0.0244140625,-10.3149414062,6.2561035156,9.5062255859
1.2817149162,-0.7602539062,0.0903320312,0.0244140625,-10.0708007812,6.2561035156,11.2609863281
1.2846989632,-0.7602539062,0.0903320312,0.0244140625,-10.0708007812,6.2561035156,11.2609863281
1.2873558998,-0.7626953125,0.1010742188,0.0180664062,-7.9650878906,6.6986083984,13.1683349609
1.2899279594,-0.7626953125,0.1010742188,0.0180664062,-7.9650878906,6.6986083984,13.1683349609
1.2924959660,-0.7626953125,0.1010742188,0.0180664062,-4.8065185547,6.4392089844,15.6860351562
1.2950608730,-0.7626953125,0.1010742188,0.0180664062,-4.8065185547,6.4392089844,15.6860351562
1.2976379395,-0.7685546875,0.1040039062,0.0322265625,-2.3956298828,7.1563720703,18.5699462891
1.3001987934,-0.7685546875,0.1040039062,0.0322265625,-2.3956298828,7.1563720703,18.5699462891
1.3027648926,-0.7685546875,0.1040039062,0.0322265625,-1.3427734375,8.7585449219,21.4843750000
1.3053319454,-0.7685546875,0.1040039062,0.0322265625,-1.3427734375,8.7585449219,21.4843750000
1.3079500198,-0.7827148438,0.0844726562,0.0581054688,-1.3427734375,9.2010498047,25.6042480469
1.3105158806,-0.7827148438,0.0844726562,0.0581054688,1.0681152344,9.2010498047,25.6042480469
1.3130798340,-0.7827148438,0.0844726562,0.0581054688,1.0681152344,9.2010498047,30.8685302734
1.3156418800,-0.7827148438,0.0844726562,0.0581054688,4.8370361328,9.5367431641,30.8685302734
1.3182909489,-0.7792968750,0.0473632812,0.0629882812,4.8370361328,9.5367431641,36.1785888672
1.3208508492,-0.7792968750,0.0473632812,0.0629882812,8.1787109375,10.5133056641,36.1785888672
1.3234128952,-0.7792968750,0.0473632812,0.0629882812,8.1787109375,10.5133056641,36.1785888672
1.3261198997,-0.7792968750,0.0473632812,0.0629882812,10.6964111328,11.6271972656,42.6483154297
1.3287010193,-0.7851562500,-0.0087890625,0.0913085938,10.6964111328,11.6271972656,42.6483154297
1.3312699795,-0.7851562500,-0.0087890625,0.0913085938,10.9710693359,12.8021240234,50.3540039062
1.3338508606,-0.7851562500,-0.0087890625,0.0913085938,10.9710693359,12.8021240234,50.3540039062
1.3365678787,-0.7851562500,-0.0087890625,0.0708007812,9.2620849609,13.5345458984,57.7545166016
1.3391427994,-0.8095703125,-0.0551757812,0.0708007812,9.2620849609,13.5345458984,57.7545166016
1.3417179585,-0.8095703125,-0.0551757812,0.0708007812,6.7901611328,14.2669677734,66.1773681641
1.3442900181,-0.8095703125,-0.0551757812,0.0708007812,6.7901611328,14.2669677734,66.1773681641
1.3469250202,-0.8095703125,-0.0351562500,0.0458984375,5.5084228516,13.6260986328,75.3784179688
1.3496279716,-0.8344726562,-0.0351562500,0.0458984375,5.5084228516,13.6260986328,75.3784179688
1.3523328304,-0.8344726562,-0.0351562500,0.0458984375,3.0059814453,11.6119384766,84.8693847656
1.3550388813,-0.8344726562,-0.0351562500,0.0458984375,3.0059814453,11.6119384766,84.8693847656
1.3577508926,-0.8012695312,-0.0791015625,0.0009765625,-1.4343261719,9.1094970703,93.6279296875
1.3604578972,-0.8012695312,-0.0791015625,0.0009765625,-1.4343261719,9.1094970703,93.6279296875
1.3631589413,-0.8012695312,-0.0791015625,0.0009765625,-9.4604492188,4.5013427734,100.6164550781
1.3658649921,-0.8012695312,-0.0791015625,0.0009765625,-9.4604492188,4.5013427734,100.6164550781
1.3685657978,-0.7485351562,-0.1313476562,0.0053710938,-20.1873779297,0.2899169922,105.7128906250
1.3712699413,-0.7485351562,-0.1313476562,0.0053710938,-20.1873779297,0.2899169922,105.7128906250
1.3740580082,-0.7485351562,-0.1313476562,0.0053710938,-26.4434814453,-4.4250488281,108.2305908203
1.3768119812,-0.7485351562,-0.1313476562,-0.0439453125,-26.4434814453,-4.4250488281,108.2305908203
1.3794767857,-0.7836914062,0.0395507812,-0.0439453125,-29.2053222656,-8.1787109375,108.2000732422
1.3823308945,-0.7836914062,0.0395507812,-0.0439453125,-29.2053222656,-8.1787109375,108.2000732422
1.3850009441,-0.7836914062,0.0395507812,-0.0439453125,-28.8543701172,-10.4064941406,106.9641113281
1.3876638412,-0.7836914062,0.2524414062,-0.1416015625,-28.8543701172,-10.4064941406,106.9641113281
1.3903508186,-0.8388671875,0.2524414062,-0.1416015625,-27.5878906250,-11.9323730469,107.6660156250
1.3929247856,-0.8388671875,0.2524414062,-0.1416015625,-27.5878906250,-11.9323730469,107.6660156250
1.3954977989,-0.8388671875,0.2524414062,-0.1416015625,-26.1535644531,-12.7716064453,107.8033447266
1.3980758190,-0.8247070312,0.2529296875,-0.2041015625,-26.1535644531,-12.7716064453,107.8033447266
1.4006459713,-0.8247070312,0.2529296875,-0.2041015625,-22.2473144531,-13.0310058594,107.5897216797
1.4032168388,-0.8247070312,0.2529296875,-0.2041015625,-22.8881835938,-13.0310058594,107.5897216797
1.4057929516,-0.8247070312,0.2529296875,-0.2041015625,-22.8881835938,-13.0310058594,107.0861816406
1.4083838463,-0.7475585938,0.2153320312,-0.0927734375,-19.2718505859,-14.4348144531,107.0861816406
1.4109539986,-0.7475585938,0.2153320312,-0.0927734375,-19.2718505859,-14.4348144531,104.3548583984
1.4135258198,-0.7475585938,0.2153320312,-0.0927734375,-13.5040283203,-15.0604248047,104.3548583984
1.4160988331,-0.7475585938,0.2153320312,-0.0927734375,-13.5040283203,-15.0604248047,100.4486083984
1.4186718464,-0.8090820312,0.1962890625,-0.1035156250,-5.4779052734,-12.0544433594,100.9216308594
1.4212379456,-0.8090820312,0.1962890625,-0.1035156250,-5.4779052734,-12.0544433594,100.9216308594
1.4238138199,-0.8090820312,0.1962890625,-0.1035156250,-1.9836425781,-8.6059570312,97.0001220703
1.4265580177,-0.8090820312,0.1962890625,-0.1035156250,-1.9836425781,-8.6059570312,97.0001220703
1.4291348457,-0.7866210938,0.2631835938,-0.1425781250,-3.2196044922,-5.8441162109,93.4295654297
1.4317049980,-0.7866210938,0.2631835938,-0.1425781250,-3.2196044922,-5.8441162109,93.4295654297
1.4342739582,-0.7866210938,0.2631835938,-0.1425781250,-6.9885253906,-3.1433105469,92.1173095703
1.4369537830,-0.7866210938,0.2631835938,-0.1425781250,-6.9885253906,-3.1433105469,92.1173095703
1.4395279884,-0.7065429688,0.3120117188,-0.0834960938,-11.8255615234,-1.0223388672,91.3391113281
1.4421069622,-0.7065429688,0.3120117188,-0.0834960938,-11.8255615234,-1.0223388672,91.3391113281
1.4446909428,-0.7065429688,0.3120117188,-0.0834960938,-15.1824951172,0.3509521484,90.0573730469
1.4473459721,-0.7065429688,0.3120117188,-0.0834960938,-15.1824951172,0.3509521484,90.0573730469
1.4500529766,-0.5581054688,0.2963867188,-0.0283203125,-16.2658691406,1.9226074219,89.2028808594
1.4528629780,-0.5581054688,0.2963867188,-0.0283203125,-16.2658691406,1.9226074219,89.2028808594
1.4555668831,-0.5581054688,0.2963867188,-0.0283203125,-15.7165527344,2.8076171875,88.5925292969
1.4582839012,-0.4331054688,0.3564453125,-0.0175781250,-15.7165527344,2.8076171875,88.5925292969
1.4609858990,-0.4111328125,0.3564453125,-0.0175781250,-14.9688720703,2.9449462891,88.6840820312
1.4636909962,-0.4111328125,0.3564453125,-0.0175781250,-14.9688720703,2.9449462891,88.6840820312
1.4664299488,-0.4111328125,0.3564453125,-0.0175781250,-15.2740478516,3.3264160156,88.4857177734
1.4691329002,-0.3266601562,0.3647460938,0.0185546875,-15.2740478516,3.3264160156,88.4857177734
1.4718430042,-0.3266601562,0.3647460938,0.0185546875,-18.6004638672,2.3345947266,86.4715576172
1.4745519161,-0.3266601562,0.3647460938,0.0185546875,-18.6004638672,2.3345947266,86.4715576172
1.4774298668,-0.3266601562,0.3647460938,0.0185546875,-23.5595703125,0.7934570312,84.1827392578
1.4801039696,-0.2470703125,0.3500976562,0.0805664062,-23.5595703125,0.7934570312,84.1827392578
1.4830498695,-0.2470703125,0.3500976562,0.0805664062,-28.1219482422,-1.5563964844,83.0078125000
1.4856238365,-0.2470703125,0.3500976562,0.0805664062,-28.1219482422,-1.5563964844,83.0078125000
1.4882907867,-0.2470703125,0.4174804688,0.1308593750,-32.9742431641,-4.6539306641,82.4584960938
1.4908599854,-0.1982421875,0.4174804688,0.1308593750,-32.9742431641,-4.6539306641,82.4584960938
1.4934289455,-0.1982421875,0.4174804688,0.1308593750,-35.8581542969,-7.9498291016,80.6732177734
1.4959928989,-0.1982421875,0.4174804688,0.1308593750,-35.8581542969,-7.9498291016,80.6732177734
1.4985640049,-0.1982421875,0.4287109375,0.1972656250,-35.8581542969,-9.9029541016,76.9653320312
1.5011358261,-0.2041015625,0.4287109375,0.1972656250,-36.8652343750,-9.9029541016,76.9653320312
1.5037047863,-0.2041015625,0.4287109375,0.1972656250,-36.8652343750,-13.8092041016,74.3103027344
1.5062868595,-0.2041015625,0.4287109375,0.1972656250,-37.3229980469,-12.7563476562,74.3103027344
1.5088598728,-0.2041015625,0.3730468750,0.2182617188,-37.3229980469,-12.7563476562,71.7163085938
1.5114278793,-0.2016601562,0.3730468750,0.2182617188,-35.9649658203,-16.4337158203,71.7163085938
1.5140018463,-0.2016601562,0.3730468750,0.2182617188,-35.9649658203,-16.4337158203,67.8100585938
1.5167429447,-0.2016601562,0.3730468750,0.2182617188,-30.1666259766,-20.4162597656,68.2678222656
1.5193178654,-0.2421875000,0.3315429688,0.2534179688,-30.1666259766,-20.4162597656,68.2678222656
1.5218899250,-0.2421875000,0.3315429688,0.2534179688,-20.4162597656,-26.7944335938,63.8427734375
1.5244629383,-0.2421875000,0.3315429688,0.2534179688,-20.4162597656,-26.7944335938,63.8427734375
1.5271549225,-0.2421875000,0.3315429688,0.2534179688,-8.8806152344,-31.3415527344,60.2874755859
1.5297198296,-0.3950195312,0.2622070312,0.2578125000,-8.8806152344,-31.3415527344,60.2874755859
1.5322887897,-0.3950195312,0.2622070312,0.2578125000,2.6550292969,-34.7137451172,57.8155517578
1.5348579884,-0.3950195312,0.2622070312,0.2578125000,2.6550292969,-34.7137451172,57.8155517578
1.5375390053,-0.3950195312,0.2622070312,0.2578125000,11.2457275391,-39.8559570312,56.7779541016
1.5401098728,-0.4238281250,0.2612304688,0.2954101562,11.2457275391,-39.8559570312,56.7779541016
1.5426788330,-0.4238281250,0.2612304688,0.2954101562,20.2636718750,-44.4488525391,55.0537109375
1.5452558994,-0.4238281250,0.2612304688,0.2954101562,20.2636718750,-44.4488525391,55.0537109375
1.5478320122,-0.4238281250,0.2612304688,0.2954101562,33.6914062500,-44.4641113281,50.0030517578
1.5504069328,-0.8833007812,0.5590820312,0.1806640625,33.6914062500,-44.4641113281,50.0030517578
1.5529808998,-0.8833007812,0.5590820312,0.1806640625,45.4101562500,-37.7349853516,45.4101562500
1.5555539131,-0.8833007812,0.5590820312,0.1806640625,45.4254150391,-37.7349853516,45.4101562500
1.5582959652,-0.8833007812,0.5590820312,-0.5693359375,45.4254150391,-27.0538330078,45.9136962891
1.5610048771,-1.6582031250,0.5810546875,-0.5434570312,45.8984375000,-27.0538330078,45.9136962891
1.5637128353,-1.6582031250,0.5810546875,-0.5434570312,45.8984375000,-20.5535888672,50.4455566406
1.5664629936,-1.6582031250,0.5810546875,-0.5434570312,43.6859130859,-20.5535888672,50.4455566406
1.5691750050,-1.6582031250,0.1962890625,-0.6313476562,43.6859130859,-18.2952880859,54.3975830078
1.5718820095,-1.7382812500,0.1962890625,-0.6313476562,36.5600585938,-18.2952880859,54.3975830078
1.5745868683,-1.7382812500,0.1962890625,-0.6313476562,36.5600585938,-17.7307128906,64.0411376953
1.5773007870,-1.7382812500,0.1962890625,-0.6313476562,25.0244140625,-17.7307128906,64.0411376953
1.5802810192,-0.8447265625,0.1186523438,0.1621093750,13.3056640625,-17.8680419922,70.8618164062
1.5829889774,-0.8447265625,0.1186523438,0.1621093750,14.6636962891,-17.8680419922,70.8618164062
1.5856959820,-0.8447265625,0.1186523438,0.1621093750,9.3078613281,-21.7132568359,74.8443603516
1.5884499550,-0.8447265625,0.1186523438,0.1621093750,9.3078613281,-21.7132568359,74.8443603516
1.5911588669,-0.4306640625,0.4809570312,0.5175781250,14.2517089844,-26.0314941406,72.0214843750
1.5939569473,-0.4306640625,0.4809570312,0.5175781250,14.2517089844,-26.0314941406,72.0214843750
1.5974419117,-0.4306640625,0.4809570312,0.5175781250,25.9399414062,-31.8603515625,65.8264160156
1.6000168324,-0.5551757812,0.5068359375,0.2231445312,25.9399414062,-31.8603515625,65.8264160156
1.6025879383,-0.5551757812,0.5068359375,0.2231445312,32.6843261719,-33.9202880859,60.6536865234
1.6051678658,-0.5551757812,0.5068359375,0.2231445312,32.6843261719,-33.9202880859,60.6536865234
1.6078269482,-0.5551757812,0.5068359375,0.2231445312,33.7066650391,-31.0668945312,57.1289062500
1.6104028225,-0.7973632812,0.5170898438,-0.0175781250,33.7066650391,-31.0668945312,57.1289062500
1.6129758358,-0.7973632812,0.5170898438,-0.0175781250,33.7066650391,-27.3437500000,55.4351806641
1.6155478954,-0.7973632812,0.5170898438,-0.0175781250,33.1573486328,-27.3437500000,55.4351806641
1.6181669235,-0.7973632812,0.5170898438,-0.0175781250,33.1573486328,-27.0233154297,53.2989501953
1.6207427979,-0.6772460938,0.5419921875,-0.0361328125,32.3181152344,-27.0233154297,53.2989501953
1.6233170033,-0.6772460938,0.5419921875,-0.0361328125,32.3181152344,-27.0233154297,48.6450195312
1.6258909702,-0.6772460938,0.5419921875,-0.0361328125,31.4788818359,-26.8249511719,48.6450195312
1.6284728050,-0.6772460938,0.5419921875,-0.0361328125,31.4788818359,-26.8249511719,44.7387695312
1.6310420036,-0.6718750000,0.5239257812,-0.0224609375,29.0985107422,-26.0620117188,44.9066162109
1.6336178780,-0.6718750000,0.5239257812,-0.0224609375,29.0985107422,-26.0620117188,44.9066162109
1.6362547874,-0.6718750000,0.5239257812,-0.0224609375,23.6816406250,-26.3061523438,41.9006347656
1.6388268471,-0.6718750000,0.5239257812,-0.0224609375,23.6816406250,-26.3061523438,41.9006347656
1.6413989067,-0.6811523438,0.5185546875,0.0048828125,18.0969238281,-25.4974365234,39.1693115234
1.6440949440,-0.6811523438,0.5185546875,0.0048828125,18.0969238281,-25.4974365234,39.1693115234
1.6467888355,-0.6811523438,0.5185546875,0.0048828125,13.6566162109,-23.4985351562,36.5142822266
1.6493668556,-0.6811523438,0.5185546875,-0.1201171875,13.6566162109,-23.4985351562,36.5142822266
1.6519398689,-0.6313476562,0.4892578125,-0.0419921875,8.3465576172,-21.6674804688,35.0341796875
1.6545159817,-0.6313476562,0.4892578125,-0.0419921875,8.3465576172,-21.6674804688,35.0341796875
1.6571779251,-0.6313476562,0.4892578125,-0.0419921875,1.6174316406,-18.7835693359,32.2265625000
1.6597478390,-0.6313476562,0.4892578125,-0.0141601562,1.6174316406,-18.7835693359,32.2265625000
1.6623129845,-0.6157226562,0.4814453125,-0.0141601562,-3.6010742188,-16.7083740234,28.7170410156
1.6648838520,-0.6157226562,0.4814453125,-0.0141601562,-3.6010742188,-16.7083740234,28.7170410156
1.6674618721,-0.6157226562,0.4814453125,-0.0141601562,-6.5002441406,-16.1437988281,25.2990722656
1.6700308323,-0.6157226562,0.6064453125,0.0766601562,-6.5002441406,-16.1437988281,25.2990722656
1.6725988388,-0.6049804688,0.5415039062,0.0766601562,-6.5002441406,-15.1977539062,21.6064453125
1.6751718521,-0.6049804688,0.5415039062,0.0766601562,-8.8958740234,-15.1977539062,21.6064453125
1.6777839661,-0.6049804688,0.5415039062,0.0766601562,-8.8958740234,-15.1977539062,17.8070068359
1.6804900169,-0.6049804688,0.5478515625,0.0869140625,-10.3759765625,-14.4653320312,17.8070068359
1.6830649376,-0.5019531250,0.5478515625,0.0869140625,-10.3759765625,-14.4653320312,13.2293701172
1.6856379509,-0.5019531250,0.5478515625,0.0869140625,-10.1776123047,-13.3209228516,13.2293701172
1.6883809566,-0.5019531250,0.5478515625,0.0869140625,-10.1776123047,-13.3209228516,8.2550048828
1.6910448074,-0.3764648438,0.5546875000,0.1269531250,-10.4675292969,-11.6119384766,8.2550048828
1.6942257881,-0.3764648438,0.5546875000,0.1269531250,-10.4675292969,-11.6119384766,2.8991699219
1.6968669891,-0.3764648438,0.5546875000,0.1269531250,-9.9487304688,-10.0708007812,2.8991699219
1.6994400024,-0.3764648438,0.5546875000,0.1269531250,-9.9487304688,-10.0708007812,-3.4790039062
1.7020118237,-0.2617187500,0.6162109375,0.1328125000,-5.5084228516,-8.9874267578,-3.4790039062
1.7045738697,-0.2617187500,0.6162109375,0.1328125000,-5.5084228516,-8.9874267578,-11.2915039062
1.7072958946,-0.2617187500,0.6162109375,0.1328125000,-1.0986328125,-8.1024169922,-10.9863281250
1.7098670006,-0.2617187500,0.6162109375,0.0078125000,-1.0986328125,-8.1024169922,-10.9863281250
1.7124378681,-0.3662109375,0.4985351562,0.1025390625,-1.2817382812,-7.6141357422,-17.1813964844
1.7150058746,-0.3662109375,0.4985351562,0.1025390625,-1.2817382812,-7.6141357422,-17.1813964844
1.7176189423,-0.3662109375,0.4985351562,0.1025390625,-2.4871826172,-6.8511962891,-21.9421386719
1.7201879025,-0.3662109375,0.4985351562,0.1108398438,-2.4871826172,-6.8511962891,-21.9421386719
1.7227609158,-0.5297851562,0.5156250000,0.1108398438,-3.2348632812,-6.8664550781,-25.9399414062
1.7253248692,-0.5297851562,0.5156250000,0.1108398438,-3.2348632812,-6.8664550781,-25.9399414062
1.7279458046,-0.5297851562,0.5156250000,0.1108398438,-3.0059814453,-7.6599121094,-29.9835205078
1.7305178642,-0.5297851562,0.5156250000,0.0678710938,-3.0059814453,-7.6599121094,-29.9835205078
1.7330868244,-0.7387695312,0.5200195312,0.0678710938,-1.9226074219,-8.0718994141,-34.5306396484
1.7356569767,-0.7387695312,0.5200195312,0.0678710938,-1.9226074219,-8.0718994141,-34.5306396484
1.7383170128,-0.7387695312,0.5200195312,0.0678710938,-2.4414062500,-8.6364746094,-39.1387939453
1.7408947945,-0.7387695312,0.5502929688,-0.0048828125,-2.4414062500,-8.6364746094,-39.1387939453
1.7434718609,-0.8642578125,0.5502929688,-0.0048828125,-2.4414062500,-9.8114013672,-43.1213378906
1.7460718155,-0.8642578125,0.5502929688,-0.0048828125,-3.4790039062,-9.8114013672,-43.1213378906
1.7487800121,-0.8642578125,0.5502929688,-0.0048828125,-3.4790039062,-10.1470947266,-47.1954345703
1.7514967918,-0.9711914062,0.5454101562,-0.0922851562,-4.1198730469,-10.1470947266,-47.1954345703
1.7541999817,-0.9711914062,0.5454101562,-0.0922851562,-4.1198730469,-9.8266601562,-51.2237548828
1.7569179535,-0.9711914062,0.5454101562,-0.0922851562,-4.3182373047,-9.8266601562,-51.2237548828
1.7596218586,-0.9711914062,0.5454101562,-0.0922851562,-4.3182373047,-9.1094970703,-55.6182861328
1.7623229027,-1.0029296875,0.5883789062,-0.1293945312,-4.8370361328,-9.1094970703,-55.6182861328
1.7650318146,-1.0029296875,0.5883789062,-0.1293945312,-4.8370361328,-7.4157714844,-61.1572265625
1.7676618099,-1.0029296875,0.5883789062,-0.1293945312,-4.0893554688,-7.4157714844,-61.1572265625
1.7702279091,-1.0029296875,0.5883789062,-0.1293945312,-4.0893554688,-7.4157714844,-66.6503906250
1.7729129791,-1.0156250000,0.6230468750,-0.1079101562,-1.8463134766,-5.3558349609,-66.6503906250
1.7754859924,-1.0156250000,0.6230468750,-0.1079101562,-1.8463134766,-5.3558349609,-71.1669921875
1.7781767845,-1.0156250000,0.6230468750,-0.1079101562,2.3498535156,-3.6468505859,-71.1669921875
1.7808799744,-1.0156250000,0.6230468750,-0.0429687500,2.3498535156,-3.6468505859,-76.2481689453
1.7835829258,-0.9707031250,0.6611328125,-0.0429687500,8.4991455078,-2.2430419922,-76.2481689453
1.7862949371,-0.9707031250,0.6611328125,-0.0429687500,8.4991455078,-2.2430419922,-81.8939208984
1.7889988422,-0.9707031250,0.6611328125,-0.0429687500,19.6075439453,-0.1678466797,-81.8939208984
1.7917048931,-0.8457031250,0.6860351562,0.0380859375,19.6075439453,-0.1678466797,-91.3543701172
1.7944219112,-0.8652343750,0.6860351562,0.0380859375,29.6936035156,0.4730224609,-91.3543701172
1.7971417904,-0.8652343750,0.6860351562,0.0380859375,29.6936035156,0.4730224609,-99.1668701172
1.7998538017,-0.8652343750,0.6860351562,0.0380859375,41.3970947266,1.7089843750,-100.8453369141
1.8027448654,-0.7426757812,0.7148437500,0.0849609375,41.3970947266,1.7089843750,-113.2049560547
1.8054378033,-0.7426757812,0.7148437500,0.0849609375,50.4760742188,1.4495849609,-113.2049560547
1.8084008694,-0.7426757812,0.7148437500,0.0849609375,50.4760742188,1.4495849609,-127.9602050781
1.8111038208,-0.7426757812,0.7148437500,0.0541992188,58.1512451172,2.4566650391,-127.9602050781
1.8138129711,-0.6923828125,0.7290039062,0.0541992188,58.1512451172,2.4566650391,-146.1029052734
1.8165159225,-0.6923828125,0.7290039062,0.0541992188,60.9436035156,3.0517578125,-146.1029052734
1.8190939426,-0.6923828125,0.7290039062,0.0541992188,60.9436035156,3.0517578125,-166.1224365234
1.8216738701,-0.6923828125,0.6806640625,-0.0576171875,60.3485107422,4.8217773438,-166.1224365234
1.8242418766,-0.9433593750,0.6806640625,-0.0576171875,60.3485107422,4.8217773438,-185.6536865234
1.8269138336,-0.9433593750,0.6806640625,-0.0576171875,67.8863525391,7.0648193359,-187.4694824219
1.8296258450,-0.9433593750,0.6806640625,-0.0576171875,67.8863525391,7.0648193359,-210.9069824219
1.8323338032,-1.3588867188,0.7036132812,-0.1992187500,78.1402587891,13.0615234375,-210.4492187500
1.8350520134,-1.3588867188,0.7036132812,-0.1992187500,78.1402587891,13.0615234375,-210.4492187500
1.8377978802,-1.3588867188,0.7036132812,-0.1992187500,89.5538330078,24.0325927734,-233.8104248047
1.8403708935,-1.3588867188,0.7036132812,-0.1992187500,89.5538330078,24.0325927734,-233.8104248047
1.8429529667,-1.9140625000,0.5239257812,-0.4033203125,106.2164306641,38.8946533203,-263.4429931641
1.8455288410,-1.9140625000,0.5239257812,-0.4033203125,106.2164306641,38.8946533203,-263.4429931641
1.8481569290,-1.9140625000,0.5239257812,-0.4033203125,119.5068359375,51.8951416016,-297.5006103516
1.8507390022,-1.9140625000,0.5239257812,-0.4033203125,119.5068359375,51.8951416016,-297.5006103516
1.8533167839,-2.6357421875,-0.1093750000,-0.4335937500,130.7067871094,63.2629394531,-338.6688232422
1.8559010029,-2.6357421875,-0.1093750000,-0.4335937500,130.7067871094,63.2629394531,-338.6688232422
1.8586449623,-2.6357421875,-0.1093750000,-0.4335937500,155.9143066406,73.7915039062,-379.4555664062
1.8612229824,-2.6357421875,-0.1093750000,-0.4335937500,155.9143066406,73.7915039062,-379.4555664062
1.8638069630,-4.2153320312,-1.3476562500,-0.0166015625,194.0155029297,87.0666503906,-417.0379638672
1.8665378094,-4.2153320312,-1.3476562500,-0.0166015625,194.0155029297,87.0666503906,-417.0379638672
1.8691148758,-4.2153320312,-1.3476562500,-0.0166015625,240.1275634766,91.8579101562,-435.0128173828
1.8716959953,-4.2153320312,-1.3476562500,0.8393554688,240.1275634766,91.8579101562,-435.0128173828
1.8742659092,-6.5761718750,-1.6079101562,0.8393554688,244.0338134766,60.9741210938,-368.7896728516
1.8769068718,-6.5761718750,-1.6079101562,0.8393554688,245.6359863281,60.9741210938,-368.7896728516
1.8796157837,-6.5761718750,-1.6079101562,0.8393554688,163.6047363281,10.3607177734,-208.8165283203
1.8823239803,-6.5761718750,5.9589843750,3.4497070312,161.9720458984,10.3607177734,-208.8165283203
1.8850319386,-6.6508789062,5.9589843750,3.4497070312,220.5657958984,4.5166015625,-165.5883789062
1.8877439499,-6.6508789062,5.9589843750,3.4497070312,221.8933105469,4.5166015625,-165.5883789062
1.8904500008,-6.6508789062,5.9589843750,3.4497070312,382.0495605469,43.1213378906,-308.8989257812
1.8931620121,3.0644531250,13.4624023438,1.5009765625,378.9825439453,43.1213378906,-308.8989257812
1.8958699703,3.0644531250,13.4624023438,1.5009765625,492.2637939453,-90.1641845703,-374.4049072266
1.8985848427,3.0644531250,13.4624023438,1.5009765625,492.8894042969,-90.1641845703,-374.4049072266
1.9013988972,3.0644531250,13.4624023438,1.5009765625,496.7956542969,-137.9852294922,-198.6541748047
1.9041028023,0.7177734375,-0.9516601562,0.4682617188,497.5585937500,-137.9852294922,-198.6541748047
1.9068589211,0.7177734375,-0.9516601562,0.4682617188,497.5585937500,-116.3177490234,8.8348388672
1.9095699787,0.7177734375,-0.9516601562,0.4682617188,497.5585937500,-116.3177490234,8.8348388672
1.9122798443,0.7177734375,0.4233398438,-0.0219726562,497.5585937500,-52.6580810547,165.1763916016
1.9149978161,-1.6401367188,0.4951171875,-0.0219726562,497.5585937500,-52.6580810547,165.1763916016
1.9176399708,-1.6401367188,0.4951171875,-0.0219726562,493.6523437500,15.2740478516,201.1413574219
1.9202198982,-1.6401367188,0.4951171875,-0.0219726562,495.5596923828,15.2740478516,201.1413574219
1.9230079651,0.3598632812,-1.4545898438,0.8051757812,495.5596923828,82.4584960938,210.1440429688
1.9255847931,0.3408203125,-1.4545898438,0.8051757812,373.8708496094,82.4584960938,210.1440429688
1.9285418987,0.3408203125,-1.4545898438,0.8051757812,53.5583496094,119.7509765625,238.4796142578
1.9312489033,0.3408203125,-1.4545898438,0.8051757812,54.1076660156,119.7509765625,238.4796142578
1.9339640141,-0.9672851562,-5.5156250000,0.4648437500,-223.2360839844,121.0479736328,214.4012451172
1.9366848469,-0.9672851562,-5.5156250000,0.4648437500,-224.6093750000,121.0479736328,214.4012451172
1.9393908978,-0.9672851562,-5.5156250000,0.4648437500,-423.8281250000,128.1585693359,233.0474853516
1.9421069622,-0.9672851562,-5.5156250000,0.0898437500,-425.1556396484,128.1585693359,233.0474853516
1.9448149204,-0.8041992188,-1.9506835938,0.0463867188,-495.4681396484,117.4621582031,219.4366455078
1.9475378990,-0.8041992188,-1.9506835938,0.0463867188,-496.0632324219,117.4621582031,219.4366455078
1.9502518177,-0.8041992188,-1.9506835938,0.0463867188,-480.4382324219,100.5859375000,174.5605468750
1.9529650211,-0.8041992188,-0.6303710938,0.8012695312,-478.2867431641,100.5859375000,174.5605468750
1.9556739330,0.3354492188,-0.6303710938,0.8012695312,-478.2867431641,69.7479248047,129.3029785156
1.9582660198,0.3354492188,-0.6303710938,0.8012695312,-425.2166748047,69.7479248047,129.3029785156
1.9608438015,0.3354492188,-0.6303710938,0.8012695312,-425.2166748047,69.7479248047,102.5085449219
1.9634289742,-0.0395507812,-0.8544921875,0.9218750000,-373.0163574219,12.6953125000,102.5085449219
1.9661738873,-0.0883789062,-0.8544921875,0.9218750000,-373.0163574219,12.6953125000,69.7326660156
1.9687500000,-0.0883789062,-0.8544921875,0.9218750000,-325.8972167969,-9.2468261719,69.7326660156
1.9713318348,-0.0883789062,-0.8544921875,0.9218750000,-325.8972167969,-9.2468261719,38.4826660156
1.9739038944,-0.1049804688,-0.2617187500,0.0859375000,-264.6484375000,-29.6325683594,37.4908447266
1.9765977859,-0.1049804688,-0.2617187500,0.0859375000,-264.6484375000,-29.6325683594,37.4908447266
1.9791769981,-0.1049804688,-0.2617187500,0.0859375000,-191.5893554688,-39.0930175781,9.4604492188
1.9817559719,-0.1049804688,-0.2617187500,0.0859375000,-191.5893554688,-39.0930175781,9.4604492188
1.9843389988,-0.1044921875,-0.1767578125,-0.0996093750,-123.1231689453,-41.3055419922,-21.6674804688
1.9871029854,-0.1044921875,-0.1767578125,-0.0996093750,-123.1231689453,-41.3055419922,-21.6674804688
1.9899048805,-0.1044921875,-0.1767578125,-0.0996093750,-74.5544433594,-40.7409667969,-49.9114990234
1.9927129745,-0.1044921875,-0.1767578125,0.0253906250,-74.5544433594,-40.7409667969,-49.9114990234
1.9953029156,-0.0634765625,-0.1088867188,0.0903320312,-40.6188964844,-41.1529541016,-71.1059570312
1.9980499744,-0.0634765625,-0.1088867188,0.0903320312,-40.6188964844,-41.1529541016,-71.1059570312
2.0007247925,-0.0634765625,-0.1088867188,0.0903320312,-15.8081054688,-39.9780273438,-82.4737548828
2.0039048195,-0.1547851562,-0.0756835938,-0.0014648438,-15.8081054688,-39.9780273438,-86.3800048828
2.0065109730,-0.1547851562,-0.0756835938,-0.0014648438,-5.1879882812,-39.8254394531,-87.0361328125
2.0090858936,-0.1547851562,-0.0756835938,-0.0014648438,-5.1879882812,-39.8254394531,-87.0361328125
2.0116558075,-0.1547851562,-0.0756835938,-0.0014648438,-1.0375976562,-40.7104492188,-84.4116210938
2.0142250061,-0.1225585938,-0.0869140625,-0.1791992188,-1.0375976562,-40.7104492188,-84.4116210938
2.0168428421,-0.1225585938,-0.0869140625,-0.1791992188,2.2583007812,-40.4663085938,-75.1800537109
2.0194129944,-0.1225585938,-0.0869140625,-0.1791992188,2.2583007812,-40.4663085938,-75.1800537109
2.0219838619,-0.1225585938,-0.0869140625,-0.1791992188,5.0506591797,-37.3992919922,-65.7348632812
2.0245490074,-0.1230468750,-0.0766601562,-0.2954101562,5.0506591797,-37.3992919922,-65.7348632812
2.0271368027,-0.1230468750,-0.0766601562,-0.2954101562,7.7972412109,-32.6232910156,-58.8836669922
2.0298178196,-0.1230468750,-0.0766601562,-0.2954101562,7.7972412109,-32.6232910156,-58.8836669922
2.0323917866,-0.1230468750,-0.0766601562,-0.2954101562,13.0767822266,-27.2674560547,-51.8493652344
2.0349647999,0.0297851562,-0.0776367188,-0.3505859375,13.0767822266,-27.2674560547,-51.8493652344
2.0376729965,0.0297851562,-0.0776367188,-0.3505859375,17.7307128906,-22.4456787109,-44.7998046875
2.0402488708,0.0297851562,-0.0776367188,-0.3505859375,17.7307128906,-22.4456787109,-44.7998046875
2.0428237915,0.0297851562,-0.0776367188,-0.3505859375,17.7307128906,-17.1203613281,-37.9791259766
2.0453908443,0.1245117188,-0.1020507812,-0.2963867188,27.3895263672,-17.1203613281,-37.9791259766
2.0481288433,0.1245117188,-0.1020507812,-0.2963867188,27.3895263672,-17.1203613281,-35.6292724609
2.0507059097,0.1245117188,-0.1020507812,-0.2963867188,39.5660400391,-17.1356201172,-35.6292724609
2.0532839298,0.1245117188,-0.1020507812,-0.1713867188,39.5660400391,-17.1356201172,-37.9791259766
2.0558619499,0.1079101562,-0.1103515625,-0.2441406250,57.1289062500,-16.8914794922,-37.9791259766
2.0585319996,0.1079101562,-0.1103515625,-0.2441406250,57.1289062500,-16.8914794922,-41.1071777344
2.0611038208,0.1079101562,-0.1103515625,-0.2441406250,74.7222900391,-16.3574218750,-41.1071777344
2.0636749268,0.1079101562,-0.1103515625,-0.2871093750,74.7222900391,-16.3574218750,-41.1071777344
2.0662839413,0.0874023438,-0.2539062500,-0.2871093750,87.8448486328,-18.2647705078,-44.8150634766
2.0688598156,0.0874023438,-0.2539062500,-0.2871093750,87.8448486328,-18.2647705078,-44.8150634766
2.0714290142,0.0874023438,-0.2539062500,-0.2871093750,93.0938720703,-19.6533203125,-48.2330322266
2.0740048885,0.0874023438,-0.2539062500,-0.3574218750,93.0938720703,-19.6533203125,-48.2330322266
2.0766668320,0.0830078125,-0.2900390625,-0.3574218750,93.1854248047,-19.7906494141,-51.0253906250
2.0793747902,0.0830078125,-0.2900390625,-0.3574218750,93.1854248047,-19.7906494141,-51.0253906250
2.0820848942,0.0830078125,-0.2900390625,-0.3574218750,89.9963378906,-18.4326171875,-52.2003173828
2.0847918987,0.0844726562,-0.2109375000,-0.3217773438,89.9963378906,-18.4326171875,-52.2003173828
2.0875120163,0.0844726562,-0.2109375000,-0.3217773438,83.1146240234,-16.4794921875,-51.4526367188
2.0902190208,0.0844726562,-0.2109375000,-0.3217773438,83.1146240234,-16.4794921875,-51.4526367188
2.0930368900,0.0844726562,-0.2109375000,-0.3217773438,71.3043212891,-13.6413574219,-49.8199462891
2.0957498550,0.0209960938,-0.1528320312,-0.1962890625,71.3043212891,-13.6413574219,-49.8199462891
2.0984749794,0.0209960938,-0.1528320312,-0.1962890625,53.8177490234,-9.8419189453,-46.7224121094
2.1011757851,0.0209960938,-0.1528320312,-0.1962890625,53.8177490234,-9.8419189453,-46.7224121094
2.1038827896,0.0209960938,-0.1528320312,-0.1962890625,34.0576171875,-5.5084228516,-43.9147949219
2.1065759659,-0.0449218750,-0.1220703125,-0.1274414062,34.0576171875,-5.5084228516,-43.9147949219
2.1091527939,-0.0449218750,-0.1220703125,-0.1274414062,15.0299072266,-1.3122558594,-41.5649414062
2.1117269993,-0.0449218750,-0.1220703125,-0.1274414062,15.0299072266,-1.3122558594,-41.5649414062
2.1144418716,-0.0449218750,-0.1220703125,-0.1166992188,-4.9285888672,2.3498535156,-36.6668701172
2.1173138618,-0.0903320312,-0.0468750000,-0.1166992188,-4.9285888672,2.3498535156,-36.6668701172
2.1198818684,-0.0903320312,-0.0468750000,-0.1166992188,-22.7050781250,5.9967041016,-32.5775146484
2.1224548817,-0.0903320312,-0.0468750000,-0.1166992188,-22.7050781250,5.9967041016,-32.5775146484
2.1250228882,-0.0903320312,0.1108398438,-0.1235351562,-36.2091064453,9.5214843750,-30.9600830078
2.1276409626,-0.0864257812,0.1108398438,-0.1235351562,-36.2091064453,9.5214843750,-30.9600830078
2.1302127838,-0.0864257812,0.1108398438,-0.1235351562,-45.0897216797,11.0473632812,-29.2663574219
2.1327869892,-0.0864257812,0.1108398438,-0.1235351562,-45.0897216797,11.0473632812,-29.2663574219
2.1353609562,-0.0615234375,0.2553710938,-0.0961914062,-48.9959716797,11.0015869141,-29.3579101562
2.1379837990,-0.0615234375,0.2553710938,-0.0961914062,-47.4853515625,11.0015869141,-29.3579101562
2.1405589581,-0.0615234375,0.2553710938,-0.0961914062,-47.4853515625,11.0015869141,-29.6630859375
2.1431338787,-0.0615234375,0.2553710938,-0.0961914062,-45.7611083984,9.7503662109,-29.6630859375
2.1457068920,-0.0102539062,0.3247070312,-0.0825195312,-45.7611083984,9.7503662109,-29.6478271484
2.1483299732,-0.0102539062,0.3247070312,-0.0825195312,-40.2221679688,8.3923339844,-29.6478271484
2.1509058475,-0.0102539062,0.3247070312,-0.0825195312,-40.2221679688,8.3923339844,-29.6478271484
2.1534769535,-0.0102539062,0.3247070312,-0.0825195312,-30.7922363281,5.7373046875,-29.1290283203
2.1562039852,0.0185546875,0.2885742188,-0.0942382812,-30.7922363281,5.7373046875,-29.1290283203
2.1587769985,0.0185546875,0.2885742188,-0.0942382812,-19.2871093750,1.5411376953,-27.4810791016
2.1613438129,0.0185546875,0.2885742188,-0.0942382812,-19.2871093750,1.5411376953,-27.4810791016
2.1639099121,0.0185546875,0.2885742188,-0.0942382812,-7.8277587891,-1.2817382812,-27.9846191406
2.1665909290,0.0307617188,0.1464843750,-0.0927734375,-7.8277587891,-1.2817382812,-27.9846191406
2.1691629887,0.0307617188,0.1464843750,-0.0927734375,3.2958984375,-4.6997070312,-30.2886962891
2.1717278957,0.0307617188,0.1464843750,-0.0927734375,3.2958984375,-4.6997070312,-30.2886962891
2.1742999554,0.0307617188,0.1464843750,-0.0927734375,16.1590576172,-6.9732666016,-32.3333740234
2.1770398617,0.0512695312,0.0356445312,-0.0883789062,16.1590576172,-6.9732666016,-32.3333740234
2.1797409058,0.0512695312,0.0356445312,-0.0883789062,29.9072265625,-8.5449218750,-34.4390869141
2.1824429035,0.0512695312,0.0356445312,-0.0883789062,29.9072265625,-8.5449218750,-34.4390869141
2.1851530075,0.0512695312,-0.0893554688,-0.1162109375,40.9545898438,-9.4909667969,-37.7807617188
2.1878719330,0.0737304688,-0.0659179688,-0.1162109375,40.9545898438,-9.4909667969,-37.7807617188
2.1905779839,0.0737304688,-0.0659179688,-0.1162109375,51.9256591797,-8.3465576172,-40.2526855469
2.1932837963,0.0737304688,-0.0659179688,-0.1162109375,51.9256591797,-8.3465576172,-40.2526855469
2.1959979534,0.0219726562,-0.0917968750,-0.1298828125,60.2264404297,-5.3863525391,-41.4886474609
2.1987018585,0.0219726562,-0.0917968750,-0.1298828125,60.2264404297,-5.3863525391,-41.4886474609
2.2014009953,0.0219726562,-0.0917968750,-0.1298828125,67.0318603516,-2.2430419922,-40.9088134766
2.2041118145,0.0219726562,-0.0917968750,-0.1298828125,67.0318603516,-2.2430419922,-40.9088134766
2.2068297863,-0.0273437500,0.0527343750,-0.1103515625,74.0966796875,0.6256103516,-39.0319824219
2.2094068527,-0.0273437500,0.0527343750,-0.1103515625,74.0966796875,0.6256103516,-39.0319824219
2.2119870186,-0.0273437500,0.0527343750,-0.1103515625,81.7718505859,3.6926269531,-36.2701416016
2.2145619392,-0.0273437500,0.0527343750,-0.1103515625,81.7718505859,3.6926269531,-36.2701416016
2.2172629833,-0.0864257812,0.1972656250,-0.0927734375,87.0361328125,6.0882568359,-32.1807861328
2.2200789452,-0.0864257812,0.1972656250,-0.0927734375,87.0361328125,6.0882568359,-32.1807861328
2.2227849960,-0.0864257812,0.1972656250,-0.0927734375,90.6677246094,8.9721679688,-27.0385742188
2.2254898548,-0.0864257812,0.3222656250,-0.0537109375,90.6677246094,8.9721679688,-27.0385742188
2.2282018661,-0.1186523438,0.3051757812,-0.0537109375,93.0938720703,12.6800537109,-20.9960937500
2.2309079170,-0.1186523438,0.3051757812,-0.0537109375,93.0938720703,12.6800537109,-20.9960937500
2.2338089943,-0.1186523438,0.3051757812,-0.0537109375,95.2148437500,14.6789550781,-14.0991210938
2.2368929386,-0.1079101562,0.3120117188,-0.0073242188,95.2148437500,14.6789550781,-14.0991210938
2.2396090031,-0.1079101562,0.3120117188,-0.0073242188,97.8851318359,15.6555175781,-7.4768066406
2.2423179150,-0.1079101562,0.3120117188,-0.0073242188,97.8851318359,15.6555175781,-7.4768066406
2.2450268269,-0.1079101562,0.3120117188,-0.0073242188,97.6715087891,17.0745849609,-2.8228759766
2.2477488518,-0.0942382812,0.1635742188,0.0883789062,97.6715087891,17.0745849609,-2.8228759766
2.2504498959,-0.0942382812,0.1635742188,0.0883789062,91.5679931641,17.5018310547,-0.1220703125
2.2531518936,-0.0942382812,0.1635742188,0.0883789062,91.5679931641,17.5018310547,-0.1220703125
2.2558619976,-0.0942382812,-0.0864257812,0.0952148438,83.4045410156,16.5252685547,-0.3509521484
2.2584547997,-0.0834960938,-0.0898437500,0.0952148438,83.4045410156,16.5252685547,-0.3509521484
2.2610299587,-0.0834960938,-0.0898437500,0.0952148438,78.1860351562,14.6942138672,-2.3651123047
2.2636008263,-0.0834960938,-0.0898437500,0.0952148438,78.1860351562,14.6942138672,-2.3651123047
2.2662467957,-0.0834960938,-0.1572265625,0.0097656250,73.9288330078,11.7340087891,-5.7373046875
2.2688219547,-0.0263671875,-0.1572265625,0.0097656250,73.9288330078,11.7340087891,-5.7373046875
2.2713940144,-0.0263671875,-0.1572265625,0.0097656250,73.9288330078,8.1939697266,-9.5062255859
2.2739648819,-0.0263671875,-0.1572265625,0.0097656250,67.4896240234,8.1939697266,-9.5062255859
2.2765347958,0.0986328125,-0.1279296875,-0.0561523438,67.4896240234,8.1939697266,-13.7634277344
2.2791149616,0.0581054688,-0.1279296875,-0.0561523438,60.3332519531,5.4016113281,-13.7634277344
2.2816889286,0.0581054688,-0.1279296875,-0.0561523438,60.3332519531,5.4016113281,-17.6696777344
2.2843708992,0.0581054688,-0.1279296875,-0.0561523438,54.3365478516,2.4414062500,-17.4255371094
2.2871158123,0.0639648438,-0.0463867188,-0.0849609375,54.3365478516,2.4414062500,-21.3317871094
2.2896909714,0.0639648438,-0.0463867188,-0.0849609375,51.3763427734,-0.6256103516,-20.5078125000
2.2922689915,0.0639648438,-0.0463867188,-0.0849609375,51.3763427734,-0.6256103516,-20.5078125000
2.2949309349,0.0639648438,-0.0463867188,-0.0849609375,52.1697998047,-3.7384033203,-23.6663818359
2.2976338863,0.0346679688,-0.0146484375,-0.0205078125,52.1697998047,-3.7384033203,-23.6663818359
2.3002128601,0.0346679688,-0.0146484375,-0.0205078125,58.4106445312,-6.5612792969,-25.0854492188
2.3027880192,0.0346679688,-0.0146484375,-0.0205078125,58.4106445312,-6.5612792969,-25.0854492188
2.3053648472,0.0346679688,-0.0146484375,-0.0205078125,60.5773925781,-6.2103271484,-24.0173339844
2.3081939220,-0.0708007812,-0.0947265625,-0.0429687500,60.5773925781,-6.2103271484,-24.0173339844
2.3108630180,-0.0708007812,-0.0947265625,-0.0429687500,48.4313964844,-4.5776367188,-21.0266113281
2.3137388229,-0.0708007812,-0.0947265625,-0.0429687500,48.4313964844,-4.5776367188,-21.0266113281
2.3164029121,-0.0708007812,-0.2197265625,-0.1440429688,26.4282226562,-3.3111572266,-15.9912109375
2.3189888000,-0.1196289062,-0.1533203125,-0.1440429688,26.4282226562,-3.3111572266,-15.9912109375
2.3215568066,-0.1196289062,-0.1533203125,-0.1440429688,5.4016113281,-1.7089843750,-9.0179443359
2.3241209984,-0.1196289062,-0.1533203125,-0.1440429688,5.4016113281,-1.7089843750,-9.0179443359
2.3266940117,-0.1196289062,-0.1420898438,-0.1010742188,-13.4887695312,0.1678466797,-1.8615722656
2.3292639256,-0.1552734375,-0.1420898438,-0.1010742188,-13.4887695312,0.1678466797,-1.8615722656
2.3318338394,-0.1552734375,-0.1420898438,-0.1010742188,-29.6173095703,1.5563964844,4.0740966797
2.3343977928,-0.1552734375,-0.1420898438,-0.1010742188,-29.6173095703,1.5563964844,4.0740966797
2.3370099068,-0.1552734375,-0.1425781250,-0.0341796875,-42.7856445312,3.6315917969,8.4838867188
2.3395810127,-0.1831054688,-0.1425781250,-0.0341796875,-42.7856445312,3.6315917969,8.4838867188
2.3421528339,-0.1831054688,-0.1425781250,-0.0341796875,-42.7856445312,6.6223144531,11.6271972656
2.3447189331,-0.1831054688,-0.1425781250,-0.0341796875,-53.0853271484,6.6223144531,11.6271972656
2.3474040031,-0.2241210938,-0.1669921875,-0.0722656250,-53.0853271484,10.5285644531,12.6495361328
2.3499829769,-0.2241210938,-0.1669921875,-0.0722656250,-62.8204345703,9.9487304688,12.6495361328
2.3525519371,-0.2241210938,-0.1669921875,-0.0722656250,-62.8204345703,9.9487304688,10.7116699219
2.3551278114,-0.2241210938,-0.1669921875,-0.0722656250,-70.3887939453,12.5122070312,10.7116699219
2.3577599525,-0.2514648438,-0.2314453125,-0.0620117188,-70.3887939453,12.5122070312,6.8054199219
2.3603398800,-0.2514648438,-0.2314453125,-0.0620117188,-70.2667236328,13.6413574219,5.6915283203
2.3629179001,-0.2514648438,-0.2314453125,-0.0620117188,-70.2667236328,13.6413574219,5.6915283203
2.3654878139,-0.2514648438,-0.2314453125,-0.0620117188,-69.3511962891,16.1895751953,-2.5329589844
2.3682668209,-0.2060546875,-0.3144531250,-0.1616210938,-69.3511962891,16.1895751953,-2.5329589844
2.3709750175,-0.2060546875,-0.3144531250,-0.1616210938,-76.1871337891,18.7683105469,-13.0920410156
2.3736839294,-0.2060546875,-0.3144531250,-0.1616210938,-76.1871337891,18.7683105469,-13.0920410156
2.3763949871,-0.2060546875,-0.3144531250,-0.1616210938,-85.6018066406,18.1732177734,-22.9492187500
2.3791029453,-0.0776367188,-0.1894531250,-0.1762695312,-85.6018066406,18.1732177734,-22.9492187500
2.3818128109,-0.0776367188,-0.1894531250,-0.1762695312,-87.5701904297,18.6157226562,-31.9519042969
2.3845210075,-0.0776367188,-0.1894531250,-0.1762695312,-87.5701904297,18.6157226562,-31.9519042969
2.3872749805,-0.0776367188,0.0825195312,0.0209960938,-79.0710449219,18.6309814453,-40.6799316406
2.3899888992,-0.0151367188,0.0825195312,0.0209960938,-79.0710449219,18.6309814453,-40.6799316406
2.3926978111,-0.0151367188,0.0825195312,0.0209960938,-63.5070800781,17.0898437500,-46.5240478516
2.3953998089,-0.0151367188,0.0825195312,0.0209960938,-63.5070800781,17.0898437500,-46.5240478516
2.3981428146,-0.1113281250,0.4311523438,0.0839843750,-43.9758300781,14.3127441406,-48.0651855469
2.4007248878,-0.1113281250,0.4311523438,0.0839843750,-43.9758300781,14.3127441406,-48.0651855469
2.4033038616,-0.1113281250,0.4311523438,0.0839843750,-20.4315185547,11.6577148438,-43.8232421875
2.4058849812,-0.1113281250,0.4311523438,0.0839843750,-20.4315185547,11.6577148438,-43.8232421875
2.4086198807,-0.2407226562,0.7324218750,0.0986328125,7.5531005859,8.3007812500,-35.2783203125
2.4123589993,-0.2407226562,0.7324218750,0.0986328125,7.5531005859,8.3007812500,-24.0173339844
2.4149320126,-0.2407226562,0.7324218750,0.0986328125,36.9415283203,5.0048828125,-24.0173339844
2.4175128937,-0.2407226562,0.7036132812,0.0058593750,36.9415283203,5.0048828125,-24.0173339844
2.4200878143,-0.3193359375,0.7036132812,0.0058593750,56.4880371094,2.3498535156,-11.2457275391
2.4226570129,-0.3193359375,0.7036132812,0.0058593750,56.4880371094,2.3498535156,-11.2457275391
2.4252309799,-0.3193359375,0.7036132812,0.0058593750,66.9097900391,1.4801025391,1.9683837891
2.4278078079,-0.3193359375,0.4560546875,-0.0576171875,66.9097900391,1.4801025391,1.9683837891
2.4303748608,-0.4125976562,0.4560546875,-0.0576171875,74.4018554688,1.4953613281,15.8081054688
2.4329428673,-0.4125976562,0.4560546875,-0.0576171875,74.4018554688,1.4953613281,15.8081054688
2.4355130196,-0.4125976562,0.4560546875,-0.0576171875,72.9370117188,3.9215087891,30.1361083984
2.4381308556,-0.4125976562,0.1962890625,-0.2133789062,72.9370117188,3.9215087891,30.1361083984
2.4407029152,-0.4531250000,0.1962890625,-0.2133789062,55.6335449219,7.7819824219,47.6531982422
2.4432718754,-0.4531250000,0.1962890625,-0.2133789062,55.6335449219,7.7819824219,47.6531982422
2.4458489418,-0.4531250000,0.1962890625,-0.2133789062,25.7263183594,11.8408203125,70.5108642578
2.4484288692,-0.5141601562,0.1254882812,-0.2075195312,25.7263183594,11.8408203125,70.5108642578
2.4509999752,-0.5141601562,0.1254882812,-0.2075195312,25.7263183594,17.1661376953,95.4589843750
2.4535779953,-0.5141601562,0.1254882812,-0.2075195312,-17.1203613281,17.1661376953,95.4589843750
2.4563679695,-0.5141601562,0.1254882812,-0.2075195312,-17.1203613281,21.0723876953,120.2850341797
2.4589509964,-0.6079101562,0.1279296875,0.0761718750,-67.0776367188,22.4456787109,120.2850341797
2.4615259171,-0.6079101562,0.1279296875,0.0761718750,-67.0776367188,22.4456787109,141.6931152344
2.4640979767,-0.6079101562,0.1279296875,0.0761718750,-110.7788085938,25.9857177734,141.6931152344
2.4668068886,-0.6079101562,0.1279296875,0.0761718750,-110.7788085938,25.9857177734,159.2102050781
2.4693808556,-0.5644531250,0.2910156250,0.3461914062,-144.4854736328,27.2674560547,159.2102050781
2.4719488621,-0.5644531250,0.2910156250,0.3461914062,-144.4854736328,27.2674560547,159.2102050781
2.4745287895,-0.5644531250,0.2910156250,0.3461914062,-158.0352783203,29.1290283203,182.3883056641
2.4772229195,-0.5644531250,0.2910156250,0.3461914062,-158.0352783203,29.1290283203,182.3883056641
2.4798069000,-0.0864257812,7.0996093750,2.5166015625,8.6364746094,-1.0833740234,238.2965087891
2.4823729992,-0.0864257812,7.0996093750,2.5166015625,8.6364746094,-1.0833740234,238.2965087891
2.4849419594,-0.0864257812,7.0996093750,2.5166015625,320.4193115234,44.8455810547,271.5606689453
2.4875288010,-0.0864257812,7.0996093750,2.5166015625,320.4193115234,44.8455810547,271.5606689453
2.4901018143,-4.6503906250,7.3984375000,-3.0000000000,-266.9677734375,243.2098388672,382.2326660156
2.4926688671,-4.6503906250,7.3984375000,-3.0000000000,-266.9677734375,243.2098388672,382.2326660156
2.4952437878,-4.6503906250,7.3984375000,-3.0000000000,171.0510253906,0.6103515625,332.2601318359
2.4979319572,-4.6503906250,7.3984375000,1.3012695312,171.0510253906,0.6103515625,332.2601318359
2.5006408691,-9.1074218750,-5.3168945312,1.3012695312,245.1171875000,-8.6517333984,251.5869140625
2.5032207966,-9.1074218750,-5.3168945312,1.3012695312,245.1171875000,-8.6517333984,251.5869140625
2.5057938099,-9.1074218750,-5.3168945312,1.3012695312,-148.2543945312,-70.8618164062,105.4534912109
2.5086050034,-9.1074218750,-7.0942382812,2.2192382812,-148.2543945312,-70.8618164062,105.4534912109
2.5127518177,-4.4243164062,-7.0942382812,2.2192382812,-65.9027099609,-65.8874511719,128.7689208984
2.5153269768,-4.4243164062,-7.0942382812,2.2192382812,-65.9027099609,-65.8874511719,128.7689208984
2.5179708004,-4.4243164062,-7.0942382812,0.8442382812,68.9086914062,12.2375488281,245.5902099609
2.5205388069,-2.2617187500,1.1088867188,0.8593750000,68.9086914062,12.2375488281,245.5902099609
2.5231108665,-2.2617187500,1.1088867188,0.8593750000,-33.4167480469,-30.7159423828,262.8173828125
2.5256788731,-2.2617187500,1.1088867188,0.8593750000,-33.4167480469,-30.7159423828,262.8173828125
2.5282599926,-2.2617187500,1.1088867188,-1.7934570312,-93.7652587891,-63.0493164062,248.8861083984
2.5308268070,-1.2983398438,3.5639648438,-1.7934570312,-93.7652587891,-63.0493164062,248.8861083984
2.5333969593,-1.2983398438,3.5639648438,-1.7934570312,-37.9180908203,-76.4617919922,191.8487548828
2.5360009670,-1.2983398438,3.5639648438,-1.7934570312,-37.9180908203,-76.4617919922,191.8487548828
2.5386559963,-1.2983398438,0.3139648438,-1.7407226562,21.1944580078,-72.6013183594,132.4157714844
2.5413358212,0.1220703125,0.2519531250,-1.7407226562,21.1944580078,-72.6013183594,132.4157714844
2.5439109802,0.1220703125,0.2519531250,-1.7407226562,14.1143798828,-45.9594726562,105.1177978516
2.5465478897,0.1220703125,0.2519531250,-1.7407226562,14.1143798828,-45.9594726562,105.1177978516
2.5491240025,0.1220703125,1.0395507812,-1.4848632812,-1.5106201172,-19.1345214844,67.8253173828
2.5516989231,0.1201171875,1.0395507812,-1.4848632812,-3.0670166016,-19.1345214844,67.8253173828
2.5542709827,0.1201171875,1.0395507812,-1.4848632812,-3.0670166016,-3.5095214844,37.4908447266
2.5569570065,0.1201171875,1.0395507812,-1.4848632812,-32.0892333984,-2.0904541016,37.4908447266
2.5595338345,-0.8662109375,0.5717773438,-0.3803710938,-32.0892333984,-2.0904541016,20.4620361328
2.5621049404,-0.8662109375,0.5717773438,-0.3803710938,-70.4803466797,0.9460449219,20.4620361328
2.5646789074,-0.8662109375,0.5717773438,-0.3803710938,-70.4803466797,0.9460449219,11.7797851562
2.5674169064,-0.8662109375,0.5717773438,-0.3803710938,-91.9952392578,5.7678222656,11.7797851562
2.5701220036,-0.6093750000,0.5170898438,1.0415039062,-91.9952392578,5.7678222656,9.6282958984
2.5728228092,-0.6093750000,0.5170898438,1.0415039062,-82.3059082031,-3.7231445312,9.6282958984
2.5755219460,-0.6093750000,0.5170898438,1.0415039062,-82.3059082031,-3.7231445312,-1.8920898438
2.5782678127,-0.6093750000,0.5170898438,1.0415039062,-67.3675537109,-17.2119140625,-1.8920898438
2.5809738636,-0.7290039062,0.5927734375,0.7197265625,-67.3675537109,-17.2119140625,-18.0969238281
2.5836799145,-0.7290039062,0.5927734375,0.7197265625,-40.6494140625,-11.9018554688,-18.0969238281
2.5863759518,-0.7290039062,0.5927734375,0.7197265625,-40.6494140625,-11.9018554688,-29.8156738281
2.5889489651,-0.7290039062,0.5927734375,-0.1894531250,-20.4315185547,-3.7078857422,-28.0609130859
2.5915207863,-1.3061523438,0.5629882812,-0.1894531250,-20.4315185547,-3.7078857422,-28.0609130859
2.5940949917,-1.3061523438,0.5629882812,-0.1894531250,-18.5089111328,4.2266845703,-33.4167480469
2.5966989994,-1.3061523438,0.5629882812,-0.1894531250,-18.5089111328,4.2266845703,-33.4167480469
2.5994088650,-1.3061523438,0.5463867188,-0.4331054688,-20.7366943359,11.3525390625,-33.9508056641
2.6021389961,-0.9389648438,0.5463867188,-0.4331054688,-20.7366943359,11.3525390625,-33.9508056641
2.6048278809,-0.9389648438,0.5463867188,-0.4331054688,-25.0091552734,15.0146484375,-35.8734130859
2.6076037884,-0.9389648438,0.5463867188,-0.4331054688,-25.0091552734,15.0146484375,-35.8734130859
2.6102728844,-0.5146484375,0.3398437500,-0.1943359375,-28.9306640625,14.5721435547,-35.6903076172
2.6131958961,-0.5146484375,0.3398437500,-0.1943359375,-28.9306640625,14.5721435547,-35.6903076172
2.6159110069,-0.5146484375,0.3398437500,-0.1943359375,-32.3028564453,14.8315429688,-34.1339111328
2.6186618805,-0.5146484375,0.3398437500,-0.1943359375,-32.3028564453,14.8315429688,-34.1339111328
2.6213698387,-0.5097656250,0.4682617188,-0.0029296875,-34.7747802734,15.5792236328,-35.2630615234
2.6240758896,-0.5097656250,0.4682617188,-0.0029296875,-34.7747802734,15.5792236328,-35.2630615234
2.6267888546,-0.5097656250,0.4682617188,-0.0029296875,-34.7137451172,14.2974853516,-40.3289794922
2.6294949055,-0.5097656250,0.4682617188,0.0244140625,-34.7137451172,14.2974853516,-40.3289794922
2.6322028637,-0.8012695312,0.4487304688,0.0244140625,-30.9295654297,12.4511718750,-45.5169677734
2.6349198818,-0.8012695312,0.4487304688,0.0244140625,-30.9295654297,12.4511718750,-45.5169677734
2.6375918388,-0.8012695312,0.4487304688,0.0244140625,-24.2919921875,9.8419189453,-49.5147705078
2.6401679516,-0.8012695312,0.2646484375,-0.0219726562,-24.2919921875,9.8419189453,-49.5147705078
2.6427488327,-0.8432617188,0.2646484375,-0.0219726562,-17.1356201172,6.4697265625,-52.2003173828
2.6453249454,-0.8432617188,0.2646484375,-0.0219726562,-17.1356201172,6.4697265625,-52.2003173828
2.6479589939,-0.8432617188,0.2646484375,-0.0219726562,-12.9089355469,2.8839111328,-52.8869628906
2.6505339146,-0.7451171875,0.1943359375,-0.0551757812,-12.9089355469,2.8839111328,-52.8869628906
2.6531069279,-0.7451171875,0.1943359375,-0.0551757812,-13.2446289062,0.3814697266,-52.2613525391
2.6556909084,-0.7451171875,0.1943359375,-0.0551757812,-13.2446289062,0.3814697266,-52.2613525391
2.6583077908,-0.7451171875,0.1943359375,-0.0551757812,-14.2364501953,-2.2430419922,-52.9937744141
2.6608839035,-0.6967773438,0.3520507812,-0.0405273438,-14.2364501953,-2.2430419922,-52.9937744141
2.6634638309,-0.6967773438,0.3520507812,-0.0405273438,-14.2364501953,-4.0283203125,-54.4738769531
2.6661019325,-0.6967773438,0.3520507812,-0.0405273438,-14.4653320312,-4.0283203125,-54.4738769531
2.6689419746,-0.6967773438,0.3520507812,-0.0405273438,-14.1906738281,-5.4016113281,-56.5032958984
2.6716477871,-0.7138671875,0.3720703125,-0.0336914062,-14.1906738281,-5.4016113281,-56.5032958984
2.6743559837,-0.7138671875,0.3720703125,-0.0336914062,-14.1906738281,-4.8217773438,-58.8836669922
2.6770780087,-0.7138671875,0.3720703125,-0.0336914062,-13.0615234375,-4.8217773438,-58.8836669922
2.6797869205,-0.7138671875,0.3720703125,0.0244140625,-9.1552734375,-4.2572021484,-60.7452392578
2.6824920177,-0.7236328125,0.2456054688,0.0244140625,-10.8642578125,-4.2572021484,-60.7452392578
2.6852009296,-0.7236328125,0.2456054688,0.0244140625,-10.8642578125,-3.9520263672,-62.4542236328
2.6878228188,-0.7236328125,0.2456054688,0.0244140625,-9.7351074219,-3.9520263672,-62.4542236328
2.6903929710,-0.7236328125,0.2666015625,0.0712890625,-9.7351074219,-3.9520263672,-64.8193359375
2.6929619312,-0.7109375000,0.2666015625,0.0712890625,-8.4228515625,-4.1961669922,-64.8193359375
2.6955318451,-0.7109375000,0.2666015625,0.0712890625,-8.4228515625,-4.1961669922,-67.4285888672
2.6982839108,-0.7109375000,0.2666015625,0.0712890625,-6.6070556641,-4.1503906250,-67.4285888672
2.7009828091,-0.6855468750,0.4155273438,0.0419921875,-6.6070556641,-4.1503906250,-70.8923339844
2.7036869526,-0.6855468750,0.4155273438,0.0419921875,-5.2185058594,-4.2877197266,-70.8923339844
2.7064368725,-0.6855468750,0.4155273438,0.0419921875,-5.2185058594,-4.2877197266,-75.8819580078
2.7091429234,-0.6855468750,0.4155273438,0.0419921875,-3.0822753906,-3.4942626953,-75.8819580078
2.7118458748,-0.6938476562,0.4604492188,-0.0048828125,-3.0822753906,-3.4942626953,-80.9783935547
2.7145359516,-0.6938476562,0.4604492188,-0.0048828125,1.0375976562,-2.8686523438,-80.9783935547
2.7172529697,-0.6938476562,0.4604492188,-0.0048828125,1.0375976562,-2.8686523438,-86.2426757812
2.7199628353,-0.6938476562,0.4604492188,0.1201171875,6.0729980469,-3.4332275391,-86.2426757812
2.7229328156,-0.7089843750,0.4243164062,0.0009765625,6.0729980469,-7.3394775391,-90.6219482422
2.7260549068,-0.7089843750,0.4243164062,0.0009765625,11.3677978516,-4.4403076172,-90.6219482422
2.7286310196,-0.7089843750,0.4243164062,0.0009765625,11.3677978516,-5.3405761719,-95.5963134766
2.7312068939,-0.7475585938,0.3388671875,0.0341796875,16.8457031250,-5.3405761719,-95.5963134766
2.7338960171,-0.7475585938,0.3388671875,0.0341796875,16.8457031250,-5.3405761719,-100.5401611328
2.7364978790,-0.7475585938,0.3388671875,0.0341796875,20.1110839844,-7.2174072266,-100.5401611328
2.7392079830,-0.7475585938,0.3388671875,0.0341796875,20.1110839844,-11.1236572266,-104.8736572266
2.7419228554,-0.7924804688,0.3867187500,0.0004882812,21.2097167969,-8.9263916016,-104.8736572266
2.7446279526,-0.7924804688,0.3867187500,0.0004882812,21.2097167969,-8.9263916016,-108.0017089844
2.7473537922,-0.7924804688,0.3867187500,0.0004882812,22.4914550781,-10.5285644531,-108.0017089844
2.7500598431,-0.7924804688,0.3867187500,0.0004882812,22.4914550781,-14.4348144531,-108.7951660156
2.7527718544,-0.8750000000,0.4658203125,-0.0434570312,23.3154296875,-12.0391845703,-108.7951660156
2.7554869652,-0.8750000000,0.4658203125,-0.0434570312,23.3154296875,-12.0391845703,-108.3374023438
2.7580869198,-0.8750000000,0.4658203125,-0.0434570312,26.8249511719,-12.8479003906,-108.3374023438
2.7606649399,-0.8750000000,0.4658203125,-0.1142578125,26.8249511719,-12.8479003906,-104.4311523438
2.7632489204,-0.8505859375,0.3872070312,-0.1142578125,30.2429199219,-13.0767822266,-103.7597656250
2.7658259869,-0.8505859375,0.3872070312,-0.1142578125,30.2429199219,-13.0767822266,-103.7597656250
2.7684199810,-0.8505859375,0.3872070312,-0.1142578125,25.6195068359,-14.0533447266,-95.3521728516
2.7710018158,-0.8505859375,0.2622070312,-0.1083984375,25.6195068359,-14.0533447266,-95.3521728516
2.7735779285,-0.7695312500,0.3579101562,-0.1083984375,17.3645019531,-13.9312744141,-83.9080810547
2.7763459682,-0.7695312500,0.3579101562,-0.1083984375,17.3645019531,-13.9312744141,-83.9080810547
2.7789249420,-0.7695312500,0.3579101562,-0.1083984375,9.6740722656,-10.8642578125,-72.7081298828
2.7814998627,-0.7695312500,0.2592773438,-0.1835937500,9.6740722656,-10.8642578125,-72.7081298828
2.7840797901,-0.8071289062,0.2592773438,-0.1835937500,-0.4425048828,-8.4991455078,-61.6607666016
2.7867980003,-0.8071289062,0.2592773438,-0.1835937500,-0.4425048828,-8.4991455078,-61.6607666016
2.7895028591,-0.8071289062,0.2592773438,-0.1835937500,-14.2669677734,-5.4168701172,-47.1191406250
2.7922039032,-1.0014648438,0.3833007812,-0.3447265625,-14.2669677734,-5.4168701172,-47.1191406250
2.7949140072,-1.0014648438,0.3833007812,-0.3447265625,-24.2004394531,3.4332275391,-22.3388671875
2.7977747917,-1.0014648438,0.3833007812,-0.3447265625,-24.2004394531,3.4332275391,-22.3388671875
2.8004798889,-1.0014648438,0.3833007812,-0.3447265625,-40.6646728516,13.1530761719,2.3651123047
2.8031818867,-1.1196289062,1.0322265625,-0.4829101562,-40.6646728516,13.1530761719,2.3651123047
2.8058907986,-1.1196289062,1.0322265625,-0.4829101562,-70.3430175781,17.9443359375,19.7601318359
2.8086009026,-1.1196289062,1.0322265625,-0.4829101562,-70.3430175781,17.9443359375,19.7601318359
2.8113198280,-1.1196289062,1.1572265625,-0.1855468750,-90.9576416016,23.3306884766,27.9846191406
2.8140249252,-0.9306640625,1.1850585938,-0.1855468750,-90.9576416016,23.3306884766,27.9846191406
2.8167428970,-0.9306640625,1.1850585938,-0.1855468750,-99.5941162109,28.7628173828,33.4625244141
2.8194589615,-0.9306640625,1.1850585938,-0.1855468750,-99.5941162109,28.7628173828,33.4625244141
2.8221678734,-0.6142578125,0.7187500000,-0.0678710938,-110.9771728516,31.8756103516,44.6929931641
2.8248798847,-0.6142578125,0.7187500000,-0.0678710938,-110.9771728516,31.8756103516,44.6929931641
2.8275218010,-0.6142578125,0.7187500000,-0.0678710938,-126.3427734375,34.2407226562,55.6793212891
2.8301010132,-0.6142578125,0.7187500000,-0.0678710938,-126.3427734375,34.2407226562,55.6793212891
2.8326838017,-0.4296875000,0.1962890625,-0.1225585938,-135.9710693359,36.2396240234,61.5692138672
2.8352608681,-0.4296875000,0.1962890625,-0.1225585938,-135.9710693359,36.2396240234,61.5692138672
2.8379499912,-0.4296875000,0.1962890625,-0.1225585938,-136.7950439453,38.1469726562,63.7664794922
2.8406589031,-0.4296875000,0.1962890625,-0.1225585938,-136.7950439453,38.1469726562,63.7664794922
2.8434398174,-0.2773437500,-0.0673828125,-0.2041015625,-131.8359375000,39.1540527344,62.5457763672
2.8465979099,-0.2773437500,-0.0673828125,-0.2041015625,-131.8359375000,39.1540527344,62.5457763672
2.8493130207,-0.2773437500,-0.0673828125,-0.2041015625,-124.2065429688,39.6881103516,57.6629638672
2.8520228863,-0.2773437500,-0.2285156250,-0.1752929688,-124.2065429688,39.6881103516,57.6629638672
2.8547329903,-0.1318359375,-0.2285156250,-0.1752929688,-115.9973144531,40.2832031250,49.4842529297
2.8574478626,-0.1318359375,-0.2285156250,-0.1752929688,-115.9973144531,40.2832031250,49.4842529297
2.8601579666,-0.1318359375,-0.2285156250,-0.1752929688,-110.4125976562,40.1763916016,37.7960205078
2.8629808426,-0.0322265625,-0.3540039062,0.0659179688,-110.4125976562,40.1763916016,37.7960205078
2.8656938076,-0.0322265625,-0.3540039062,0.0659179688,-109.5733642578,34.4390869141,22.6287841797
2.8684558868,-0.0322265625,-0.3540039062,0.0659179688,-109.5733642578,34.4390869141,22.6287841797
2.8711738586,-0.0322265625,-0.3540039062,0.0659179688,-122.0855712891,29.8156738281,1.1291503906
2.8738789558,-0.0942382812,-0.6542968750,0.1962890625,-122.0855712891,29.8156738281,1.1291503906
2.8765718937,-0.0942382812,-0.6542968750,0.1962890625,-123.0010986328,36.4837646484,-19.3023681641
2.8791458607,-0.0942382812,-0.6542968750,0.1962890625,-123.0010986328,36.4837646484,-19.3023681641
2.8817229271,-0.0942382812,-0.6542968750,-0.1855468750,-109.0240478516,40.3900146484,-31.4025878906
2.8843019009,-0.3164062500,-0.8569335938,-0.1855468750,-109.0240478516,40.3900146484,-31.4025878906
2.8868889809,-0.3164062500,-0.8569335938,-0.1855468750,-109.5733642578,29.6783447266,-42.3736572266
2.8894758224,-0.3164062500,-0.8569335938,-0.1855468750,-109.5733642578,29.6783447266,-42.3736572266
2.8920509815,-0.3164062500,-0.8569335938,0.1552734375,-105.6671142578,19.5465087891,-51.4526367188
2.8946309090,-0.3374023438,-0.4926757812,0.1552734375,-105.6365966797,19.5465087891,-51.4526367188
2.8973670006,-0.3374023438,-0.4926757812,0.1552734375,-105.6365966797,19.5770263672,-59.8144531250
2.8999450207,-0.3374023438,-0.4926757812,0.1552734375,-78.0334472656,19.5770263672,-59.8144531250
2.9025189877,-0.3374023438,-0.4433593750,0.3676757812,-78.0334472656,15.6707763672,-64.4378662109
2.9050989151,-0.6748046875,-0.4433593750,0.3676757812,-49.1485595703,18.5546875000,-64.4378662109
2.9077849388,-0.6748046875,-0.4433593750,0.3676757812,-49.1485595703,18.5546875000,-65.0482177734
2.9105238914,-0.6748046875,-0.4433593750,0.3676757812,-37.6739501953,9.9487304688,-65.0482177734
2.9130969048,-0.7753906250,0.0063476562,0.6054687500,-37.6739501953,9.9487304688,-61.1419677734
2.9156699181,-0.7753906250,0.0063476562,0.6054687500,-36.7279052734,-1.2512207031,-61.8591308594
2.9183399677,-0.7753906250,0.0063476562,0.6054687500,-36.7279052734,-1.2512207031,-61.8591308594
2.9209129810,-0.7753906250,0.0063476562,0.6054687500,-34.4085693359,-11.2304687500,-53.1616210938
2.9241018295,-1.0673828125,0.0122070312,0.7319335938,-34.4085693359,-11.2304687500,-48.4008789062
2.9268178940,-1.0673828125,0.0122070312,0.7319335938,-26.8554687500,-16.8914794922,-48.4008789062
2.9293909073,-1.0673828125,0.0122070312,0.7319335938,-26.8554687500,-16.8914794922,-48.4008789062
2.9319648743,-1.0673828125,0.0122070312,0.7319335938,-6.2866210938,-21.2554931641,-50.0183105469
2.9345288277,-1.1811523438,-0.1899414062,0.5585937500,-6.2866210938,-21.2554931641,-50.0183105469
2.9371018410,-1.1811523438,-0.1899414062,0.5585937500,15.1672363281,-21.9879150391,-47.6531982422
2.9396719933,-1.1811523438,-0.1899414062,0.5585937500,15.1672363281,-21.9879150391,-47.6531982422
2.9422388077,-1.1811523438,-0.1899414062,0.3085937500,19.9127197266,-22.4304199219,-41.7175292969
2.9448089600,-0.9560546875,-0.0751953125,0.2563476562,19.9127197266,-22.4304199219,-41.7175292969
2.9474380016,-0.9560546875,-0.0751953125,0.2563476562,24.7192382812,-20.6298828125,-36.4532470703
2.9500138760,-0.9560546875,-0.0751953125,0.2563476562,24.7192382812,-20.6298828125,-36.4532470703
2.9525899887,-0.9560546875,-0.0751953125,-0.1796875000,28.2592773438,-12.8021240234,-33.7677001953
2.9551608562,-0.9462890625,0.0913085938,-0.1796875000,28.2592773438,-12.8021240234,-33.7677001953
2.9577798843,-0.9462890625,0.0913085938,-0.1796875000,23.3917236328,-3.7078857422,-28.4118652344
2.9603528976,-0.9462890625,0.0913085938,-0.1796875000,23.3917236328,-3.7078857422,-28.4118652344
2.9629249573,-0.9462890625,0.2163085938,-0.4321289062,10.7879638672,3.0517578125,-19.7143554688
2.9654939175,-0.9208984375,0.1777343750,-0.4321289062,10.7879638672,3.0517578125,-19.7143554688
2.9681298733,-0.9208984375,0.1777343750,-0.4321289062,10.7879638672,7.2479248047,-11.9781494141
2.9707059860,-0.9208984375,0.1777343750,-0.4321289062,-4.7912597656,7.2479248047,-11.9781494141
2.9732778072,-0.9208984375,0.1113281250,-0.3115234375,-4.7912597656,7.2479248047,-5.6915283203
2.9758408070,-0.7866210938,0.1113281250,-0.3115234375,-18.1579589844,7.9803466797,-5.6915283203
2.9785048962,-0.7866210938,0.1113281250,-0.3115234375,-18.1579589844,7.9803466797,-1.4038085938
2.9810769558,-0.7866210938,0.1113281250,-0.3115234375,-28.1524658203,5.6304931641,-1.4038085938
2.9836499691,-0.8740234375,0.0615234375,-0.1293945312,-28.1524658203,5.6304931641,-1.4038085938
2.9862709045,-0.8740234375,0.0615234375,-0.1293945312,-30.3955078125,4.5166015625,0.9918212891
2.9890809059,-0.8740234375,0.0615234375,-0.1293945312,-30.3955078125,4.5166015625,0.9918212891
2.9917848110,-0.8740234375,0.0615234375,-0.1293945312,-31.5093994141,3.2043457031,3.0670166016
2.9944930077,-0.9375000000,0.1000976562,-0.0507812500,-31.5093994141,3.2043457031,6.9732666016
2.9972410202,-0.9375000000,0.1000976562,-0.0507812500,-32.9895019531,0.6408691406,5.5389404297
2.9999418259,-0.9375000000,0.1000976562,-0.0507812500,-32.9895019531,0.6408691406,5.5389404297
3.0026497841,-0.9375000000,0.1000976562,-0.0507812500,-29.3884277344,-2.8839111328,5.6152343750
3.0053529739,-0.8437500000,0.2060546875,-0.0302734375,-29.3884277344,-2.8839111328,1.7089843750
3.0080709457,-0.8437500000,0.2060546875,-0.0302734375,-24.4750976562,-5.6457519531,3.2348632812
3.0107779503,-0.8437500000,0.2060546875,-0.0302734375,-24.4750976562,-5.6457519531,3.2348632812
3.0134418011,-0.8437500000,0.2060546875,-0.0976562500,-21.0876464844,-7.0495605469,0.8697509766
3.0161218643,-0.7822265625,0.2412109375,-0.0976562500,-21.0876464844,-7.0495605469,0.8697509766
3.0188078880,-0.7822265625,0.2412109375,-0.0976562500,-17.0135498047,-8.7127685547,-0.5493164062
3.0222449303,-0.7822265625,0.2412109375,-0.0976562500,-17.0135498047,-8.7127685547,-2.8991699219
3.0248198509,-0.7587890625,0.2661132812,-0.0385742188,-12.3748779297,-9.7198486328,-2.8991699219
3.0274519920,-0.7587890625,0.2661132812,-0.0385742188,-12.3748779297,-9.7198486328,-5.5236816406
3.0300259590,-0.7587890625,0.2661132812,-0.0385742188,-8.2092285156,-9.8571777344,-5.5236816406
3.0325949192,-0.7587890625,0.2661132812,-0.0385742188,-8.2092285156,-9.8571777344,-5.5236816406
3.0351529121,-0.7094726562,0.2290039062,0.0683593750,-5.8898925781,-8.8195800781,-7.8277587891
3.0378258228,-0.7094726562,0.2290039062,0.0683593750,-5.8898925781,-8.8195800781,-7.8277587891
3.0403888226,-0.7094726562,0.2290039062,0.0683593750,-4.9591064453,-7.1563720703,-9.4757080078
3.0429608822,-0.7094726562,0.2290039062,0.0683593750,-4.9591064453,-7.1563720703,-9.4757080078
3.0455219746,-0.7465820312,0.1455078125,0.1005859375,-4.4097900391,-6.3476562500,-11.3220214844
3.0481498241,-0.7465820312,0.1455078125,0.1005859375,-4.4097900391,-6.3476562500,-11.3220214844
3.0507199764,-0.7465820312,0.1455078125,0.1005859375,-4.6386718750,-5.4626464844,-11.4898681641
3.0533878803,-0.7465820312,0.1455078125,0.1005859375,-4.6386718750,-5.4626464844,-11.4898681641
3.0559828281,-0.7817382812,0.0917968750,0.0346679688,-5.8898925781,-5.1727294922,-10.9100341797
3.0585718155,-0.7817382812,0.0917968750,0.0346679688,-5.8898925781,-5.1727294922,-10.9100341797
3.0611388683,-0.7817382812,0.0917968750,0.0346679688,-7.2479248047,-5.0811767578,-10.2691650391
3.0637118816,-0.7817382812,0.0917968750,0.0063476562,-7.2479248047,-5.0811767578,-10.2691650391
3.0663969517,-0.7744140625,0.1352539062,0.0063476562,-7.6751708984,-4.8065185547,-9.6740722656
3.0689649582,-0.7744140625,0.1352539062,0.0063476562,-7.6751708984,-4.8065185547,-9.6740722656
3.0715339184,-0.7744140625,0.1352539062,0.0063476562,-7.6751708984,-5.3710937500,-9.6282958984
3.0740978718,-0.7744140625,0.1352539062,-0.0009765625,-6.9885253906,-5.3710937500,-9.6282958984
3.0767798424,-0.7666015625,0.1630859375,-0.0009765625,-6.9885253906,-5.3710937500,-9.8419189453
3.0793488026,-0.7666015625,0.1630859375,-0.0009765625,-6.0272216797,-6.6375732422,-9.8419189453
3.0819079876,-0.7666015625,0.1630859375,-0.0009765625,-6.0272216797,-6.6375732422,-10.4675292969
3.0844779015,-0.7666015625,0.1333007812,0.0073242188,-5.2795410156,-7.5225830078,-10.4675292969
3.0871458054,-0.7294921875,0.1333007812,0.0073242188,-5.2795410156,-7.5225830078,-10.4675292969
3.0897169113,-0.7294921875,0.1333007812,0.0073242188,-4.7302246094,-7.7667236328,-10.6964111328
3.0922899246,-0.7294921875,0.1333007812,0.0073242188,-4.7302246094,-7.7667236328,-10.6964111328
3.0948538780,-0.7485351562,0.0541992188,0.0434570312,-4.6234130859,-8.0718994141,-10.3912353516
3.0974338055,-0.7485351562,0.0541992188,0.0434570312,-4.6234130859,-8.0718994141,-10.3912353516
3.1000068188,-0.7485351562,0.0541992188,0.0434570312,-7.0495605469,-8.6364746094,-9.6893310547
3.1025698185,-0.7485351562,0.0541992188,0.0434570312,-7.0495605469,-8.6364746094,-9.6893310547
3.1051378250,-0.7456054688,0.0244140625,0.0512695312,-10.6811523438,-8.7127685547,-8.6059570312
3.1077508926,-0.7456054688,0.0244140625,0.0512695312,-10.6811523438,-8.7127685547,-8.6059570312
3.1103208065,-0.7456054688,0.0244140625,0.0512695312,-10.8947753906,-7.8277587891,-7.1563720703
3.1128878593,-0.7456054688,0.0244140625,0.0512695312,-10.8947753906,-7.8277587891,-7.1563720703
3.1156649590,-0.7099609375,0.1914062500,0.0288085938,-9.6893310547,-7.9193115234,-7.8430175781
3.1183228493,-0.7099609375,0.1914062500,0.0288085938,-9.6893310547,-7.9193115234,-7.8430175781
3.1208829880,-0.7099609375,0.1914062500,0.0288085938,-7.0037841797,-8.5754394531,-10.5895996094
3.1240429878,-0.7099609375,0.1914062500,-0.0961914062,-7.0037841797,-8.5754394531,-10.5895996094
3.1266520023,-0.6997070312,0.2172851562,-0.0205078125,-5.6152343750,-8.2550048828,-13.1988525391
3.1292150021,-0.6997070312,0.2172851562,-0.0205078125,-5.6152343750,-8.2550048828,-13.1988525391
3.1317780018,-0.6997070312,0.2172851562,-0.0205078125,-8.3007812500,-7.5073242188,-14.6789550781
3.1343419552,-0.6997070312,0.2172851562,0.0004882812,-8.3007812500,-7.5073242188,-14.6789550781
3.1369178295,-0.7031250000,0.1718750000,0.0004882812,-8.3007812500,-7.0190429688,-16.0675048828
3.1394817829,-0.7031250000,0.1718750000,0.0004882812,-9.7656250000,-7.0190429688,-16.0675048828
3.1420428753,-0.7031250000,0.1718750000,0.0004882812,-9.7656250000,-7.0190429688,-16.7541503906
3.1446089745,-0.7031250000,0.1718750000,0.0244140625,-9.9639892578,-7.3547363281,-16.7541503906
3.1472389698,-0.7163085938,0.1381835938,0.0244140625,-9.9639892578,-7.3547363281,-16.4947509766
3.1498048306,-0.7163085938,0.1381835938,0.0244140625,-10.0708007812,-7.1105957031,-16.4947509766
3.1523718834,-0.7163085938,0.1381835938,0.0244140625,-10.0708007812,-7.1105957031,-16.4947509766
3.1549448967,-0.7163085938,0.0131835938,0.0395507812,-9.9334716797,-7.2174072266,-15.9149169922
3.1575717926,-0.7241210938,0.1074218750,0.0395507812,-9.9334716797,-7.2174072266,-15.9149169922
3.1601419449,-0.7241210938,0.1074218750,0.0395507812,-9.8266601562,-7.2784423828,-14.9536132812
3.1627128124,-0.7241210938,0.1074218750,0.0395507812,-9.8266601562,-7.2784423828,-14.9536132812
3.1652870178,-0.7241210938,0.0893554688,0.0424804688,-8.9874267578,-6.8206787109,-13.9160156250
3.1679279804,-0.7304687500,0.0893554688,0.0424804688,-8.9874267578,-6.8206787109,-13.9160156250
3.1704978943,-0.7304687500,0.0893554688,0.0424804688,-9.5825195312,-6.5307617188,-12.0391845703
3.1730628014,-0.7304687500,0.0893554688,0.0424804688,-9.5825195312,-6.5307617188,-12.0391845703
3.1756358147,-0.7407226562,0.0805664062,0.0336914062,-10.6658935547,-6.5612792969,-10.0860595703
3.1783030033,-0.7407226562,0.0805664062,0.0336914062,-10.6658935547,-6.5612792969,-10.0860595703
3.1809878349,-0.7407226562,0.0805664062,0.0336914062,-11.4288330078,-6.4697265625,-8.5144042969
3.1835608482,-0.7407226562,0.0805664062,0.0336914062,-11.4288330078,-6.4697265625,-8.5144042969
3.1861999035,-0.7333984375,0.0761718750,0.0493164062,-12.2070312500,-6.9885253906,-6.9732666016
3.1889019012,-0.7333984375,0.0761718750,0.0493164062,-12.2070312500,-6.9885253906,-6.9732666016
3.1916007996,-0.7333984375,0.0761718750,0.0493164062,-11.1083984375,-6.5155029297,-5.5847167969
3.1943018436,-0.7333984375,0.0761718750,0.0493164062,-11.1083984375,-6.5155029297,-5.5847167969
3.1970520020,-0.7412109375,0.0839843750,0.0566406250,-8.5601806641,-6.0729980469,-3.9062500000
3.1997439861,-0.7412109375,0.0839843750,0.0566406250,-8.5601806641,-6.0729980469,-3.9062500000
3.2024447918,-0.7412109375,0.0839843750,0.0566406250,-6.0424804688,-5.5847167969,-2.5024414062
3.2051398754,-0.7412109375,0.0839843750,0.0629882812,-6.0424804688,-5.5847167969,-2.5024414062
3.2078478336,-0.7329101562,0.0952148438,0.0629882812,-5.1269531250,-5.0964355469,-1.0833740234
3.2105448246,-0.7329101562,0.0952148438,0.0629882812,-5.1269531250,-5.0964355469,-1.0833740234
3.2132389545,-0.7329101562,0.0952148438,0.0629882812,-5.8441162109,-4.2114257812,0.0000000000
3.2161459923,-0.7343750000,0.0756835938,0.0771484375,-5.8441162109,-4.2114257812,0.0000000000
3.2187337875,-0.7343750000,0.0756835938,0.0771484375,-5.8441162109,-3.6926269531,1.5869140625
3.2220439911,-0.7343750000,0.0756835938,0.0771484375,-5.0659179688,-3.6926269531,1.5869140625
3.2246170044,-0.7343750000,0.0756835938,0.0771484375,-5.4779052734,-2.3498535156,3.2196044922
3.2272548676,-0.7539062500,0.0610351562,0.0839843750,-5.4779052734,-2.3498535156,3.2196044922
3.2298119068,-0.7539062500,0.0610351562,0.0839843750,-6.7291259766,-0.5187988281,4.3029785156
3.2323758602,-0.7539062500,0.0610351562,0.0839843750,-6.7291259766,-0.5187988281,4.3029785156
3.2349338531,-0.7539062500,0.0610351562,0.0839843750,-6.7291259766,1.0070800781,4.6997070312
3.2375040054,-0.7675781250,0.1289062500,0.0668945312,-7.0037841797,1.0070800781,4.6997070312
3.2400658131,-0.7675781250,0.1289062500,0.0668945312,-7.0037841797,1.0070800781,4.0130615234
3.2426187992,-0.7675781250,0.1289062500,0.0668945312,-5.9204101562,1.3580322266,4.0130615234
3.2452929020,-0.7675781250,0.1289062500,0.0668945312,-5.9204101562,1.3580322266,3.6315917969
3.2478609085,-0.7460937500,0.1474609375,0.0390625000,-4.3487548828,1.0681152344,3.6315917969
3.2504239082,-0.7460937500,0.1474609375,0.0390625000,-4.3487548828,1.0681152344,3.6315917969
3.2529938221,-0.7460937500,0.1474609375,0.0390625000,-2.8991699219,1.3580322266,3.4332275391
3.2555489540,-0.7460937500,0.1474609375,0.0336914062,-2.8991699219,1.3580322266,3.4332275391
3.2581579685,-0.7338867188,0.1357421875,0.0336914062,-1.6937255859,1.2664794922,3.6621093750
3.2607169151,-0.7338867188,0.1357421875,0.0336914062,-1.6937255859,1.2664794922,3.6621093750
3.2632768154,-0.7338867188,0.1357421875,0.0336914062,-0.7171630859,0.9460449219,2.8991699219
3.2658510208,-0.7338867188,0.1357421875,0.0258789062,-0.7171630859,0.9460449219,2.8991699219
3.2685019970,-0.7211914062,0.1396484375,0.0258789062,0.1831054688,0.6408691406,2.9754638672
3.2710688114,-0.7211914062,0.1396484375,0.0258789062,0.1831054688,0.6408691406,2.9754638672
3.2736439705,-0.7211914062,0.1396484375,0.0258789062,0.1983642578,0.0915527344,2.7923583984
3.2763588428,-0.7211914062,0.1420898438,0.0170898438,0.1983642578,0.0915527344,2.7923583984
3.2790629864,-0.7153320312,0.1420898438,0.0170898438,-0.0305175781,0.1373291016,2.0599365234
3.2817618847,-0.7153320312,0.1420898438,0.0170898438,-0.0305175781,0.1373291016,2.0599365234
3.2844588757,-0.7153320312,0.1420898438,0.0170898438,-0.1373291016,0.3509521484,1.9378662109
3.2871649265,-0.7031250000,0.1523437500,0.0000000000,-0.1373291016,0.3509521484,1.9378662109
3.2898600101,-0.7031250000,0.1523437500,0.0000000000,-0.3051757812,0.4577636719,1.9073486328
3.2925579548,-0.7031250000,0.1523437500,0.0000000000,-0.3051757812,0.4577636719,1.9073486328
3.2952618599,-0.7031250000,0.1523437500,0.0000000000,-1.2359619141,0.8697509766,1.7852783203
3.2979588509,-0.7231445312,0.1064453125,0.0151367188,-1.2359619141,0.8697509766,1.7852783203
3.3006639481,-0.7231445312,0.1064453125,0.0151367188,-4.1198730469,1.3885498047,2.0599365234
3.3033609390,-0.7231445312,0.1064453125,0.0151367188,-4.1198730469,1.3885498047,2.0599365234
3.3060688972,-0.7231445312,0.1064453125,0.0473632812,-9.0179443359,1.7700195312,2.2125244141
3.3088839054,-0.7534179688,0.0683593750,0.0473632812,-9.0179443359,1.7700195312,2.2125244141
3.3115818501,-0.7534179688,0.0683593750,0.0473632812,-13.6566162109,2.0141601562,2.4414062500
3.3142859936,-0.7534179688,0.0683593750,0.0473632812,-13.6566162109,2.0141601562,2.4414062500
3.3169980049,-0.6284179688,0.1489257812,0.0517578125,-16.0675048828,2.3651123047,2.0141601562
3.3195888996,-0.7290039062,0.1489257812,0.0517578125,-16.0675048828,2.3651123047,2.0141601562
3.3221609592,-0.7290039062,0.1489257812,0.0517578125,-16.3421630859,2.3803710938,0.9155273438
3.3247299194,-0.7290039062,0.1489257812,0.0517578125,-16.3421630859,2.3803710938,0.9155273438
3.3273799419,-0.6914062500,0.2148437500,0.0253906250,-12.4359130859,1.9989013672,-0.6866455078
