# time_stamp before, Acceleration x, Acceleration y, Acceleration z, Gyro x, Gyro y, Gyro z
0.0000000000,-0.7343750000,0.2607421875,-0.0888671875,11.5051269531,-0.5187988281,12.1612548828
0.0026881695,-0.7343750000,0.2607421875,-0.0888671875,10.8032226562,-0.5187988281,12.1612548828
0.0053701401,-0.8593750000,0.2563476562,-0.0712890625,10.8032226562,0.4577636719,12.9089355469
0.0081961155,-0.7622070312,0.2563476562,-0.0712890625,7.7056884766,0.4577636719,12.9089355469
0.0108561516,-0.7622070312,0.2563476562,-0.0712890625,7.7056884766,1.6479492188,13.5650634766
0.0136539936,-0.7622070312,0.2563476562,-0.0712890625,3.6315917969,1.6479492188,13.5650634766
0.0163409710,-0.7753906250,0.2709960938,-0.0488281250,3.6315917969,2.3956298828,15.0604248047
0.0190701485,-0.7753906250,0.2709960938,-0.0488281250,1.6479492188,2.3956298828,15.0604248047
0.0217449665,-0.7753906250,0.2709960938,-0.0488281250,1.6479492188,2.9602050781,16.9830322266
0.0244240761,-0.7753906250,0.2709960938,-0.0488281250,0.0000000000,2.9602050781,16.9830322266
0.0271010399,-0.7558593750,0.2807617188,-0.0366210938,0.0000000000,6.8664550781,19.1192626953
0.0296661854,-0.7558593750,0.2807617188,-0.0366210938,-0.8087158203,4.4555664062,19.1192626953
0.0322680473,-0.7558593750,0.2807617188,-0.0366210938,-0.8087158203,4.4555664062,21.3623046875
0.0348351002,-0.7558593750,0.2807617188,-0.0366210938,-1.8920898438,5.0811767578,21.3623046875
0.0375220776,-0.7709960938,0.2646484375,-0.0083007812,-1.8920898438,5.0811767578,23.1018066406
0.0401921272,-0.7709960938,0.2646484375,-0.0083007812,-3.4027099609,4.8217773438,23.1018066406
0.0428631306,-0.7709960938,0.2646484375,-0.0083007812,-3.4027099609,4.8217773438,27.0080566406
0.0455341339,-0.7709960938,0.2744140625,0.0175781250,-3.6468505859,4.8522949219,24.9481201172
0.0482151508,-0.7817382812,0.2744140625,0.0175781250,-3.6468505859,4.8522949219,24.9481201172
0.0507860184,-0.7817382812,0.2744140625,0.0175781250,-3.0517578125,4.5776367188,27.1301269531
0.0535221100,-0.7817382812,0.2744140625,0.0175781250,-3.0517578125,4.5776367188,27.1301269531
0.0560960770,-0.7802734375,0.2832031250,0.0249023438,-1.9531250000,4.2266845703,28.9611816406
0.0587840080,-0.7802734375,0.2832031250,0.0249023438,-1.9531250000,4.2266845703,28.9611816406
0.0614840984,-0.7802734375,0.2832031250,0.0249023438,-0.1678466797,3.2196044922,30.5480957031
0.0640661716,-0.7802734375,0.2832031250,0.0249023438,-0.1678466797,3.2196044922,30.5480957031
0.0666379929,-0.7773437500,0.2861328125,0.0366210938,1.6174316406,2.0599365234,31.5704345703
0.0693030357,-0.7773437500,0.2861328125,0.0366210938,1.6174316406,2.0599365234,31.5704345703
0.0718781948,-0.7773437500,0.2861328125,0.0366210938,4.0740966797,1.3885498047,32.4707031250
0.0744481087,-0.7773437500,0.2861328125,0.0366210938,4.0740966797,1.3885498047,32.4707031250
0.0771131516,-0.7841796875,0.2768554688,0.0488281250,7.0343017578,0.4119873047,33.4472656250
0.0796930790,-0.7841796875,0.2768554688,0.0488281250,7.0343017578,0.4119873047,33.4472656250
0.0823571682,-0.7841796875,0.2768554688,0.0488281250,9.6130371094,-0.7934570312,33.9660644531
0.0849320889,-0.7841796875,0.2768554688,0.0488281250,9.6130371094,-0.7934570312,33.9660644531
0.0883300304,-0.7983398438,0.2709960938,0.0517578125,11.6882324219,-1.6174316406,33.9508056641
0.0910470486,-0.7983398438,0.2709960938,0.0517578125,11.6882324219,-1.6174316406,33.9508056641
0.0937561989,-0.7983398438,0.2709960938,0.0517578125,14.5721435547,-2.9602050781,34.5153808594
0.0964641571,-0.7836914062,0.2612304688,0.0405273438,14.5721435547,-2.9602050781,34.5153808594
0.0991821289,-0.7836914062,0.2612304688,0.0405273438,16.8609619141,-4.5928955078,34.4390869141
0.1018881798,-0.7836914062,0.2612304688,0.0405273438,16.8609619141,-4.5928955078,34.4390869141
0.1045951843,-0.7836914062,0.2612304688,0.0405273438,18.7377929688,-6.0729980469,34.0728759766
0.1073181629,-0.7456054688,0.2416992188,0.0058593750,18.7377929688,-6.0729980469,34.0728759766
0.1100289822,-0.7456054688,0.2416992188,0.0058593750,20.9197998047,-7.8582763672,33.3404541016
0.1127321720,-0.7456054688,0.2416992188,0.0058593750,20.9197998047,-7.8582763672,33.3404541016
0.1154391766,-0.7456054688,0.2416992188,0.0058593750,23.8189697266,-8.9874267578,30.2429199219
0.1182241440,-0.6997070312,0.1328125000,0.0000000000,23.8189697266,-8.9874267578,30.2429199219
0.1207990646,-0.6997070312,0.1328125000,0.0000000000,26.0925292969,-10.3302001953,25.8789062500
0.1233761311,-0.6997070312,0.1328125000,0.0000000000,26.0925292969,-10.3302001953,25.8789062500
0.1259551048,-0.6997070312,0.1328125000,0.0068359375,25.6042480469,-12.4664306641,20.9197998047
0.1285791397,-0.6713867188,-0.0180664062,0.0068359375,25.6042480469,-12.4664306641,20.9197998047
0.1311550140,-0.6713867188,-0.0180664062,0.0068359375,23.2238769531,-14.9688720703,15.9149169922
0.1337301731,-0.6713867188,-0.0180664062,0.0068359375,23.2238769531,-14.9688720703,15.9149169922
0.1363160610,-0.6713867188,-0.0341796875,-0.0029296875,19.3176269531,-16.8151855469,12.3443603516
0.1389219761,-0.6533203125,-0.0341796875,-0.0029296875,19.0277099609,-16.8151855469,12.3443603516
0.1415061951,-0.6533203125,-0.0341796875,-0.0029296875,19.0277099609,-18.2952880859,9.5214843750
0.1440789700,-0.6533203125,-0.0341796875,-0.0029296875,12.8173828125,-18.2952880859,9.5214843750
0.1466519833,-0.6533203125,-0.0092773438,0.0205078125,12.8173828125,-22.2015380859,6.4086914062
0.1494641304,-0.6508789062,-0.0092773438,0.0205078125,5.9967041016,-20.0653076172,6.4086914062
0.1521520615,-0.6508789062,-0.0092773438,0.0205078125,5.9967041016,-20.0653076172,3.1127929688
0.1548371315,-0.6508789062,-0.0092773438,0.0205078125,0.3204345703,-21.7895507812,3.1127929688
0.1575679779,-0.6665039062,-0.0405273438,0.0258789062,0.3204345703,-25.6958007812,0.1068115234
0.1602721214,-0.6665039062,-0.0405273438,0.0258789062,-4.5928955078,-23.4985351562,0.1068115234
0.1629760265,-0.6665039062,-0.0405273438,0.0258789062,-4.5928955078,-23.4985351562,-2.8533935547
0.1655859947,-0.6665039062,-0.0405273438,0.0258789062,-8.5144042969,-24.5513916016,-2.8533935547
0.1684081554,-0.6840820312,-0.0234375000,0.0156250000,-8.5144042969,-24.5513916016,-5.3863525391
0.1710791588,-0.6840820312,-0.0234375000,0.0156250000,-11.2152099609,-25.2532958984,-5.3863525391
0.1740641594,-0.6840820312,-0.0234375000,0.0156250000,-11.2152099609,-25.2532958984,-8.3618164062
0.1766381264,-0.6840820312,0.0068359375,-0.0087890625,-12.1765136719,-26.1535644531,-8.3618164062
0.1792969704,-0.6767578125,0.0068359375,-0.0087890625,-12.1765136719,-26.1535644531,-11.5966796875
0.1819860935,-0.6767578125,0.0068359375,-0.0087890625,-11.0626220703,-27.2064208984,-11.5966796875
0.1845591068,-0.6767578125,0.0068359375,-0.0087890625,-11.0626220703,-27.2064208984,-14.6026611328
0.1871900558,-0.6767578125,0.0200195312,-0.0288085938,-8.6212158203,-27.7099609375,-14.6026611328
0.1897580624,-0.6679687500,0.0200195312,-0.0288085938,-8.6212158203,-27.7099609375,-14.6026611328
0.1923251152,-0.6679687500,0.0200195312,-0.0288085938,-5.3558349609,-27.6489257812,-18.3715820312
0.1948940754,-0.6679687500,0.0200195312,-0.0288085938,-5.3558349609,-27.6489257812,-18.3715820312
0.1974840164,-0.6772460938,0.0229492188,-0.0434570312,-2.0446777344,-26.9927978516,-22.3846435547
0.2000551224,-0.6772460938,0.0229492188,-0.0434570312,-2.0446777344,-26.9927978516,-22.3846435547
0.2026281357,-0.6772460938,0.0229492188,-0.0434570312,0.3967285156,-27.1759033203,-26.1993408203
0.2052011490,-0.6772460938,0.0229492188,-0.0434570312,0.3967285156,-27.1759033203,-26.1993408203
0.2078311443,-0.6821289062,0.0380859375,-0.0634765625,2.5787353516,-27.6336669922,-30.0903320312
0.2104029655,-0.6821289062,0.0380859375,-0.0634765625,2.5787353516,-27.6336669922,-30.0903320312
0.2129771709,-0.6821289062,0.0380859375,-0.0634765625,5.5541992188,-27.4047851562,-33.8745117188
0.2155480385,-0.6821289062,0.0380859375,-0.0634765625,5.5541992188,-27.4047851562,-33.8745117188
0.2181711197,-0.6835937500,0.0234375000,-0.0703125000,7.7209472656,-26.9927978516,-36.9720458984
0.2207441330,-0.6835937500,0.0234375000,-0.0703125000,7.7209472656,-26.9927978516,-36.9720458984
0.2233161926,-0.6835937500,0.0234375000,-0.0703125000,11.6271972656,-26.8249511719,-40.6036376953
0.2258861065,-0.6835937500,0.0234375000,-0.0703125000,9.0332031250,-26.8249511719,-40.6036376953
0.2285990715,-0.6904296875,0.0141601562,-0.0795898438,9.0332031250,-26.7181396484,-44.3267822266
0.2311670780,-0.6904296875,0.0141601562,-0.0795898438,9.8571777344,-26.7181396484,-44.3267822266
0.2337369919,-0.6904296875,0.0141601562,-0.0795898438,9.8571777344,-26.7181396484,-47.9431152344
0.2363080978,-0.6904296875,0.0141601562,-0.0795898438,10.8489990234,-26.7028808594,-47.9431152344
0.2389881611,-0.6943359375,0.0131835938,-0.0927734375,10.8489990234,-26.7028808594,-51.3610839844
0.2416961193,-0.6943359375,0.0131835938,-0.0927734375,11.3067626953,-27.0690917969,-51.3610839844
0.2445139885,-0.6943359375,0.0131835938,-0.0927734375,11.3067626953,-27.0690917969,-54.7943115234
0.2472691536,-0.6943359375,0.0131835938,-0.1040039062,11.5051269531,-26.9927978516,-54.7943115234
0.2499799728,-0.6977539062,0.0097656250,-0.1040039062,11.5051269531,-26.9927978516,-58.1817626953
0.2526881695,-0.6977539062,0.0097656250,-0.1040039062,11.9781494141,-26.6571044922,-58.1817626953
0.2553961277,-0.6977539062,0.0097656250,-0.1040039062,11.9781494141,-26.6571044922,-61.3098144531
0.2581191063,-0.7133789062,0.0205078125,-0.1049804688,11.0015869141,-26.4129638672,-61.3098144531
0.2608320713,-0.7133789062,0.0205078125,-0.1049804688,11.0015869141,-26.4129638672,-64.1784667969
0.2635431290,-0.7133789062,0.0205078125,-0.1049804688,10.2233886719,-26.6723632812,-64.1784667969
0.2663681507,-0.7133789062,0.0205078125,-0.1049804688,10.2233886719,-26.6723632812,-67.1234130859
0.2691860199,-0.7324218750,0.0439453125,-0.1137695312,9.7961425781,-26.3519287109,-67.1234130859
0.2718591690,-0.7324218750,0.0439453125,-0.1137695312,9.7961425781,-26.1535644531,-69.3511962891
0.2747430801,-0.7324218750,0.0439453125,-0.1137695312,9.1857910156,-26.1535644531,-69.3511962891
0.2774381638,-0.7324218750,0.0439453125,-0.1108398438,9.1857910156,-26.1535644531,-72.0367431641
0.2800180912,-0.7524414062,0.0512695312,-0.1108398438,8.4228515625,-26.1535644531,-72.0367431641
0.2825970650,-0.7524414062,0.0512695312,-0.1108398438,8.4228515625,-26.1535644531,-74.7680664062
0.2851719856,-0.7524414062,0.0512695312,-0.1108398438,7.3242187500,-25.9552001953,-74.7680664062
0.2877511978,-0.7524414062,0.0405273438,-0.1079101562,7.3242187500,-25.9552001953,-74.7680664062
0.2903320789,-0.7636718750,0.0405273438,-0.1079101562,5.2490234375,-25.8941650391,-77.3773193359
0.2929010391,-0.7636718750,0.0405273438,-0.1079101562,5.2490234375,-25.8941650391,-77.3773193359
0.2954771519,-0.7636718750,0.0405273438,-0.1079101562,4.2724609375,-25.4058837891,-79.3609619141
0.2980580330,-0.7636718750,0.0488281250,-0.1162109375,4.2724609375,-25.4058837891,-79.3609619141
0.3006291389,-0.7817382812,0.0488281250,-0.1162109375,3.0059814453,-25.1617431641,-81.0699462891
0.3032109737,-0.7817382812,0.0488281250,-0.1162109375,3.0059814453,-25.1617431641,-81.0699462891
0.3057820797,-0.7817382812,0.0488281250,-0.1162109375,0.3356933594,-24.5208740234,-82.9467773438
0.3085319996,-0.7973632812,0.0585937500,-0.1152343750,0.3356933594,-24.5208740234,-82.9467773438
0.3111081123,-0.7973632812,0.0585937500,-0.1152343750,-1.8310546875,-23.7579345703,-84.3353271484
0.3136820793,-0.7973632812,0.0585937500,-0.1152343750,-1.8310546875,-23.7579345703,-84.3353271484
0.3162570000,-0.7973632812,0.0585937500,-0.1152343750,-3.9215087891,-23.2086181641,-85.4949951172
0.3189411163,-0.8144531250,0.0786132812,-0.1215820312,-3.9215087891,-23.2086181641,-85.4949951172
0.3215081692,-0.8144531250,0.0786132812,-0.1215820312,-6.0272216797,-23.5443115234,-87.1429443359
0.3240849972,-0.8144531250,0.0786132812,-0.1215820312,-6.0272216797,-23.5443115234,-87.1429443359
0.3266520500,-0.8144531250,0.0786132812,-0.1215820312,-9.9334716797,-22.9492187500,-88.4094238281
0.3293650150,-0.8120117188,0.0815429688,-0.1137695312,-8.6517333984,-22.9492187500,-88.4094238281
0.3319439888,-0.8120117188,0.0815429688,-0.1137695312,-8.6517333984,-22.9492187500,-88.7756347656
0.3345119953,-0.8120117188,0.0815429688,-0.1137695312,-11.9018554688,-21.9726562500,-88.7756347656
0.3370921612,-0.8120117188,0.0815429688,-0.1137695312,-11.9018554688,-21.9726562500,-89.1876220703
0.3398041725,-0.8178710938,0.0981445312,-0.1293945312,-15.8386230469,-21.1334228516,-89.1876220703
0.3425180912,-0.8178710938,0.0981445312,-0.1293945312,-15.8386230469,-21.1334228516,-89.7521972656
0.3452291489,-0.8178710938,0.0981445312,-0.1293945312,-18.6614990234,-19.9432373047,-89.7521972656
0.3479499817,-0.8178710938,0.0981445312,-0.1171875000,-18.6614990234,-19.9432373047,-90.4998779297
0.3506569862,-0.8076171875,0.1289062500,-0.1171875000,-20.3552246094,-19.2413330078,-90.4998779297
0.3533701897,-0.8076171875,0.1289062500,-0.1171875000,-20.3552246094,-19.2413330078,-91.1254882812
0.3560841084,-0.8076171875,0.1289062500,-0.1171875000,-21.3165283203,-18.2342529297,-91.1254882812
0.3588011265,-0.8076171875,0.1054687500,-0.1166992188,-21.3165283203,-18.2342529297,-91.6137695312
0.3615081310,-0.8051757812,0.1054687500,-0.1166992188,-23.0865478516,-17.7001953125,-91.6137695312
0.3642141819,-0.8051757812,0.1054687500,-0.1166992188,-23.0865478516,-17.7001953125,-92.4682617188
0.3669819832,-0.8051757812,0.1054687500,-0.1166992188,-25.9857177734,-16.7236328125,-92.4682617188
0.3698201180,-0.7973632812,0.0820312500,-0.1250000000,-25.9857177734,-12.8173828125,-93.1243896484
0.3726310730,-0.7973632812,0.0820312500,-0.1250000000,-28.6865234375,-15.6097412109,-93.1243896484
0.3753449917,-0.7973632812,0.0820312500,-0.1250000000,-28.6865234375,-15.6097412109,-93.5974121094
0.3780701160,-0.7973632812,0.0820312500,-0.1235351562,-30.8227539062,-14.1296386719,-93.5974121094
0.3807780743,-0.8012695312,0.0795898438,-0.1235351562,-30.8227539062,-14.1296386719,-94.6655273438
0.3835639954,-0.8012695312,0.0795898438,-0.1235351562,-32.4401855469,-13.2141113281,-94.6655273438
0.3862681389,-0.8012695312,0.0795898438,-0.1235351562,-34.5764160156,-12.5427246094,-95.8709716797
0.3897609711,-0.8051757812,0.0917968750,-0.1206054688,-34.5764160156,-12.5427246094,-95.8709716797
0.3923339844,-0.8051757812,0.0917968750,-0.1206054688,-35.4156494141,-11.4288330078,-96.7102050781
0.3949100971,-0.8051757812,0.0917968750,-0.1206054688,-35.4156494141,-11.4288330078,-96.7102050781
0.3975200653,-0.8051757812,0.0917968750,-0.1206054688,-35.4156494141,-10.4064941406,-97.5952148438
0.4000880718,-0.8071289062,0.1015625000,-0.1176757812,-36.0107421875,-10.4064941406,-97.5952148438
0.4026670456,-0.8071289062,0.1015625000,-0.1176757812,-36.0107421875,-10.4064941406,-98.2818603516
0.4052410126,-0.8071289062,0.1015625000,-0.1176757812,-36.6210937500,-9.6740722656,-98.2818603516
0.4078609943,-0.8071289062,0.1015625000,-0.1176757812,-36.6210937500,-9.6740722656,-99.3194580078
0.4104280472,-0.8222656250,0.1049804688,-0.0981445312,-37.7044677734,-8.2855224609,-99.3194580078
0.4130020142,-0.8222656250,0.1049804688,-0.0981445312,-37.7044677734,-8.2855224609,-99.3194580078
0.4155759811,-0.8222656250,0.1049804688,-0.0981445312,-39.6270751953,-7.0648193359,-99.8077392578
0.4181971550,-0.8222656250,0.1049804688,-0.0981445312,-39.6270751953,-7.0648193359,-99.8077392578
0.4207639694,-0.8261718750,0.1079101562,-0.0947265625,-41.8090820312,-5.7830810547,-100.3417968750
0.4233419895,-0.8261718750,0.1079101562,-0.0947265625,-41.8090820312,-5.7830810547,-100.3417968750
0.4259111881,-0.8261718750,0.1079101562,-0.0947265625,-43.5028076172,-4.3029785156,-100.5401611328
0.4285001755,-0.8261718750,0.1079101562,-0.0947265625,-43.5028076172,-4.3029785156,-100.5401611328
0.4310660362,-0.8217773438,0.1318359375,-0.0869140625,-45.9747314453,-2.7618408203,-99.7772216797
0.4336380959,-0.8217773438,0.1318359375,-0.0869140625,-45.9747314453,-2.7618408203,-99.7772216797
0.4362139702,-0.8217773438,0.1318359375,-0.0869140625,-48.6907958984,-0.9765625000,-98.7548828125
0.4390530586,-0.8217773438,0.1318359375,-0.0786132812,-48.6907958984,-0.9765625000,-98.7548828125
0.4416320324,-0.8139648438,0.1577148438,-0.0786132812,-49.6826171875,-0.3662109375,-97.8546142578
0.4442169666,-0.8139648438,0.1577148438,-0.0786132812,-49.6826171875,-0.3662109375,-97.8546142578
0.4467940331,-0.8139648438,0.1577148438,-0.0786132812,-49.5605468750,0.5340576172,-97.0611572266
0.4496181011,-0.8139648438,0.1635742188,-0.0688476562,-49.5605468750,0.5340576172,-97.0611572266
0.4523191452,-0.8115234375,0.1635742188,-0.0688476562,-49.1333007812,1.5869140625,-96.6949462891
0.4550261497,-0.8115234375,0.1635742188,-0.0688476562,-49.1333007812,1.5869140625,-96.6949462891
0.4577519894,-0.8115234375,0.1635742188,-0.0688476562,-49.1027832031,2.3345947266,-96.5423583984
0.4604611397,-0.8090820312,0.1586914062,-0.0600585938,-49.1027832031,2.3345947266,-96.5423583984
0.4631690979,-0.8090820312,0.1586914062,-0.0600585938,-48.4466552734,3.2348632812,-95.7946777344
0.4658770561,-0.8090820312,0.1586914062,-0.0600585938,-48.4466552734,3.2348632812,-95.7946777344
0.4685120583,-0.8090820312,0.1586914062,-0.0600585938,-47.8668212891,3.4942626953,-94.9249267578
0.4710891247,-0.8037109375,0.1435546875,-0.0556640625,-47.8668212891,3.4942626953,-94.9249267578
0.4736661911,-0.8037109375,0.1435546875,-0.0556640625,-43.9605712891,4.4250488281,-94.1925048828
0.4762411118,-0.8037109375,0.1435546875,-0.0556640625,-46.7987060547,4.4250488281,-94.1925048828
0.4789350033,-0.8037109375,0.1435546875,-0.0556640625,-46.7987060547,5.2642822266,-93.2769775391
0.4816381931,-0.7998046875,0.1455078125,-0.0532226562,-45.6695556641,5.2642822266,-93.2769775391
0.4843389988,-0.7998046875,0.1455078125,-0.0532226562,-45.6695556641,5.8593750000,-92.3614501953
0.4870560169,-0.7998046875,0.1455078125,-0.0532226562,-44.4793701172,5.8593750000,-92.3614501953
0.4897630215,-0.7998046875,0.1450195312,-0.0566406250,-44.4793701172,6.4544677734,-91.3848876953
0.4924740791,-0.8012695312,0.1450195312,-0.0566406250,-42.8009033203,6.4544677734,-91.3848876953
0.4951801300,-0.8012695312,0.1450195312,-0.0566406250,-42.8009033203,6.4544677734,-90.5761718750
0.4979000092,-0.8012695312,0.1450195312,-0.0566406250,-40.6646728516,7.4615478516,-90.5761718750
0.5006101131,-0.8032226562,0.1425781250,-0.0332031250,-40.6646728516,11.3677978516,-89.4012451172
0.5034530163,-0.8032226562,0.1425781250,-0.0332031250,-38.7268066406,7.8125000000,-89.4012451172
0.5061721802,-0.8032226562,0.1425781250,-0.0332031250,-36.1328125000,8.1176757812,-87.8753662109
0.5092940331,-0.8032226562,0.1425781250,-0.0332031250,-36.1328125000,8.1176757812,-87.8753662109
0.5120081902,-0.7978515625,0.1572265625,-0.0336914062,-33.4014892578,8.5296630859,-86.3952636719
0.5147140026,-0.7978515625,0.1572265625,-0.0336914062,-33.4014892578,8.5296630859,-86.3952636719
0.5174510479,-0.7978515625,0.1572265625,-0.0336914062,-31.7382812500,8.6517333984,-84.5794677734
0.5200271606,-0.7978515625,0.1562500000,-0.0205078125,-31.7382812500,8.6517333984,-84.5794677734
0.5226039886,-0.7875976562,0.1562500000,-0.0205078125,-31.7382812500,8.6517333984,-83.1909179688
0.5251760483,-0.7875976562,0.1562500000,-0.0205078125,-30.7769775391,8.6517333984,-83.1909179688
0.5277969837,-0.7875976562,0.1562500000,-0.0205078125,-30.7769775391,8.6517333984,-80.8715820312
0.5305051804,-0.7773437500,0.1772460938,-0.0151367188,-30.1513671875,9.2163085938,-80.8715820312
0.5332071781,-0.7773437500,0.1772460938,-0.0151367188,-30.1513671875,9.2163085938,-78.0029296875
0.5359210968,-0.7773437500,0.1772460938,-0.0151367188,-28.0303955078,9.2315673828,-78.0029296875
0.5385921001,-0.7773437500,0.1772460938,-0.0151367188,-28.0303955078,9.2315673828,-74.8138427734
0.5411679745,-0.7670898438,0.1992187500,-0.0126953125,-26.3214111328,9.1400146484,-74.8138427734
0.5437490940,-0.7670898438,0.1992187500,-0.0126953125,-26.3214111328,9.1400146484,-70.9075927734
0.5463230610,-0.7670898438,0.1992187500,-0.0126953125,-24.7192382812,9.5825195312,-72.0672607422
0.5489079952,-0.7670898438,0.1992187500,-0.0126953125,-24.7192382812,9.5825195312,-72.0672607422
0.5514810085,-0.7500000000,0.2026367188,-0.0126953125,-23.4832763672,9.5672607422,-68.7866210938
0.5540549755,-0.7500000000,0.2026367188,-0.0126953125,-23.4832763672,9.5672607422,-68.7866210938
0.5566320419,-0.7500000000,0.2026367188,-0.0126953125,-22.7813720703,9.2926025391,-65.7806396484
0.5592939854,-0.7500000000,0.2026367188,-0.0126953125,-22.7813720703,9.2926025391,-65.7806396484
0.5618660450,-0.7329101562,0.1889648438,-0.0024414062,-21.5911865234,8.9263916016,-62.5610351562
0.5644421577,-0.7329101562,0.1889648438,-0.0024414062,-21.5911865234,8.9263916016,-62.5610351562
0.5672969818,-0.7329101562,0.1889648438,-0.0024414062,-20.2789306641,9.0026855469,-59.4177246094
0.5698800087,-0.7329101562,0.1889648438,0.1225585938,-20.2789306641,9.0026855469,-59.4177246094
0.5724539757,-0.7329101562,0.1967773438,0.0185546875,-18.5241699219,8.2092285156,-56.3049316406
0.5750269890,-0.7329101562,0.1967773438,0.0185546875,-18.5241699219,8.2092285156,-56.3049316406
0.5776820183,-0.7329101562,0.1967773438,0.0185546875,-16.6168212891,7.8582763672,-53.4973144531
0.5803880692,-0.7329101562,0.1967773438,0.0234375000,-16.6168212891,7.8582763672,-53.4973144531
0.5830950737,-0.7441406250,0.1879882812,0.0234375000,-14.8620605469,6.9274902344,-50.7202148438
0.5858051777,-0.7441406250,0.1879882812,0.0234375000,-14.8620605469,6.9274902344,-50.7202148438
0.5885260105,-0.7441406250,0.1879882812,0.0234375000,-13.3056640625,5.7678222656,-47.4700927734
0.5912292004,-0.7358398438,0.1811523438,0.0112304688,-13.3056640625,5.7678222656,-47.4700927734
0.5939321518,-0.7358398438,0.1811523438,0.0112304688,-12.2222900391,5.0506591797,-43.9605712891
0.5966370106,-0.7358398438,0.1811523438,0.0112304688,-12.2222900391,5.0506591797,-43.9605712891
0.5992500782,-0.7358398438,0.1811523438,0.0112304688,-10.8184814453,4.5623779297,-40.7257080078
0.6018230915,-0.7133789062,0.1694335938,0.0146484375,-10.8184814453,4.5623779297,-40.7257080078
0.6043970585,-0.7133789062,0.1694335938,0.0146484375,-10.8184814453,3.9062500000,-37.3992919922
0.6070101261,-0.7133789062,0.1694335938,0.0146484375,-9.7045898438,3.9062500000,-37.3992919922
0.6097090244,-0.7133789062,0.1694335938,0.0146484375,-9.7045898438,2.9907226562,-34.3017578125
0.6124210358,-0.7050781250,0.1718750000,0.0229492188,-9.0637207031,2.9907226562,-34.3017578125
0.6151189804,-0.7050781250,0.1718750000,0.0229492188,-9.0637207031,2.5634765625,-30.5938720703
0.6178140640,-0.7050781250,0.1718750000,0.0229492188,-8.0718994141,2.5634765625,-30.5938720703
0.6203861237,-0.7050781250,0.1718750000,0.0229492188,-8.0718994141,2.5634765625,-27.1911621094
0.6230030060,-0.7011718750,0.1801757812,0.0200195312,-6.7138671875,2.1362304688,-27.1911621094
0.6257200241,-0.7011718750,0.1801757812,0.0200195312,-6.7138671875,2.1514892578,-22.9949951172
0.6287021637,-0.7011718750,0.1801757812,0.0200195312,-5.4779052734,2.1514892578,-22.9949951172
0.6315171719,-0.6801757812,0.2109375000,0.0156250000,-1.5716552734,2.1057128906,-18.2952880859
0.6342279911,-0.6801757812,0.2109375000,0.0156250000,-3.7689208984,2.1057128906,-18.2952880859
0.6369731426,-0.6801757812,0.2109375000,0.0156250000,-3.7689208984,1.8310546875,-13.7481689453
0.6396851540,-0.6801757812,0.2109375000,0.0156250000,-2.3956298828,1.8310546875,-13.7481689453
0.6423871517,-0.6806640625,0.2192382812,0.0141601562,-2.3956298828,1.8463134766,-10.2844238281
0.6450860500,-0.6806640625,0.2192382812,0.0141601562,-1.0528564453,1.8463134766,-10.2844238281
0.6477911472,-0.6806640625,0.2192382812,0.0141601562,2.8533935547,1.0681152344,-6.0729980469
0.6504931450,-0.6806640625,0.2192382812,0.0141601562,0.1220703125,1.0681152344,-6.0729980469
0.6531860828,-0.6787109375,0.2187500000,0.0244140625,0.1220703125,0.2288818359,-2.1514892578
0.6558890343,-0.6787109375,0.2187500000,0.0244140625,1.3275146484,0.2288818359,-2.1514892578
0.6585111618,-0.6787109375,0.2187500000,0.0244140625,1.3275146484,-3.6773681641,0.7781982422
0.6610820293,-0.6787109375,0.2187500000,0.0322265625,3.0212402344,-0.2899169922,0.7781982422
0.6636540890,-0.6806640625,0.2187500000,0.0322265625,3.0212402344,-0.2899169922,3.2958984375
0.6662180424,-0.6806640625,0.2187500000,0.0322265625,5.5694580078,-0.6866455078,3.2958984375
0.6688179970,-0.6806640625,0.2187500000,0.0322265625,5.5694580078,-0.6866455078,7.2021484375
0.6713831425,-0.6806640625,0.2065429688,0.0356445312,7.7362060547,-1.3580322266,6.0424804688
0.6739490032,-0.6943359375,0.2065429688,0.0356445312,7.7362060547,-1.3580322266,6.0424804688
0.6765191555,-0.6943359375,0.2065429688,0.0356445312,8.8958740234,-1.5411376953,8.7432861328
0.6791319847,-0.6943359375,0.2065429688,0.0356445312,8.8958740234,-1.5411376953,8.7432861328
0.6817011833,-0.6943359375,0.1860351562,0.0375976562,9.8114013672,-1.3427734375,11.1846923828
0.6842701435,-0.6909179688,0.1860351562,0.0375976562,9.8114013672,-1.3427734375,11.1846923828
0.6868371964,-0.6909179688,0.1860351562,0.0375976562,10.1776123047,-1.0681152344,13.8397216797
0.6896321774,-0.6909179688,0.1860351562,0.0375976562,10.1776123047,-1.0681152344,13.8397216797
0.6923379898,-0.6894531250,0.1787109375,0.0356445312,10.8184814453,-0.9918212891,16.5863037109
0.6951470375,-0.6894531250,0.1787109375,0.0356445312,10.8184814453,-0.9918212891,16.5863037109
0.6978671551,-0.6894531250,0.1787109375,0.0356445312,10.9252929688,-0.9613037109,20.1110839844
0.7005670071,-0.6894531250,0.1787109375,0.0356445312,10.9252929688,-0.9613037109,20.1110839844
0.7032730579,-0.6796875000,0.1713867188,0.0400390625,10.4980468750,-1.0528564453,23.1170654297
0.7059791088,-0.6796875000,0.1713867188,0.0400390625,10.4980468750,-1.0528564453,23.1170654297
0.7086911201,-0.6796875000,0.1713867188,0.0400390625,9.4146728516,-1.3732910156,26.2756347656
0.7113900185,-0.6796875000,0.1713867188,0.0615234375,9.4146728516,-1.3732910156,26.2756347656
0.7140879631,-0.6840820312,0.1508789062,0.0615234375,7.9193115234,-2.1362304688,30.0598144531
0.7167870998,-0.6840820312,0.1508789062,0.0615234375,7.9193115234,-2.1362304688,30.0598144531
0.7193830013,-0.6840820312,0.1508789062,0.0615234375,6.8511962891,-2.5024414062,30.5175781250
0.7219440937,-0.6840820312,0.1503906250,0.0107421875,6.8511962891,-2.5024414062,30.5175781250
0.7245180607,-0.7397460938,0.1503906250,0.0107421875,2.6702880859,-1.8463134766,34.6069335938
0.7270960808,-0.7397460938,0.1503906250,0.0107421875,2.6702880859,-1.8463134766,34.6069335938
0.7297999859,-0.7397460938,0.1503906250,0.0107421875,-2.4108886719,-2.0751953125,41.0156250000
0.7325050831,-0.6894531250,0.2099609375,-0.0039062500,-2.4108886719,-2.0751953125,41.0156250000
0.7352130413,-0.6894531250,0.2099609375,-0.0039062500,-6.8054199219,-2.8686523438,44.7998046875
0.7379260063,-0.6894531250,0.2099609375,-0.0039062500,-6.8054199219,-2.8686523438,44.7998046875
0.7406330109,-0.6894531250,0.2099609375,-0.0039062500,-14.1906738281,-3.5705566406,46.1883544922
0.7434291840,-0.7241210938,0.0917968750,0.0727539062,-14.1906738281,-3.5705566406,46.1883544922
0.7461361885,-0.7241210938,0.0917968750,0.0727539062,-17.8985595703,-3.3111572266,46.0510253906
0.7492749691,-0.7241210938,0.0917968750,0.0727539062,-17.8985595703,-3.3111572266,46.0510253906
0.7519810200,-0.7241210938,-0.1582031250,0.0844726562,-20.6298828125,-2.9754638672,46.6003417969
0.7546911240,-0.8295898438,-0.1938476562,0.0844726562,-20.6298828125,-2.9754638672,46.6003417969
0.7573881149,-0.8295898438,-0.1938476562,0.0844726562,-24.4598388672,-3.4179687500,47.3175048828
0.7600810528,-0.8295898438,-0.1938476562,0.0844726562,-24.4598388672,-3.4179687500,47.3175048828
0.7626531124,-0.8852539062,-0.3476562500,0.0351562500,-28.5797119141,-4.0740966797,49.9114990234
0.7652270794,-0.8852539062,-0.3476562500,0.0351562500,-28.5797119141,-4.0740966797,49.9114990234
0.7679080963,-0.8852539062,-0.3476562500,0.0351562500,-31.5246582031,-5.1422119141,52.9632568359
0.7706160545,-0.8852539062,-0.3476562500,0.0351562500,-31.5246582031,-5.1422119141,52.9632568359
0.7733190060,-0.9038085938,-0.2250976562,-0.0493164062,-31.9519042969,-4.9133300781,56.8389892578
0.7760250568,-0.9038085938,-0.2250976562,-0.0493164062,-31.9519042969,-4.9133300781,56.8389892578
0.7786600590,-0.9038085938,-0.2250976562,-0.0493164062,-32.5012207031,-4.0893554688,61.6912841797
0.7812361717,-0.9038085938,-0.2250976562,-0.0493164062,-32.5012207031,-4.0893554688,61.6912841797
0.7838051319,-0.8862304688,-0.0288085938,-0.0825195312,-32.5012207031,-4.1503906250,66.3757324219
0.7863810062,-0.8862304688,-0.0288085938,-0.0825195312,-34.2864990234,-4.1503906250,66.3757324219
0.7890141010,-0.8862304688,-0.0288085938,-0.0825195312,-34.2864990234,-4.1503906250,70.5566406250
0.7915840149,-0.8862304688,-0.0288085938,-0.0825195312,-37.0788574219,-4.3640136719,70.5566406250
0.7941529751,-0.8686523438,0.0917968750,-0.0625000000,-37.0788574219,-4.3640136719,74.4628906250
0.7967331409,-0.8686523438,0.0917968750,-0.0625000000,-39.3371582031,-5.3253173828,74.8901367188
0.7994971275,-0.8686523438,0.0917968750,-0.0625000000,-39.3371582031,-5.3253173828,78.7963867188
0.8020701408,-0.8686523438,0.0917968750,-0.0625000000,-41.4733886719,-7.4157714844,78.8726806641
0.8046422005,-0.8476562500,0.1372070312,-0.0043945312,-41.4733886719,-7.4157714844,78.8726806641
0.8073661327,-0.8476562500,0.1372070312,-0.0043945312,-41.0156250000,-9.5672607422,81.7260742188
0.8099431992,-0.8476562500,0.1372070312,-0.0043945312,-41.0156250000,-9.5672607422,81.7260742188
0.8125171661,-0.8476562500,0.1372070312,-0.0195312500,-38.1011962891,-12.2528076172,83.4960937500
0.8150889874,-0.8085937500,0.1406250000,-0.0195312500,-38.1011962891,-12.2528076172,83.4960937500
0.8176879883,-0.8085937500,0.1406250000,-0.0195312500,-33.2946777344,-13.4124755859,83.1604003906
0.8202660084,-0.8085937500,0.1406250000,-0.0195312500,-33.2946777344,-13.4124755859,83.1604003906
0.8229591846,-0.8085937500,0.1333007812,-0.0708007812,-28.2440185547,-13.6871337891,82.0617675781
0.8255391121,-0.7661132812,0.1333007812,-0.0708007812,-28.2440185547,-13.6871337891,82.0617675781
0.8281240463,-0.7661132812,0.1333007812,-0.0708007812,-24.0936279297,-14.5874023438,79.9255371094
0.8307039738,-0.7661132812,0.1333007812,-0.0708007812,-24.0936279297,-14.5874023438,79.9255371094
0.8332760334,-0.6411132812,0.1157226562,-0.0859375000,-21.5454101562,-15.2587890625,76.9348144531
0.8358511925,-0.7221679688,0.1157226562,-0.0859375000,-21.5454101562,-15.2587890625,76.9348144531
0.8385200500,-0.7221679688,0.1157226562,-0.0859375000,-19.2565917969,-16.2506103516,73.6846923828
0.8412330151,-0.7221679688,0.1157226562,-0.0859375000,-19.2565917969,-16.2506103516,73.6846923828
0.8439450264,-0.7001953125,0.1152343750,-0.0546875000,-17.1051025391,-16.7999267578,70.7397460938
0.8466570377,-0.7001953125,0.1152343750,-0.0546875000,-17.1051025391,-16.7999267578,70.7397460938
0.8493850231,-0.7001953125,0.1152343750,-0.0546875000,-13.1988525391,-17.4255371094,67.6574707031
0.8519670963,-0.7001953125,0.1152343750,-0.0546875000,-14.5874023438,-17.4255371094,67.6574707031
0.8545470238,-0.7138671875,0.1699218750,-0.0239257812,-14.5874023438,-18.1579589844,65.5822753906
0.8571820259,-0.7138671875,0.1699218750,-0.0239257812,-10.0860595703,-18.1579589844,65.5822753906
0.8597710133,-0.7138671875,0.1699218750,-0.0239257812,-10.0860595703,-18.1579589844,68.4661865234
0.8623480797,-0.7138671875,0.1699218750,-0.0239257812,-2.4108886719,-18.6767578125,68.4661865234
0.8650970459,-0.7841796875,0.4189453125,-0.0039062500,-2.4108886719,-18.6767578125,70.3430175781
0.8679389954,-0.7841796875,0.4189453125,-0.0039062500,2.0446777344,-19.9584960938,70.3430175781
0.8706459999,-0.7841796875,0.4189453125,-0.0039062500,2.0446777344,-19.9584960938,65.5822753906
0.8733570576,-0.7841796875,0.2924804688,0.0195312500,4.5928955078,-21.1029052734,65.5822753906
0.8760621548,-0.7260742188,0.2924804688,0.0195312500,4.5928955078,-21.1029052734,59.3872070312
0.8787021637,-0.7260742188,0.2924804688,0.0195312500,7.7667236328,-21.9421386719,59.3872070312
0.8825540543,-0.7260742188,0.2924804688,0.0195312500,10.5438232422,-21.5454101562,55.8776855469
0.8852901459,-0.7382812500,0.1401367188,0.0063476562,10.5438232422,-21.5454101562,55.8776855469
0.8879940510,-0.7382812500,0.1401367188,0.0063476562,9.0026855469,-21.0723876953,53.3142089844
0.8905730247,-0.7382812500,0.1401367188,0.0063476562,9.0026855469,-21.0723876953,53.3142089844
0.8931441307,-0.7382812500,0.1401367188,-0.0449218750,2.7618408203,-21.0571289062,51.9409179688
0.8957090378,-0.7275390625,0.0937500000,-0.0449218750,2.7618408203,-21.0571289062,51.9409179688
0.8983690739,-0.7275390625,0.0937500000,-0.0449218750,-1.1444091797,-20.9960937500,51.1932373047
0.9009330273,-0.7275390625,0.0937500000,-0.0449218750,-2.3193359375,-20.9960937500,51.1932373047
0.9034991264,-0.7275390625,0.1264648438,-0.0195312500,-2.3193359375,-20.9960937500,50.3234863281
0.9060680866,-0.7255859375,0.1264648438,-0.0195312500,-4.8675537109,-21.4385986328,50.3234863281
0.9086420536,-0.7255859375,0.1264648438,-0.0195312500,-4.8675537109,-21.4385986328,49.3774414062
0.9112119675,-0.7255859375,0.1264648438,-0.0195312500,-8.2244873047,-21.3317871094,49.3774414062
0.9137811661,-0.7255859375,0.1357421875,0.0327148438,-8.2244873047,-21.3317871094,49.3774414062
0.9163491726,-0.7128906250,0.1357421875,0.0327148438,-10.9252929688,-21.9116210938,47.6379394531
0.9189691544,-0.7128906250,0.1357421875,0.0327148438,-10.9252929688,-21.9116210938,47.6379394531
0.9215409756,-0.7128906250,0.1357421875,0.0327148438,-9.3383789062,-22.1710205078,45.8679199219
0.9241130352,-0.7128906250,0.1318359375,0.0473632812,-9.3383789062,-22.1710205078,45.8679199219
0.9266819954,-0.7070312500,0.1318359375,0.0473632812,-5.4779052734,-21.9116210938,43.9758300781
0.9293310642,-0.7070312500,0.1318359375,0.0473632812,-5.4779052734,-21.9116210938,43.9758300781
0.9319000244,-0.7070312500,0.1318359375,0.0473632812,-2.9144287109,-21.2097167969,41.4276123047
0.9344689846,-0.7143554688,0.1684570312,0.0112304688,-2.9144287109,-21.2097167969,41.4276123047
0.9371271133,-0.7143554688,0.1684570312,0.0112304688,-0.2899169922,-20.3552246094,39.8101806641
0.9397170544,-0.7143554688,0.1684570312,0.0112304688,-0.2899169922,-20.3552246094,39.8101806641
0.9422850609,-0.7143554688,0.1684570312,0.0112304688,4.9438476562,-20.8740234375,36.9720458984
0.9448571205,-0.7114257812,0.1811523438,0.0131835938,4.9438476562,-20.8740234375,36.9720458984
0.9474680424,-0.7114257812,0.1811523438,0.0131835938,11.7034912109,-21.2249755859,33.1573486328
0.9501500130,-0.7114257812,0.1811523438,0.0131835938,11.7034912109,-21.2249755859,33.1573486328
0.9527201653,-0.7114257812,0.1811523438,0.0131835938,15.6097412109,-20.5078125000,29.4952392578
0.9552900791,-0.7543945312,0.1542968750,-0.0117187500,14.8162841797,-20.5078125000,29.4952392578
0.9578711987,-0.7543945312,0.1542968750,-0.0117187500,14.8162841797,-20.5078125000,27.2064208984
0.9604439735,-0.7543945312,0.1542968750,-0.0117187500,14.1296386719,-20.1873779297,27.2064208984
0.9630150795,-0.7543945312,0.1542968750,-0.0117187500,14.1296386719,-20.1873779297,25.6347656250
0.9655911922,-0.7446289062,0.1279296875,0.0087890625,12.5885009766,-19.7601318359,25.6347656250
0.9682440758,-0.7446289062,0.1279296875,0.0087890625,12.5885009766,-19.7601318359,25.6347656250
0.9708220959,-0.7446289062,0.1279296875,0.0087890625,12.3748779297,-19.1192626953,24.5971679688
0.9733951092,-0.7446289062,0.1279296875,0.0087890625,12.3748779297,-19.1192626953,24.5971679688
0.9759740829,-0.7446289062,0.1440429688,0.0166015625,11.5051269531,-18.7072753906,23.7579345703
0.9786930084,-0.7446289062,0.1440429688,0.0166015625,11.5051269531,-18.7072753906,23.7579345703
0.9814040661,-0.7446289062,0.1440429688,0.0166015625,10.2386474609,-18.9361572266,22.4914550781
0.9841129780,-0.7446289062,0.1440429688,0.0146484375,10.2386474609,-18.9361572266,22.4914550781
0.9868211746,-0.7226562500,0.1591796875,0.0146484375,8.3618164062,-18.7835693359,22.2473144531
0.9895370007,-0.7226562500,0.1591796875,0.0146484375,8.3618164062,-18.7835693359,22.2473144531
0.9922380447,-0.7226562500,0.1591796875,0.0146484375,6.6070556641,-18.3715820312,21.7437744141
0.9950649738,-0.7280273438,0.1274414062,0.0151367188,6.6070556641,-18.3715820312,21.7437744141
0.9981951714,-0.7280273438,0.1274414062,0.0151367188,4.3640136719,-17.6086425781,21.3928222656
1.0008990765,-0.7280273438,0.1274414062,0.0151367188,4.3640136719,-17.6086425781,21.3928222656
1.0036051273,-0.7280273438,0.1274414062,0.0151367188,2.5787353516,-17.5476074219,21.0571289062
1.0063121319,-0.7202148438,0.1303710938,0.0224609375,2.5787353516,-17.5476074219,21.0571289062
1.0089612007,-0.7202148438,0.1303710938,0.0224609375,-0.2136230469,-16.9525146484,21.0113525391
1.0115389824,-0.7202148438,0.1303710938,0.0224609375,-0.2136230469,-16.9525146484,21.0113525391
1.0142290592,-0.7202148438,0.1303710938,0.0332031250,-2.5787353516,-16.2200927734,20.5993652344
1.0168051720,-0.7309570312,0.1347656250,0.0332031250,-2.5787353516,-16.2200927734,20.5993652344
1.0195100307,-0.7309570312,0.1347656250,0.0332031250,-4.3945312500,-15.6250000000,20.5841064453
1.0222151279,-0.7309570312,0.1347656250,0.0332031250,-4.3945312500,-15.6250000000,20.5841064453
1.0249161720,-0.7309570312,0.1313476562,0.0307617188,-5.5084228516,-14.8468017578,20.3857421875
1.0276441574,-0.7260742188,0.1313476562,0.0307617188,-5.5084228516,-14.8468017578,20.3857421875
1.0302150249,-0.7260742188,0.1313476562,0.0307617188,-6.3323974609,-14.0228271484,20.5993652344
1.0327901840,-0.7260742188,0.1313476562,0.0307617188,-6.3323974609,-14.0228271484,20.5993652344
1.0353691578,-0.7333984375,0.1376953125,0.0405273438,-6.3629150391,-13.5345458984,20.4925537109
1.0379581451,-0.7333984375,0.1376953125,0.0405273438,-6.3629150391,-13.5345458984,20.4925537109
1.0405299664,-0.7333984375,0.1376953125,0.0405273438,-4.9438476562,-13.0004882812,20.1873779297
1.0431020260,-0.7333984375,0.1376953125,0.0405273438,-4.9438476562,-13.0004882812,20.1873779297
1.0456771851,-0.7309570312,0.1401367188,0.0595703125,-2.7008056641,-11.9781494141,19.3634033203
1.0483939648,-0.7309570312,0.1401367188,0.0595703125,-2.7008056641,-11.9781494141,19.3634033203
1.0509660244,-0.7309570312,0.1401367188,0.0595703125,0.2441406250,-11.5661621094,19.0582275391
1.0535380840,-0.7309570312,0.1401367188,0.0595703125,0.2441406250,-11.5661621094,19.0582275391
1.0561110973,-0.7265625000,0.1459960938,0.0810546875,0.2441406250,-11.6424560547,18.2037353516
1.0587852001,-0.7265625000,0.1459960938,0.0810546875,2.7313232422,-11.6424560547,18.2037353516
1.0613570213,-0.7265625000,0.1459960938,0.0810546875,2.7313232422,-15.5487060547,17.7764892578
1.0639309883,-0.7265625000,0.1459960938,0.0810546875,5.2947998047,-11.7645263672,17.7764892578
1.0665061474,-0.7294921875,0.1352539062,0.0649414062,5.2947998047,-11.7645263672,17.4255371094
1.0691990852,-0.7294921875,0.1352539062,0.0649414062,7.1411132812,-11.4593505859,17.4255371094
1.0719001293,-0.7294921875,0.1352539062,0.0649414062,7.1411132812,-11.4593505859,17.3339843750
1.0746071339,-0.7294921875,0.1352539062,0.0522460938,7.7667236328,-11.0778808594,17.3339843750
1.0774221420,-0.7353515625,0.1416015625,0.0522460938,7.7667236328,-11.0778808594,17.4102783203
1.0801219940,-0.7353515625,0.1416015625,0.0522460938,7.2326660156,-10.6201171875,17.4102783203
1.0828220844,-0.7353515625,0.1416015625,0.0522460938,7.2326660156,-10.6201171875,17.8680419922
1.0855281353,-0.7353515625,0.1391601562,0.0498046875,6.2255859375,-9.3383789062,17.8680419922
1.0882310867,-0.7338867188,0.1391601562,0.0498046875,6.2255859375,-9.3383789062,18.9819335938
1.0909011364,-0.7338867188,0.1391601562,0.0498046875,4.4555664062,-7.7056884766,18.9819335938
1.0944540501,-0.7338867188,0.1391601562,0.0498046875,4.1351318359,-6.8054199219,19.6838378906
1.0970211029,-0.7197265625,0.1440429688,0.0561523438,4.1351318359,-6.8054199219,19.6838378906
1.0995891094,-0.7197265625,0.1440429688,0.0561523438,4.1351318359,-6.3629150391,19.9127197266
1.1021561623,-0.7197265625,0.1440429688,0.0561523438,3.9215087891,-6.3629150391,19.9127197266
1.1047191620,-0.7197265625,0.1440429688,0.0561523438,3.9215087891,-6.3629150391,20.2331542969
1.1072959900,-0.7275390625,0.1606445312,0.0566406250,4.2114257812,-6.4239501953,20.2331542969
1.1098601818,-0.7275390625,0.1606445312,0.0566406250,4.2114257812,-6.4239501953,20.2331542969
1.1124310493,-0.7275390625,0.1606445312,0.0566406250,4.9133300781,-6.2408447266,20.5383300781
1.1149961948,-0.7275390625,0.1606445312,0.0566406250,4.9133300781,-6.2408447266,20.5383300781
1.1175661087,-0.7250976562,0.1455078125,0.0522460938,6.5155029297,-6.0119628906,20.5841064453
1.1201350689,-0.7250976562,0.1455078125,0.0522460938,6.5155029297,-6.0119628906,20.5841064453
1.1227021217,-0.7250976562,0.1455078125,0.0522460938,7.3699951172,-6.0577392578,21.1944580078
1.1252641678,-0.7250976562,0.1455078125,0.0473632812,7.3699951172,-6.0577392578,21.1944580078
1.1278851032,-0.7309570312,0.1528320312,0.0473632812,7.2784423828,-6.3018798828,21.5301513672
1.1304531097,-0.7309570312,0.1528320312,0.0473632812,7.2784423828,-6.3018798828,21.5301513672
1.1330161095,-0.7309570312,0.1528320312,0.0473632812,6.6680908203,-6.5002441406,21.4385986328
1.1355869770,-0.7309570312,0.1528320312,0.0537109375,6.6680908203,-6.5002441406,21.4385986328
1.1383380890,-0.7104492188,0.1684570312,0.0537109375,7.2021484375,-6.7138671875,20.9960937500
1.1409091949,-0.7104492188,0.1684570312,0.0537109375,7.2021484375,-6.7138671875,20.9960937500
1.1435980797,-0.7104492188,0.1684570312,0.0537109375,7.2631835938,-6.6375732422,21.1486816406
1.1461751461,-0.7104492188,0.1704101562,0.0449218750,7.2631835938,-6.6375732422,21.1486816406
1.1488859653,-0.7172851562,0.1704101562,0.0449218750,7.8735351562,-6.3323974609,20.3247070312
1.1514611244,-0.7172851562,0.1704101562,0.0449218750,7.8735351562,-6.3323974609,20.3247070312
1.1540341377,-0.7172851562,0.1704101562,0.0449218750,7.8735351562,-6.8054199219,19.7296142578
1.1566061974,-0.7163085938,0.1826171875,0.0444335938,8.6059570312,-6.8054199219,19.7296142578
1.1592061520,-0.7163085938,0.1826171875,0.0444335938,8.6059570312,-6.8054199219,19.5159912109
1.1617729664,-0.7163085938,0.1826171875,0.0444335938,8.9721679688,-7.5836181641,19.5159912109
1.1643409729,-0.7163085938,0.1826171875,0.0444335938,8.9721679688,-7.5836181641,19.1345214844
1.1669070721,-0.7231445312,0.1728515625,0.0317382812,9.9945068359,-7.7056884766,19.1345214844
1.1695661545,-0.7231445312,0.1728515625,0.0317382812,9.9945068359,-7.7056884766,19.1345214844
1.1721301079,-0.7231445312,0.1728515625,0.0317382812,11.0321044922,-8.2244873047,19.3481445312
1.1746950150,-0.7231445312,0.1728515625,0.0317382812,11.0321044922,-8.2244873047,19.3481445312
1.1773011684,-0.7319335938,0.1591796875,0.0424804688,11.0778808594,-8.3007812500,19.1040039062
1.1798741817,-0.7319335938,0.1591796875,0.0424804688,11.0778808594,-8.3007812500,19.1040039062
1.1824409962,-0.7319335938,0.1591796875,0.0424804688,11.3677978516,-8.7432861328,19.5922851562
1.1850121021,-0.7319335938,0.1591796875,0.0424804688,11.3677978516,-8.7432861328,19.5922851562
1.1877231598,-0.7221679688,0.1679687500,0.0239257812,11.8408203125,-8.5449218750,19.9584960938
1.1903030872,-0.7221679688,0.1679687500,0.0239257812,11.8408203125,-8.5449218750,19.9584960938
1.1928679943,-0.7221679688,0.1679687500,0.0239257812,11.0168457031,-8.9263916016,19.6380615234
1.1954371929,-0.7221679688,0.1679687500,0.0239257812,11.0168457031,-8.9263916016,19.6380615234
1.1982409954,-0.7202148438,0.1840820312,0.0361328125,10.4064941406,-8.9263916016,19.7906494141
1.2009110451,-0.7202148438,0.1840820312,0.0361328125,10.4064941406,-8.9263916016,19.7906494141
1.2042331696,-0.7202148438,0.1840820312,0.0361328125,10.4675292969,-9.4299316406,19.9737548828
1.2069129944,-0.7143554688,0.1943359375,0.0444335938,10.4675292969,-9.4299316406,19.9737548828
1.2095520496,-0.7143554688,0.1943359375,0.0444335938,10.8489990234,-9.0942382812,20.0805664062
1.2121300697,-0.7143554688,0.1943359375,0.0444335938,10.8489990234,-9.0942382812,20.0805664062
1.2147011757,-0.7143554688,0.1943359375,0.0444335938,10.3302001953,-8.7127685547,19.8822021484
1.2173030376,-0.7070312500,0.1811523438,0.0600585938,10.3302001953,-8.7127685547,19.8822021484
1.2198781967,-0.7070312500,0.1811523438,0.0600585938,10.2539062500,-8.4686279297,20.3552246094
1.2224500179,-0.7070312500,0.1811523438,0.0600585938,10.2539062500,-8.4686279297,20.3552246094
1.2250201702,-0.7070312500,0.1811523438,0.0600585938,10.2386474609,-7.9498291016,20.9045410156
1.2276420593,-0.7055664062,0.1933593750,0.0673828125,10.2386474609,-7.9498291016,20.9045410156
1.2302131653,-0.7055664062,0.1933593750,0.0673828125,10.2386474609,-7.2631835938,20.9045410156
1.2327890396,-0.7055664062,0.1933593750,0.0673828125,9.5977783203,-7.2631835938,20.9045410156
1.2353560925,-0.7055664062,0.1933593750,0.0673828125,9.5977783203,-7.2631835938,21.5454101562
1.2379281521,-0.7104492188,0.1840820312,0.0708007812,9.1400146484,-6.2103271484,21.5454101562
1.2405049801,-0.7104492188,0.1840820312,0.0708007812,9.1400146484,-6.2103271484,21.5454101562
1.2430710793,-0.7104492188,0.1840820312,0.0708007812,9.0179443359,-5.6457519531,22.2778320312
1.2456471920,-0.7104492188,0.1840820312,0.0708007812,9.0179443359,-5.6457519531,22.2778320312
1.2483639717,-0.7114257812,0.1904296875,0.0634765625,7.9345703125,-4.5318603516,22.7966308594
1.2509331703,-0.7114257812,0.1904296875,0.0634765625,7.9345703125,-4.5318603516,22.7966308594
1.2535080910,-0.7114257812,0.1904296875,0.0634765625,7.6293945312,-4.3182373047,23.4222412109
1.2560780048,-0.7114257812,0.1904296875,0.0634765625,7.6293945312,-4.3182373047,23.4222412109
1.2587530613,-0.7089843750,0.1889648438,0.0566406250,7.8735351562,-4.0130615234,23.8342285156
1.2613279819,-0.7089843750,0.1889648438,0.0566406250,7.8735351562,-4.0130615234,23.8342285156
1.2638959885,-0.7089843750,0.1889648438,0.0566406250,7.0495605469,-3.5705566406,24.5361328125
1.2664639950,-0.7089843750,0.1889648438,0.0546875000,7.0495605469,-3.5705566406,24.5361328125
1.2692701817,-0.7177734375,0.1928710938,0.0546875000,7.0495605469,-3.3264160156,24.7039794922
1.2719690800,-0.7177734375,0.1928710938,0.0546875000,7.0495605469,-3.3264160156,24.7039794922
1.2747449875,-0.7177734375,0.1928710938,0.0546875000,6.5917968750,-3.1433105469,25.0549316406
1.2778379917,-0.7163085938,0.1884765625,0.0488281250,6.5917968750,-3.1433105469,25.0549316406
1.2805490494,-0.7163085938,0.1884765625,0.0488281250,6.3323974609,-3.2958984375,25.1922607422
1.2832510471,-0.7163085938,0.1884765625,0.0488281250,6.3323974609,-3.2958984375,25.1922607422
1.2859489918,-0.7163085938,0.1884765625,0.0488281250,5.4321289062,-3.2806396484,25.2685546875
1.2886660099,-0.7099609375,0.2231445312,0.0458984375,5.4321289062,-3.2806396484,25.2685546875
1.2913691998,-0.7099609375,0.2231445312,0.0458984375,5.0506591797,-3.4332275391,25.0091552734
1.2940700054,-0.7099609375,0.2231445312,0.0458984375,5.0506591797,-3.4332275391,25.0091552734
1.2967779636,-0.7099609375,0.2231445312,0.0522460938,5.3863525391,-3.4332275391,24.3530273438
1.2994899750,-0.6962890625,0.2402343750,0.0522460938,5.3863525391,-3.4332275391,24.3530273438
1.3021969795,-0.6962890625,0.2402343750,0.0522460938,5.5389404297,-3.4942626953,23.7121582031
1.3048961163,-0.6962890625,0.2402343750,0.0522460938,5.5389404297,-3.4942626953,23.7121582031
1.3076231480,-0.6962890625,0.2392578125,0.0468750000,5.5999755859,-3.7384033203,22.8729248047
1.3101921082,-0.6977539062,0.2392578125,0.0468750000,5.5999755859,-3.7384033203,22.8729248047
1.3127591610,-0.6977539062,0.2392578125,0.0468750000,5.7983398438,-4.1351318359,22.0794677734
1.3153250217,-0.6977539062,0.2392578125,0.0468750000,5.7983398438,-4.1351318359,22.0794677734
1.3179121017,-0.7026367188,0.2529296875,0.0493164062,6.4544677734,-4.1656494141,20.9655761719
1.3204870224,-0.7026367188,0.2529296875,0.0493164062,6.4544677734,-4.1656494141,20.9655761719
1.3230621815,-0.7026367188,0.2529296875,0.0493164062,7.3394775391,-3.9367675781,20.1263427734
1.3256311417,-0.7026367188,0.2529296875,0.0493164062,7.3394775391,-3.9367675781,20.1263427734
1.3283519745,-0.7041015625,0.2382812500,0.0346679688,7.3394775391,-3.8604736328,19.6380615234
1.3309290409,-0.7041015625,0.2382812500,0.0346679688,7.2021484375,-3.8604736328,19.6380615234
1.3336081505,-0.7041015625,0.2382812500,0.0346679688,7.2021484375,-3.4332275391,19.8516845703
1.3361721039,-0.7041015625,0.2382812500,0.0346679688,6.2255859375,-3.4332275391,19.8516845703
1.3389811516,-0.6977539062,0.2285156250,0.0473632812,6.2255859375,-2.8839111328,19.5465087891
1.3416800499,-0.6977539062,0.2285156250,0.0473632812,5.5389404297,-2.8839111328,19.5465087891
1.3443830013,-0.6977539062,0.2285156250,0.0473632812,5.5389404297,-2.0446777344,19.4549560547
1.3470900059,-0.6977539062,0.2285156250,0.0473632812,5.4473876953,-2.0446777344,19.4549560547
1.3497960567,-0.6962890625,0.2402343750,0.0576171875,5.4473876953,-2.2277832031,19.2260742188
1.3525049686,-0.6962890625,0.2402343750,0.0576171875,5.4779052734,-2.2277832031,19.2260742188
1.3552031517,-0.6962890625,0.2402343750,0.0576171875,5.4779052734,-2.2277832031,18.7988281250
1.3578741550,-0.6962890625,0.2407226562,0.0610351562,5.8746337891,-2.1057128906,18.7988281250
1.3604490757,-0.6987304688,0.2407226562,0.0610351562,5.8746337891,-2.1057128906,18.6004638672
1.3630180359,-0.6987304688,0.2407226562,0.0610351562,6.0424804688,-2.3040771484,18.6004638672
1.3655860424,-0.6987304688,0.2407226562,0.0610351562,6.0424804688,-2.3040771484,18.6004638672
1.3682780266,-0.6987304688,0.2373046875,0.0634765625,6.2103271484,-1.9683837891,18.4631347656
1.3709831238,-0.7041015625,0.2373046875,0.0634765625,6.2103271484,-1.9683837891,18.4631347656
1.3736820221,-0.7041015625,0.2373046875,0.0634765625,6.8359375000,-2.0141601562,18.5394287109
1.3763849735,-0.7041015625,0.2373046875,0.0634765625,6.8359375000,-2.0141601562,18.5394287109
1.3790991306,-0.7124023438,0.2299804688,0.0590820312,6.6833496094,-1.8615722656,18.9056396484
1.3818070889,-0.7124023438,0.2299804688,0.0590820312,6.6833496094,-1.8615722656,18.9056396484
1.3845081329,-0.7124023438,0.2299804688,0.0590820312,6.9274902344,-1.6937255859,19.3176269531
1.3872511387,-0.7124023438,0.2299804688,0.0590820312,6.9274902344,-1.6937255859,23.2238769531
1.3899550438,-0.7070312500,0.2382812500,0.0493164062,7.2631835938,-2.1820068359,19.6228027344
1.3926541805,-0.7070312500,0.2382812500,0.0493164062,7.2631835938,-2.1820068359,19.6228027344
1.3954141140,-0.7070312500,0.2382812500,0.0493164062,7.1563720703,-2.3651123047,19.8822021484
1.3983731270,-0.7070312500,0.2348632812,0.0537109375,7.1563720703,-2.3651123047,20.1416015625
1.4009621143,-0.7075195312,0.2348632812,0.0537109375,7.7667236328,-2.2583007812,20.1416015625
1.4035310745,-0.7075195312,0.2348632812,0.0537109375,7.7667236328,-2.2583007812,20.1416015625
1.4061000347,-0.7075195312,0.2348632812,0.0537109375,7.9345703125,-1.8768310547,20.6756591797
1.4087700844,-0.7119140625,0.2324218750,0.0502929688,7.9345703125,-1.8768310547,20.6756591797
1.4114720821,-0.7119140625,0.2324218750,0.0502929688,7.7209472656,-1.1291503906,21.0876464844
1.4141681194,-0.7119140625,0.2324218750,0.0502929688,7.7209472656,-1.1291503906,21.0876464844
1.4168751240,-0.7119140625,0.2324218750,0.0502929688,7.5531005859,-1.0375976562,21.1791992188
1.4195740223,-0.7060546875,0.2446289062,0.0634765625,7.5531005859,-1.0375976562,21.1791992188
1.4222781658,-0.7060546875,0.2446289062,0.0634765625,7.8277587891,-1.0070800781,21.4843750000
1.4249801636,-0.7060546875,0.2446289062,0.0634765625,7.8277587891,-1.0070800781,21.4843750000
1.4276630878,-0.7060546875,0.2446289062,0.0634765625,7.7972412109,-1.0375976562,21.6979980469
1.4302380085,-0.7031250000,0.2578125000,0.0654296875,7.7972412109,-1.0375976562,21.6979980469
1.4328031540,-0.7031250000,0.2578125000,0.0654296875,8.4838867188,-1.1291503906,21.3928222656
1.4353699684,-0.7031250000,0.2578125000,0.0654296875,8.4838867188,-1.1291503906,21.3928222656
1.4379510880,-0.7031250000,0.2578125000,0.0654296875,9.0942382812,-0.7934570312,21.4538574219
1.4405171871,-0.6992187500,0.2631835938,0.0561523438,9.0942382812,-0.7934570312,21.4538574219
1.4430921078,-0.6992187500,0.2631835938,0.0561523438,9.3994140625,-0.6103515625,21.3775634766
1.4456591606,-0.6992187500,0.2631835938,0.0561523438,9.3994140625,-0.6103515625,21.3775634766
1.4483551979,-0.6992187500,0.2631835938,0.0605468750,10.1013183594,-0.5187988281,21.2860107422
1.4509341717,-0.6982421875,0.2729492188,0.0605468750,10.1013183594,-0.5187988281,21.2860107422
1.4535090923,-0.6982421875,0.2729492188,0.0605468750,10.1013183594,-0.4730224609,21.3165283203
1.4560811520,-0.6982421875,0.2729492188,0.0605468750,10.9558105469,-0.4730224609,21.3165283203
1.4588351250,-0.6982421875,0.2753906250,0.0532226562,10.9558105469,-0.3204345703,20.9808349609
1.4616510868,-0.6894531250,0.2753906250,0.0532226562,11.1999511719,-0.3204345703,20.9808349609
1.4643590450,-0.6894531250,0.2753906250,0.0532226562,11.1999511719,-0.1220703125,20.7672119141
1.4670741558,-0.6894531250,0.2753906250,0.0532226562,11.6424560547,-0.1220703125,20.7672119141
1.4697811604,-0.6997070312,0.2690429688,0.0463867188,15.5487060547,0.1525878906,21.6217041016
1.4724960327,-0.6997070312,0.2690429688,0.0463867188,11.8255615234,0.1525878906,21.6217041016
1.4752061367,-0.6997070312,0.2690429688,0.0463867188,11.8255615234,0.2899169922,21.5759277344
1.4779171944,-0.6997070312,0.2690429688,0.0463867188,12.1612548828,0.2899169922,21.5759277344
1.4806220531,-0.7050781250,0.2597656250,0.0390625000,12.1612548828,0.5798339844,21.8200683594
1.4833240509,-0.7050781250,0.2597656250,0.0390625000,12.7258300781,0.5798339844,21.8200683594
1.4860379696,-0.7050781250,0.2597656250,0.0390625000,12.7258300781,0.6256103516,22.2015380859
1.4887540340,-0.7050781250,0.2597656250,0.0561523438,12.6342773438,0.6256103516,22.2015380859
1.4914591312,-0.7128906250,0.2597656250,0.0561523438,12.6342773438,0.7476806641,22.7813720703
1.4941701889,-0.7128906250,0.2597656250,0.0561523438,12.1307373047,0.7476806641,22.7813720703
1.4967989922,-0.7128906250,0.2597656250,0.0561523438,12.1307373047,0.5340576172,23.4527587891
1.4996101856,-0.7045898438,0.2607421875,0.0673828125,11.7187500000,0.5340576172,23.4527587891
1.5028421879,-0.7045898438,0.2607421875,0.0673828125,12.0849609375,0.6103515625,24.0020751953
1.5054111481,-0.7045898438,0.2607421875,0.0673828125,12.0849609375,0.6103515625,24.0020751953
1.5080580711,-0.7045898438,0.2607421875,0.0673828125,12.6190185547,0.4730224609,24.4598388672
1.5106291771,-0.6972656250,0.2729492188,0.0610351562,12.6190185547,0.4730224609,24.4598388672
1.5131959915,-0.6972656250,0.2729492188,0.0610351562,12.6190185547,0.4577636719,24.9023437500
1.5157721043,-0.6972656250,0.2729492188,0.0610351562,12.4359130859,0.4577636719,24.9023437500
1.5183951855,-0.6972656250,0.2729492188,0.0610351562,12.4359130859,0.4577636719,24.6887207031
1.5209670067,-0.6977539062,0.2680664062,0.0468750000,13.1683349609,0.4425048828,24.6887207031
1.5235381126,-0.6977539062,0.2680664062,0.0468750000,13.1683349609,0.4425048828,24.6887207031
1.5262110233,-0.6977539062,0.2680664062,0.0468750000,13.6260986328,0.9613037109,24.4750976562
1.5288240910,-0.6977539062,0.2680664062,0.0468750000,13.6260986328,0.9613037109,24.4750976562
1.5313990116,-0.6953125000,0.2778320312,0.0468750000,13.9923095703,0.7781982422,24.3530273438
1.5339691639,-0.6953125000,0.2778320312,0.0468750000,13.9923095703,0.7781982422,24.3530273438
1.5365431309,-0.6953125000,0.2778320312,0.0468750000,13.6108398438,0.5645751953,24.4293212891
1.5391590595,-0.6953125000,0.2778320312,0.0468750000,13.6108398438,0.5645751953,24.4293212891
1.5417311192,-0.7041015625,0.2885742188,0.0468750000,13.8092041016,0.1220703125,24.6582031250
1.5443010330,-0.7041015625,0.2885742188,0.0468750000,13.8092041016,0.1220703125,24.6582031250
1.5468699932,-0.7041015625,0.2885742188,0.0468750000,14.7094726562,0.1373291016,24.7497558594
1.5495231152,-0.7041015625,0.2885742188,0.0483398438,14.7094726562,0.1373291016,24.7497558594
1.5520970821,-0.6962890625,0.2978515625,0.0483398438,14.9688720703,0.1831054688,24.1088867188
1.5546720028,-0.6962890625,0.2978515625,0.0483398438,14.9688720703,0.1831054688,24.1088867188
1.5573999882,-0.6962890625,0.2978515625,0.0483398438,15.1672363281,0.3051757812,24.1394042969
1.5601069927,-0.6943359375,0.2983398438,0.0361328125,15.1672363281,0.3051757812,24.1394042969
1.5628070831,-0.6943359375,0.2983398438,0.0361328125,15.7623291016,0.1831054688,25.3753662109
1.5655121803,-0.6943359375,0.2983398438,0.0361328125,15.7623291016,0.1831054688,25.3753662109
1.5682771206,-0.6943359375,0.2983398438,0.0361328125,16.3574218750,0.3509521484,26.1840820312
1.5709931850,-0.6997070312,0.2919921875,0.0444335938,16.3574218750,0.3509521484,26.1840820312
1.5737020969,-0.6997070312,0.2919921875,0.0444335938,17.1966552734,0.2441406250,25.1159667969
1.5764071941,-0.6997070312,0.2919921875,0.0444335938,17.1966552734,0.2441406250,25.1159667969
1.5791239738,-0.6997070312,0.2919921875,0.0444335938,17.2729492188,0.1678466797,24.7802734375
1.5818290710,-0.7036132812,0.2978515625,0.0522460938,17.2729492188,0.1678466797,24.7802734375
1.5845351219,-0.7036132812,0.2978515625,0.0522460938,17.5628662109,0.2746582031,24.6429443359
1.5872809887,-0.7036132812,0.2978515625,0.0522460938,17.5628662109,0.2746582031,24.6429443359
1.5900959969,-0.7036132812,0.3051757812,0.0263671875,17.7917480469,0.3662109375,24.3835449219
1.5928041935,-0.7094726562,0.3051757812,0.0263671875,17.7917480469,0.3662109375,24.3835449219
1.5955140591,-0.7094726562,0.3051757812,0.0263671875,17.8375244141,0.0915527344,24.3225097656
1.5983810425,-0.7094726562,0.3051757812,0.0263671875,17.8375244141,0.0915527344,24.3225097656
1.6009621620,-0.7026367188,0.3242187500,0.0356445312,19.2108154297,-0.1831054688,24.9786376953
1.6039910316,-0.7026367188,0.3242187500,0.0356445312,19.2108154297,-0.1831054688,24.9786376953
1.6065840721,-0.7026367188,0.3242187500,0.0356445312,20.5841064453,-0.7019042969,25.4974365234
1.6092250347,-0.7026367188,0.3242187500,0.0356445312,20.5841064453,-0.7019042969,25.4974365234
1.6117961407,-0.6967773438,0.3251953125,0.0322265625,21.6369628906,-1.1901855469,25.1617431641
1.6143682003,-0.6967773438,0.3251953125,0.0322265625,21.6369628906,-1.1901855469,25.1617431641
1.6169791222,-0.6967773438,0.3251953125,0.0322265625,23.1170654297,-1.1138916016,25.9399414062
1.6195499897,-0.6967773438,0.3251953125,0.0322265625,23.1170654297,-1.1138916016,25.9399414062
1.6221179962,-0.7177734375,0.3164062500,0.0146484375,23.1170654297,-0.6408691406,26.9165039062
1.6246831417,-0.7177734375,0.3164062500,0.0146484375,23.6816406250,-0.6408691406,26.9165039062
1.6273009777,-0.7177734375,0.3164062500,0.0146484375,23.6816406250,-0.6408691406,27.7252197266
1.6298670769,-0.7177734375,0.3164062500,0.0029296875,22.7203369141,-0.3509521484,27.7252197266
1.6324341297,-0.7280273438,0.3027343750,0.0029296875,22.7203369141,-0.3509521484,29.0069580078
1.6350121498,-0.7280273438,0.3027343750,0.0029296875,22.4151611328,0.2288818359,29.0069580078
1.6376280785,-0.7280273438,0.3027343750,0.0029296875,22.4151611328,0.2288818359,29.0069580078
1.6402029991,-0.7280273438,0.3027343750,0.0234375000,21.4843750000,0.6561279297,30.4412841797
1.6427750587,-0.7353515625,0.2958984375,0.0234375000,21.4843750000,0.6561279297,30.4412841797
1.6453449726,-0.7353515625,0.2958984375,0.0234375000,21.2249755859,0.5340576172,30.9295654297
1.6479880810,-0.7353515625,0.2958984375,0.0234375000,21.2249755859,0.5340576172,30.9295654297
1.6505670547,-0.7353515625,0.3134765625,0.0351562500,21.6979980469,0.6713867188,31.4025878906
1.6532530785,-0.7182617188,0.3134765625,0.0351562500,21.6979980469,0.6713867188,31.4025878906
1.6558301449,-0.7182617188,0.3134765625,0.0351562500,22.1405029297,0.9460449219,31.6162109375
1.6586141586,-0.7182617188,0.3134765625,0.0351562500,22.1405029297,0.9460449219,31.6162109375
1.6613221169,-0.7104492188,0.3281250000,0.0332031250,23.2238769531,0.8239746094,32.9742431641
1.6640310287,-0.7104492188,0.3281250000,0.0332031250,23.2238769531,0.8239746094,32.9742431641
1.6667339802,-0.7104492188,0.3281250000,0.0332031250,23.2696533203,0.6103515625,34.3475341797
1.6694850922,-0.7104492188,0.3281250000,0.0332031250,23.2696533203,0.6103515625,34.3475341797
1.6721920967,-0.7231445312,0.3281250000,0.0361328125,23.4832763672,1.1291503906,35.4766845703
1.6748971939,-0.7231445312,0.3281250000,0.0361328125,23.4832763672,1.1291503906,35.4766845703
1.6776511669,-0.7231445312,0.3281250000,0.0361328125,25.2380371094,1.6784667969,35.3546142578
1.6803531647,-0.7231445312,0.3281250000,0.0327148438,25.2380371094,1.6784667969,35.3546142578
1.6830661297,-0.7226562500,0.3261718750,0.0327148438,26.4434814453,1.8615722656,36.2548828125
1.6857671738,-0.7226562500,0.3261718750,0.0327148438,26.4434814453,1.8615722656,36.2548828125
1.6884841919,-0.7226562500,0.3261718750,0.0327148438,27.3437500000,2.6245117188,37.3229980469
1.6911911964,-0.7226562500,0.3276367188,0.0356445312,27.3437500000,2.6245117188,37.3229980469
1.6938960552,-0.7280273438,0.3276367188,0.0356445312,27.4963378906,3.7536621094,38.1774902344
1.6966021061,-0.7280273438,0.3276367188,0.0356445312,27.4963378906,3.7536621094,38.1774902344
1.6992130280,-0.7280273438,0.3276367188,0.0356445312,26.8249511719,4.8065185547,39.7644042969
1.7017819881,-0.7563476562,0.3095703125,0.0336914062,26.8249511719,4.8065185547,39.7644042969
1.7043631077,-0.7563476562,0.3095703125,0.0336914062,26.4129638672,6.4392089844,40.9851074219
1.7069690228,-0.7563476562,0.3095703125,0.0336914062,26.4129638672,6.4392089844,40.9851074219
1.7095429897,-0.7563476562,0.3095703125,0.0336914062,25.4821777344,7.4615478516,42.2058105469
1.7121219635,-0.7778320312,0.3051757812,0.0522460938,25.4821777344,7.4615478516,42.2058105469
1.7148649693,-0.7778320312,0.3051757812,0.0522460938,25.4821777344,8.6669921875,44.2199707031
1.7179911137,-0.7778320312,0.3051757812,0.0522460938,24.3835449219,8.6669921875,44.2199707031
1.7207000256,-0.7778320312,0.3051757812,0.0571289062,23.3154296875,9.5825195312,45.9747314453
1.7233979702,-0.8007812500,0.3100585938,0.0571289062,23.3154296875,9.5825195312,45.9747314453
1.7261111736,-0.8007812500,0.3100585938,0.0571289062,23.0865478516,9.7351074219,48.0194091797
1.7288670540,-0.8007812500,0.3100585938,0.0571289062,23.0865478516,9.7351074219,48.0194091797
1.7315790653,-0.8007812500,0.3164062500,0.0639648438,24.2156982422,9.5977783203,50.2319335938
1.7342820168,-0.8037109375,0.3164062500,0.0639648438,24.2156982422,9.5977783203,50.2319335938
1.7369930744,-0.8037109375,0.3164062500,0.0639648438,25.2380371094,9.3994140625,52.4597167969
1.7397031784,-0.8037109375,0.3164062500,0.0639648438,25.2380371094,9.3994140625,52.4597167969
1.7424130440,-0.8085937500,0.3095703125,0.0649414062,25.3906250000,8.3770751953,53.8482666016
1.7451231480,-0.8085937500,0.3095703125,0.0649414062,25.3906250000,8.3770751953,53.8482666016
1.7478380203,-0.8085937500,0.3095703125,0.0649414062,25.8941650391,7.7362060547,55.5572509766
1.7504119873,-0.8085937500,0.3095703125,0.0649414062,25.8941650391,7.7362060547,55.5572509766
1.7529850006,-0.8286132812,0.3125000000,0.0361328125,26.7486572266,7.7362060547,57.4493408203
1.7555589676,-0.8286132812,0.3125000000,0.0361328125,26.7486572266,7.7362060547,57.4493408203
1.7581391335,-0.8286132812,0.3125000000,0.0361328125,26.7486572266,7.0190429688,59.5550537109
1.7607190609,-0.8286132812,0.3125000000,0.0361328125,26.6723632812,7.0190429688,59.5550537109
1.7632911205,-0.8452148438,0.3154296875,0.0180664062,26.6723632812,7.0190429688,61.9964599609
1.7658660412,-0.8452148438,0.3154296875,0.0180664062,27.4505615234,6.5612792969,61.9964599609
1.7685890198,-0.8452148438,0.3154296875,0.0180664062,27.4505615234,6.5612792969,63.8122558594
1.7711660862,-0.8452148438,0.3154296875,0.0180664062,27.6794433594,5.6304931641,63.8122558594
1.7737431526,-0.8750000000,0.2949218750,0.0229492188,27.6794433594,5.6304931641,63.8122558594
1.7763180733,-0.8750000000,0.2949218750,0.0229492188,27.9235839844,4.2114257812,65.6127929688
1.7790181637,-0.8750000000,0.2949218750,0.0229492188,27.9235839844,4.2114257812,65.6127929688
1.7817280293,-0.8750000000,0.2949218750,0.0200195312,28.8085937500,2.6855468750,67.8558349609
1.7845411301,-0.8940429688,0.2910156250,0.0200195312,28.8085937500,2.6855468750,67.8558349609
1.7872531414,-0.8940429688,0.2910156250,0.0200195312,29.0679931641,1.4648437500,70.2209472656
1.7898311615,-0.8940429688,0.2910156250,0.0200195312,29.0679931641,1.4648437500,70.2209472656
1.7924020290,-0.9067382812,0.3208007812,0.0039062500,29.3273925781,0.2288818359,72.4487304688
1.7949800491,-0.9067382812,0.3208007812,0.0039062500,29.3273925781,0.2288818359,72.4487304688
1.7975599766,-0.9067382812,0.3208007812,0.0039062500,30.3039550781,-0.6103515625,74.3255615234
1.8001301289,-0.9067382812,0.3208007812,0.0039062500,30.3039550781,-0.6103515625,74.3255615234
1.8028609753,-0.9199218750,0.3222656250,-0.0043945312,31.8908691406,-1.6479492188,75.8056640625
1.8054289818,-0.9199218750,0.3222656250,-0.0043945312,31.8908691406,-1.6479492188,75.8056640625
1.8082041740,-0.9199218750,0.3222656250,-0.0043945312,33.2489013672,-3.3874511719,77.1331787109
1.8107771873,-0.9199218750,0.3222656250,-0.0043945312,33.2489013672,-3.3874511719,77.1331787109
1.8137021065,-0.9111328125,0.3227539062,0.0117187500,35.0341796875,-6.0119628906,78.5522460938
1.8162891865,-0.9111328125,0.3227539062,0.0117187500,35.0341796875,-6.0119628906,78.5522460938
1.8188731670,-0.9111328125,0.3227539062,0.0117187500,38.4368896484,-7.8582763672,79.2999267578
1.8214421272,-0.9111328125,0.3227539062,0.0117187500,38.4368896484,-7.8582763672,79.2999267578
1.8240191936,-0.9331054688,0.3188476562,0.0449218750,42.0989990234,-9.9639892578,79.2541503906
1.8265900612,-0.9331054688,0.3188476562,0.0449218750,42.0989990234,-9.9639892578,79.2541503906
1.8292050362,-0.9331054688,0.3188476562,0.0449218750,45.4406738281,-11.9018554688,78.5980224609
1.8317770958,-0.9331054688,0.3188476562,0.0449218750,45.4406738281,-11.9018554688,78.5980224609
1.8343451023,-0.9619140625,0.3041992188,0.0405273438,45.4406738281,-13.8702392578,78.6285400391
1.8370230198,-0.9619140625,0.3041992188,0.0405273438,49.2095947266,-13.8702392578,78.6285400391
1.8395950794,-0.9619140625,0.3041992188,0.0405273438,49.2095947266,-17.7764892578,79.2541503906
1.8421671391,-0.9619140625,0.3041992188,0.0590820312,51.8341064453,-15.9912109375,79.2541503906
1.8447439671,-0.9697265625,0.3017578125,0.0590820312,51.8341064453,-15.9912109375,78.8726806641
1.8475670815,-0.9697265625,0.3017578125,0.0590820312,53.6651611328,-17.6391601562,78.8726806641
1.8501441479,-0.9697265625,0.3017578125,0.0590820312,53.6651611328,-17.6391601562,78.6590576172
1.8527221680,-0.9697265625,0.2998046875,0.0683593750,56.6253662109,-18.5394287109,78.6590576172
1.8552889824,-0.9399414062,0.2998046875,0.0683593750,56.6253662109,-18.5394287109,74.7528076172
1.8579909801,-0.9399414062,0.2998046875,0.0683593750,54.3212890625,-20.2941894531,76.8280029297
1.8605690002,-0.9399414062,0.2998046875,0.0683593750,54.3212890625,-20.2941894531,76.8280029297
1.8631420135,-0.9389648438,0.2456054688,0.1152343750,50.6591796875,-20.5535888672,74.0203857422
1.8657150269,-0.9389648438,0.2456054688,0.1152343750,50.6591796875,-20.5535888672,74.0203857422
1.8685421944,-0.9389648438,0.2456054688,0.1152343750,47.5463867188,-20.0805664062,71.9757080078
1.8712391853,-0.9389648438,0.2456054688,0.1152343750,47.5463867188,-20.0805664062,71.9757080078
1.8739349842,-0.9003906250,0.2568359375,0.1269531250,47.0886230469,-18.1579589844,71.6857910156
1.8766222000,-0.9003906250,0.2568359375,0.1269531250,47.0886230469,-18.1579589844,71.6857910156
1.8794281483,-0.9003906250,0.2568359375,0.1269531250,48.7823486328,-17.2424316406,73.7915039062
1.8821201324,-0.9003906250,0.2568359375,0.1269531250,48.7823486328,-17.2424316406,73.7915039062
1.8848140240,-0.8139648438,0.3437500000,0.1752929688,50.7507324219,-15.6250000000,77.5299072266
1.8875200748,-0.8139648438,0.3437500000,0.1752929688,50.7507324219,-15.6250000000,77.5299072266
1.8903021812,-0.8139648438,0.3437500000,0.1752929688,54.6417236328,-14.2669677734,80.2001953125
1.8929960728,-0.8139648438,0.3530273438,0.1875000000,54.6417236328,-14.2669677734,80.2001953125
1.8956911564,-0.7597656250,0.3530273438,0.1875000000,60.3027343750,-13.1683349609,80.0628662109
1.8984601498,-0.7597656250,0.3530273438,0.1875000000,60.3027343750,-13.1683349609,80.0628662109
1.9011580944,-0.7597656250,0.3530273438,0.1875000000,66.7572021484,-14.4958496094,79.8492431641
1.9038519859,-0.7050781250,0.4545898438,0.2382812500,66.7572021484,-14.4958496094,79.8492431641
1.9065480232,-0.7050781250,0.4545898438,0.2382812500,72.6013183594,-16.8914794922,81.3140869141
1.9092741013,-0.7050781250,0.4545898438,0.2382812500,72.6013183594,-16.8914794922,81.3140869141
1.9120721817,-0.7050781250,0.4545898438,0.2382812500,77.1179199219,-18.3410644531,82.5042724609
1.9147629738,-0.6484375000,0.4794921875,0.2763671875,77.1179199219,-18.3410644531,82.5042724609
1.9174680710,-0.6484375000,0.4794921875,0.2763671875,82.1838378906,-20.2178955078,82.8094482422
1.9201781750,-0.6484375000,0.4794921875,0.2763671875,82.1838378906,-20.2178955078,82.8094482422
1.9228889942,-0.6484375000,0.3544921875,0.2875976562,84.4726562500,-21.6827392578,79.8645019531
1.9256491661,-0.6005859375,0.2871093750,0.2875976562,84.4726562500,-21.6827392578,79.8645019531
1.9286851883,-0.6005859375,0.2871093750,0.2875976562,88.4857177734,-22.9339599609,72.4945068359
1.9313981533,-0.6005859375,0.2871093750,0.2875976562,88.4857177734,-22.9339599609,72.4945068359
1.9341089725,-0.5522460938,0.0444335938,0.2485351562,96.3745117188,-24.4140625000,63.8580322266
1.9368190765,-0.5522460938,0.0444335938,0.2485351562,96.3745117188,-24.4140625000,63.8580322266
1.9395351410,-0.5522460938,0.0444335938,0.2485351562,103.8360595703,-24.7955322266,54.3518066406
1.9422411919,-0.5522460938,0.0444335938,0.2485351562,103.8360595703,-24.7955322266,54.3518066406
1.9449460506,-0.4887695312,-0.0805664062,0.1718750000,109.0698242188,-26.1535644531,44.9371337891
1.9476711750,-0.4887695312,-0.0805664062,0.1718750000,109.0698242188,-26.1535644531,44.9371337891
1.9503791332,-0.4887695312,-0.0805664062,0.1718750000,113.7084960938,-29.9224853516,37.7197265625
1.9530839920,-0.4887695312,-0.0805664062,0.1318359375,113.7084960938,-29.9224853516,37.7197265625
1.9557940960,-0.4809570312,0.0014648438,0.1318359375,117.6757812500,-32.1502685547,32.5927734375
1.9584469795,-0.4809570312,0.0014648438,0.1318359375,117.6757812500,-32.1502685547,32.5927734375
1.9610240459,-0.4809570312,0.0014648438,0.1318359375,120.6207275391,-31.5856933594,25.4058837891
1.9636011124,-0.4809570312,-0.1293945312,0.0595703125,120.6207275391,-31.5856933594,25.4058837891
1.9661769867,-0.4858398438,-0.1293945312,0.0595703125,124.2980957031,-30.7006835938,14.6636962891
1.9688220024,-0.4858398438,-0.1293945312,0.0595703125,124.2980957031,-30.7006835938,14.6636962891
1.9714009762,-0.4858398438,-0.1293945312,0.0595703125,125.2441406250,-29.8767089844,4.4250488281
1.9739739895,-0.4858398438,-0.1816406250,-0.0014648438,125.2441406250,-29.8767089844,4.4250488281
1.9766600132,-0.4565429688,-0.1816406250,-0.0014648438,122.5891113281,-29.7088623047,-3.9825439453
1.9793550968,-0.4565429688,-0.1816406250,-0.0014648438,122.5891113281,-29.7088623047,-3.9825439453
1.9819321632,-0.4565429688,-0.1816406250,-0.0014648438,115.9057617188,-30.3192138672,-10.7727050781
1.9845111370,-0.4794921875,-0.1367187500,-0.0556640625,115.9057617188,-30.3192138672,-10.7727050781
1.9871411324,-0.4794921875,-0.1367187500,-0.0556640625,106.0180664062,-30.7312011719,-16.2506103516
1.9898631573,-0.4794921875,-0.1367187500,-0.0556640625,106.0180664062,-30.7312011719,-16.2506103516
1.9925761223,-0.4794921875,-0.1367187500,-0.0556640625,96.9085693359,-30.7464599609,-21.6827392578
1.9952831268,-0.4765625000,-0.0722656250,-0.0810546875,96.9085693359,-30.7464599609,-21.6827392578
1.9979920387,-0.4765625000,-0.0722656250,-0.0810546875,88.4704589844,-30.3649902344,-27.9846191406
2.0006990433,-0.4765625000,-0.0722656250,-0.0810546875,88.4704589844,-30.3649902344,-27.9846191406
2.0034050941,-0.4765625000,-0.0722656250,-0.0917968750,79.8492431641,-30.1971435547,-33.9813232422
2.0061120987,-0.4741210938,-0.0322265625,-0.0917968750,79.8492431641,-30.1971435547,-33.9813232422
2.0087740421,-0.4741210938,-0.0322265625,-0.0917968750,68.1304931641,-30.7769775391,-40.5273437500
2.0113480091,-0.4741210938,-0.0322265625,-0.0917968750,69.4732666016,-30.7769775391,-40.5273437500
2.0139210224,-0.4741210938,-0.0322265625,-0.1020507812,69.4732666016,-30.7769775391,-46.4782714844
2.0164961815,-0.4750976562,-0.0424804688,-0.1020507812,58.0902099609,-31.2042236328,-46.4782714844
2.0190730095,-0.4750976562,-0.0424804688,-0.1020507812,58.0902099609,-31.2042236328,-52.3071289062
2.0216519833,-0.4750976562,-0.0424804688,-0.1020507812,45.2880859375,-32.2723388672,-52.3071289062
2.0242280960,-0.4750976562,-0.0419921875,-0.1000976562,45.2880859375,-32.2723388672,-56.2133789062
2.0268051624,-0.4941406250,-0.0419921875,-0.1000976562,30.8837890625,-33.3404541016,-58.5021972656
2.0295131207,-0.4941406250,-0.0419921875,-0.1000976562,30.8837890625,-33.3404541016,-66.3146972656
2.0322079659,-0.4941406250,-0.0419921875,-0.1000976562,16.7694091797,-33.9965820312,-64.1021728516
2.0348961353,-0.5170898438,-0.0195312500,-0.0927734375,16.7694091797,-33.9965820312,-64.1021728516
2.0375931263,-0.5170898438,-0.0195312500,-0.0927734375,4.0130615234,-34.1186523438,-68.9849853516
2.0403661728,-0.5170898438,-0.0195312500,-0.0927734375,4.0130615234,-34.1186523438,-68.9849853516
2.0430750847,-0.5170898438,-0.0195312500,-0.0927734375,-8.0413818359,-33.8897705078,-73.7915039062
2.0458920002,-0.5468750000,0.0131835938,-0.0830078125,-8.0413818359,-33.8897705078,-81.6040039062
2.0485870838,-0.5468750000,0.0131835938,-0.0830078125,-19.5007324219,-33.5083007812,-78.3386230469
2.0513010025,-0.5468750000,0.0131835938,-0.0830078125,-19.5007324219,-33.5083007812,-78.3386230469
2.0540120602,-0.5468750000,0.0131835938,-0.0839843750,-29.4189453125,-33.2641601562,-82.0007324219
2.0567240715,-0.5610351562,0.0756835938,-0.0839843750,-29.4189453125,-33.2641601562,-82.0007324219
2.0593590736,-0.5610351562,0.0756835938,-0.0839843750,-37.4755859375,-33.1420898438,-85.3424072266
2.0619320869,-0.5610351562,0.0756835938,-0.0839843750,-37.4755859375,-33.1420898438,-85.3424072266
2.0646710396,-0.5610351562,0.1386718750,-0.0639648438,-43.4265136719,-32.9742431641,-88.5467529297
2.0676121712,-0.5722656250,0.1386718750,-0.0639648438,-43.4265136719,-32.9742431641,-92.4530029297
2.0703270435,-0.5722656250,0.1386718750,-0.0639648438,-48.1109619141,-31.9671630859,-92.0867919922
2.0730361938,-0.5722656250,0.1386718750,-0.0639648438,-48.1109619141,-31.9671630859,-95.9930419922
2.0757441521,-0.6010742188,0.1660156250,-0.0571289062,-51.6967773438,-30.6549072266,-95.7489013672
2.0783970356,-0.6010742188,0.1660156250,-0.0571289062,-51.6967773438,-30.6549072266,-95.7489013672
2.0809690952,-0.6010742188,0.1660156250,-0.0571289062,-54.0618896484,-29.6478271484,-98.9379882812
2.0835461617,-0.6010742188,0.1660156250,-0.0571289062,-54.0618896484,-29.6478271484,-98.9379882812
2.0861260891,-0.6127929688,0.1987304688,-0.0473632812,-55.4962158203,-28.7628173828,-102.2644042969
2.0888040066,-0.6127929688,0.1987304688,-0.0473632812,-55.4962158203,-28.7628173828,-102.2644042969
2.0915060043,-0.6127929688,0.1987304688,-0.0473632812,-55.7098388672,-27.6641845703,-106.3232421875
2.0942139626,-0.6127929688,0.1987304688,-0.0473632812,-55.7098388672,-27.6641845703,-106.3232421875
2.0969631672,-0.6289062500,0.2363281250,-0.0483398438,-54.4891357422,-26.1993408203,-109.8785400391
2.0995371342,-0.6289062500,0.2363281250,-0.0483398438,-54.4891357422,-26.1993408203,-109.8785400391
2.1021111012,-0.6289062500,0.2363281250,-0.0483398438,-52.4444580078,-25.4058837891,-113.6627197266
2.1047990322,-0.6289062500,0.3613281250,-0.0322265625,-52.4444580078,-25.4058837891,-113.6627197266
2.1074161530,-0.6464843750,0.2641601562,-0.0322265625,-50.2319335938,-24.5819091797,-117.1264648438
2.1101090908,-0.6464843750,0.2641601562,-0.0322265625,-50.2319335938,-24.5819091797,-117.1264648438
2.1126930714,-0.6464843750,0.2641601562,-0.0322265625,-46.9207763672,-23.5290527344,-120.6054687500
2.1152720451,-0.6464843750,0.2919921875,-0.0229492188,-46.9207763672,-23.5290527344,-120.6054687500
2.1180779934,-0.6728515625,0.2919921875,-0.0229492188,-43.6859130859,-22.3083496094,-123.7792968750
2.1206569672,-0.6728515625,0.2919921875,-0.0229492188,-43.6859130859,-22.3083496094,-123.7792968750
2.1232330799,-0.6728515625,0.2919921875,-0.0229492188,-40.5731201172,-21.6979980469,-126.6937255859
2.1258101463,-0.6909179688,0.2983398438,-0.0107421875,-40.5731201172,-21.6979980469,-126.6937255859
2.1286211014,-0.6909179688,0.2983398438,-0.0107421875,-37.9486083984,-20.9960937500,-130.1574707031
2.1312980652,-0.6909179688,0.2983398438,-0.0107421875,-37.9486083984,-20.9960937500,-130.1574707031
2.1342070103,-0.6909179688,0.2983398438,-0.0107421875,-36.3159179688,-20.3247070312,-132.7972412109
2.1367840767,-0.7060546875,0.2900390625,-0.0219726562,-36.3159179688,-20.3247070312,-132.7972412109
2.1394190788,-0.7060546875,0.2900390625,-0.0219726562,-36.3159179688,-19.3634033203,-135.3149414062
2.1419970989,-0.7060546875,0.2900390625,-0.0219726562,-35.5834960938,-19.3634033203,-135.3149414062
2.1445720196,-0.7060546875,0.2900390625,-0.0219726562,-35.5834960938,-18.4020996094,-136.9476318359
2.1472110748,-0.7294921875,0.2846679688,-0.0185546875,-35.3546142578,-18.4020996094,-136.9476318359
2.1497721672,-0.7294921875,0.2846679688,-0.0185546875,-35.3546142578,-18.4020996094,-138.6108398438
2.1523420811,-0.7294921875,0.2846679688,-0.0185546875,-36.4685058594,-17.4713134766,-138.6108398438
2.1549170017,-0.7294921875,0.2846679688,-0.0297851562,-36.4685058594,-17.4713134766,-138.6108398438
2.1574959755,-0.7392578125,0.2646484375,-0.0297851562,-39.0625000000,-16.6320800781,-140.3961181641
2.1600620747,-0.7392578125,0.2646484375,-0.0297851562,-39.0625000000,-16.6320800781,-140.3961181641
2.1626350880,-0.7392578125,0.2646484375,-0.0297851562,-42.4957275391,-15.8081054688,-141.6168212891
2.1652030945,-0.7392578125,0.2646484375,-0.0239257812,-42.4957275391,-15.8081054688,-141.6168212891
2.1679611206,-0.7548828125,0.2460937500,-0.0239257812,-46.7987060547,-15.1214599609,-143.2342529297
2.1705331802,-0.7548828125,0.2460937500,-0.0239257812,-46.7987060547,-15.1214599609,-143.2342529297
2.1731061935,-0.7548828125,0.2460937500,-0.0239257812,-52.5665283203,-13.9923095703,-145.1721191406
2.1756851673,-0.7548828125,0.2324218750,-0.0190429688,-52.5665283203,-13.9923095703,-145.1721191406
2.1783721447,-0.7812500000,0.2324218750,-0.0190429688,-59.2651367188,-13.0767822266,-146.7285156250
2.1809511185,-0.7812500000,0.2324218750,-0.0190429688,-59.2651367188,-13.0767822266,-146.7285156250
2.1835310459,-0.7812500000,0.2324218750,-0.0190429688,-65.7196044922,-12.0544433594,-147.8424072266
2.1861081123,-0.7841796875,0.2460937500,-0.0258789062,-65.7196044922,-12.0544433594,-147.8424072266
2.1888711452,-0.7841796875,0.2460937500,-0.0258789062,-71.7468261719,-11.9781494141,-148.9105224609
2.1915831566,-0.7841796875,0.2460937500,-0.0258789062,-71.7468261719,-11.9781494141,-148.9105224609
2.1942870617,-0.7841796875,0.2460937500,-0.0258789062,-78.1250000000,-11.0626220703,-150.9399414062
2.1970081329,-0.8012695312,0.2563476562,0.0014648438,-78.1250000000,-11.0626220703,-150.9399414062
2.1995911598,-0.8012695312,0.2563476562,0.0014648438,-83.4503173828,-10.1318359375,-152.1911621094
2.2021691799,-0.8012695312,0.2563476562,0.0014648438,-83.4503173828,-10.1318359375,-152.1911621094
2.2047531605,-0.8012695312,0.2563476562,0.0014648438,-87.3565673828,-9.2773437500,-153.5644531250
2.2073471546,-0.8198242188,0.2666015625,0.0146484375,-88.1652832031,-9.2773437500,-153.5644531250
2.2100620270,-0.8198242188,0.2666015625,0.0146484375,-91.9494628906,-8.8043212891,-155.4260253906
2.2127959728,-0.8198242188,0.2666015625,0.0146484375,-91.9494628906,-8.8043212891,-155.4260253906
2.2153720856,-0.8198242188,0.2666015625,0.0146484375,-91.9494628906,-8.1939697266,-156.7382812500
2.2180240154,-0.8598632812,0.2661132812,0.0278320312,-93.4600830078,-8.1939697266,-156.7382812500
2.2206959724,-0.8598632812,0.2661132812,0.0278320312,-93.4600830078,-4.2877197266,-158.0047607422
2.2235820293,-0.8598632812,0.2661132812,0.0278320312,-96.0235595703,-7.7362060547,-158.0047607422
2.2261581421,-0.8598632812,0.2412109375,0.0483398438,-96.0235595703,-7.1563720703,-159.3322753906
2.2288060188,-0.8862304688,0.2412109375,0.0483398438,-98.8464355469,-7.1563720703,-159.3322753906
2.2314941883,-0.8862304688,0.2412109375,0.0483398438,-98.8464355469,-7.1563720703,-160.5834960938
2.2340631485,-0.8862304688,0.2412109375,0.0483398438,-101.8066406250,-6.7596435547,-160.5834960938
2.2366290092,-0.9106445312,0.2270507812,0.0668945312,-101.8066406250,-6.7596435547,-161.3159179688
2.2392029762,-0.9106445312,0.2270507812,0.0668945312,-104.7821044922,-6.0119628906,-161.3159179688
2.2417750359,-0.9106445312,0.2270507812,0.0668945312,-104.7821044922,-6.0119628906,-161.3159179688
2.2443451881,-0.9106445312,0.2270507812,0.0668945312,-107.7575683594,-5.4626464844,-161.9110107422
2.2469179630,-0.9140625000,0.2299804688,0.0839843750,-107.7575683594,-5.4626464844,-161.9110107422
2.2495350838,-0.9140625000,0.2299804688,0.0839843750,-110.7482910156,-5.0659179688,-162.7197265625
2.2521061897,-0.9140625000,0.2299804688,0.0839843750,-110.7482910156,-5.0659179688,-162.7197265625
2.2546761036,-0.9140625000,0.2299804688,0.0839843750,-112.5030517578,-4.7454833984,-163.2385253906
2.2572891712,-0.9121093750,0.2226562500,0.0874023438,-112.5030517578,-4.7454833984,-163.2385253906
2.2598590851,-0.9121093750,0.2226562500,0.0874023438,-114.2883300781,-5.6915283203,-163.2995605469
2.2624261379,-0.9121093750,0.2226562500,0.0874023438,-114.2883300781,-5.6915283203,-163.2995605469
2.2649950981,-0.9121093750,0.2226562500,0.0874023438,-116.0736083984,-5.9051513672,-164.0014648438
2.2676150799,-0.9213867188,0.2275390625,0.1093750000,-116.0736083984,-5.9051513672,-164.0014648438
2.2701921463,-0.9213867188,0.2275390625,0.1093750000,-116.8212890625,-5.4779052734,-164.1235351562
2.2727701664,-0.9213867188,0.2275390625,0.1093750000,-116.8212890625,-5.4779052734,-164.1235351562
2.2753641605,-0.9213867188,0.2275390625,0.1093750000,-116.8212890625,-5.6762695312,-163.9556884766
2.2780101299,-0.9379882812,0.2348632812,0.1079101562,-117.1569824219,-5.6762695312,-163.9556884766
2.2807180882,-0.9379882812,0.2348632812,0.1079101562,-117.1569824219,-6.1187744141,-164.5965576172
2.2834231853,-0.9379882812,0.2348632812,0.1079101562,-116.3787841797,-6.1187744141,-164.5965576172
2.2861301899,-0.9379882812,0.2348632812,0.1044921875,-116.3787841797,-5.3863525391,-164.8559570312
2.2888779640,-0.9511718750,0.2387695312,0.1044921875,-115.1885986328,-5.3863525391,-164.8559570312
2.2915811539,-0.9511718750,0.2387695312,0.1044921875,-115.1885986328,-5.0201416016,-164.8712158203
2.2943971157,-0.9511718750,0.2387695312,0.1044921875,-114.2120361328,-5.0201416016,-164.8712158203
2.2971069813,-0.9511718750,0.2412109375,0.0961914062,-114.2120361328,-4.3487548828,-164.9017333984
2.2996861935,-0.9614257812,0.2412109375,0.0961914062,-113.5711669922,-4.3487548828,-164.9017333984
2.3022651672,-0.9614257812,0.2412109375,0.0961914062,-113.5711669922,-0.4425048828,-164.7949218750
2.3048391342,-0.9614257812,0.2412109375,0.0961914062,-111.5570068359,-3.2958984375,-164.7949218750
2.3074791431,-0.9667968750,0.2524414062,0.0761718750,-111.5570068359,-3.2958984375,-164.3676757812
2.3101890087,-0.9667968750,0.2524414062,0.0761718750,-109.2681884766,-2.5787353516,-164.3676757812
2.3128941059,-0.9667968750,0.2524414062,0.0761718750,-109.2681884766,-2.5787353516,-163.7420654297
2.3156001568,-0.9667968750,0.2524414062,0.0761718750,-106.9641113281,-1.5869140625,-163.7420654297
2.3183190823,-0.9858398438,0.2490234375,0.0981445312,-106.9641113281,-1.5869140625,-162.6434326172
2.3210320473,-0.9858398438,0.2490234375,0.0981445312,-104.6447753906,-1.4038085938,-162.6434326172
2.3237431049,-0.9858398438,0.2490234375,0.0981445312,-104.6447753906,-1.4038085938,-161.4990234375
2.3264491558,-0.9858398438,0.2490234375,0.0981445312,-101.5625000000,-1.3427734375,-161.4990234375
2.3291711807,-0.9790039062,0.2841796875,0.0722656250,-101.5625000000,-1.3427734375,-160.5834960938
2.3318781853,-0.9790039062,0.2841796875,0.0722656250,-96.7864990234,-0.7476806641,-160.5834960938
2.3347029686,-0.9790039062,0.2841796875,0.0722656250,-96.7864990234,-0.7476806641,-158.5083007812
2.3378582001,-0.9624023438,0.2934570312,0.0585937500,-89.4622802734,0.1525878906,-158.5083007812
2.3405711651,-0.9624023438,0.2934570312,0.0585937500,-89.4622802734,0.7476806641,-156.9671630859
2.3432819843,-0.9624023438,0.2934570312,0.0585937500,-82.0465087891,0.7476806641,-156.9671630859
2.3459880352,-0.9624023438,0.2934570312,0.0585937500,-82.0465087891,1.1291503906,-155.1361083984
2.3486280441,-0.9624023438,0.2832031250,0.0532226562,-75.7751464844,1.1291503906,-155.1361083984
2.3512029648,-0.9624023438,0.2832031250,0.0532226562,-75.7751464844,1.1291503906,-153.6102294922
2.3537790775,-0.9624023438,0.2832031250,0.0532226562,-68.7713623047,1.7089843750,-153.6102294922
2.3563501835,-0.9624023438,0.2832031250,0.0532226562,-68.7713623047,1.7089843750,-152.0385742188
2.3591830730,-0.9682617188,0.2636718750,0.0537109375,-61.5692138672,2.5024414062,-152.0385742188
2.3618841171,-0.9682617188,0.2636718750,0.0537109375,-61.5692138672,2.5024414062,-150.1464843750
2.3645889759,-0.9682617188,0.2636718750,0.0537109375,-55.4351806641,2.8991699219,-150.1464843750
2.3672940731,-0.9682617188,0.2636718750,0.0522460938,-55.4351806641,2.8991699219,-147.8271484375
2.3698689938,-0.9531250000,0.2602539062,0.0522460938,-49.6520996094,3.4790039062,-147.8271484375
2.3724460602,-0.9531250000,0.2602539062,0.0522460938,-49.6520996094,3.4790039062,-147.8271484375
2.3750221729,-0.9531250000,0.2602539062,0.0522460938,-44.3878173828,3.9520263672,-145.1416015625
2.3776581287,-0.9531250000,0.2705078125,0.0556640625,-44.3878173828,3.9520263672,-145.1416015625
2.3802289963,-0.9072265625,0.2705078125,0.0556640625,-39.3829345703,3.1738281250,-142.3187255859
2.3828041553,-0.9072265625,0.2705078125,0.0556640625,-39.3829345703,3.1738281250,-142.3187255859
2.3853750229,-0.9072265625,0.2705078125,0.0556640625,-33.5845947266,2.4719238281,-139.0991210938
2.3879940510,-0.7822265625,0.3037109375,0.0673828125,-33.5845947266,2.4719238281,-139.0991210938
2.3905651569,-0.8696289062,0.3037109375,0.0673828125,-27.2827148438,1.3885498047,-135.1470947266
2.3931391239,-0.8696289062,0.3037109375,0.0673828125,-27.2827148438,1.3885498047,-135.1470947266
2.3957180977,-0.8696289062,0.3037109375,0.0673828125,-21.9726562500,0.1373291016,-130.5541992188
2.3985011578,-0.8334960938,0.3154296875,0.0834960938,-21.9726562500,0.1373291016,-130.5541992188
2.4011931419,-0.8334960938,0.3154296875,0.0834960938,-17.1051025391,-1.4495849609,-126.9378662109
2.4038870335,-0.8334960938,0.3154296875,0.0834960938,-17.1051025391,-1.4495849609,-126.9378662109
2.4065761566,-0.8334960938,0.3154296875,0.0834960938,-12.5427246094,-3.6621093750,-122.9858398438
2.4092760086,-0.7861328125,0.3178710938,0.0825195312,-12.5427246094,-3.6621093750,-122.9858398438
2.4119629860,-0.7861328125,0.3178710938,0.0825195312,-8.9263916016,-5.8441162109,-118.5913085938
2.4146499634,-0.7861328125,0.3178710938,0.0825195312,-8.9263916016,-5.8441162109,-118.5913085938
2.4176039696,-0.7861328125,0.3178710938,0.0820312500,-5.2185058594,-8.2397460938,-113.9984130859
2.4202680588,-0.7548828125,0.3178710938,0.0820312500,-5.2185058594,-8.2397460938,-113.9984130859
2.4238309860,-0.7548828125,0.3178710938,0.0820312500,-1.0986328125,-10.7727050781,-108.6425781250
2.4265460968,-0.7548828125,0.3178710938,0.0820312500,-1.0986328125,-10.7727050781,-108.6425781250
2.4292759895,-0.7426757812,0.3530273438,0.0605468750,3.3111572266,-13.8092041016,-102.1270751953
2.4319829941,-0.7426757812,0.3530273438,0.0605468750,3.3111572266,-13.8092041016,-102.1270751953
2.4346899986,-0.7426757812,0.3530273438,0.0605468750,9.3536376953,-15.6707763672,-95.7946777344
2.4374020100,-0.7426757812,0.3530273438,0.0605468750,9.3536376953,-15.6707763672,-95.7946777344
2.4401099682,-0.7099609375,0.4365234375,0.0356445312,17.0593261719,-17.6696777344,-89.3249511719
2.4428210258,-0.7099609375,0.4365234375,0.0356445312,17.0593261719,-17.6696777344,-89.3249511719
2.4455280304,-0.7099609375,0.4365234375,0.0356445312,25.6347656250,-19.9127197266,-82.2143554688
2.4482831955,-0.7099609375,0.4594726562,0.0048828125,25.6347656250,-19.9127197266,-82.2143554688
2.4509930611,-0.6860351562,0.4594726562,0.0048828125,34.0270996094,-21.7590332031,-75.2563476562
2.4537031651,-0.6860351562,0.4594726562,0.0048828125,34.0270996094,-21.7590332031,-75.2563476562
2.4564080238,-0.6860351562,0.4594726562,0.0048828125,41.8395996094,-23.2696533203,-68.1762695312
2.4590361118,-0.6962890625,0.4409179688,-0.0219726562,41.8395996094,-23.2696533203,-68.1762695312
2.4616091251,-0.6962890625,0.4409179688,-0.0219726562,47.7294921875,-23.2543945312,-61.3861083984
2.4641900063,-0.6962890625,0.4409179688,-0.0219726562,47.7294921875,-23.2543945312,-61.3861083984
2.4667651653,-0.6962890625,0.4409179688,-0.0219726562,51.3153076172,-22.2167968750,-53.8330078125
2.4694859982,-0.7211914062,0.3911132812,-0.0527343750,51.3153076172,-22.2167968750,-53.8330078125
2.4720730782,-0.7211914062,0.3911132812,-0.0527343750,52.8564453125,-19.9890136719,-45.5780029297
2.4746520519,-0.7211914062,0.3911132812,-0.0527343750,52.8564453125,-19.9890136719,-45.5780029297
2.4773750305,-0.7211914062,0.3911132812,-0.0527343750,52.8106689453,-16.8609619141,-36.6363525391
2.4800901413,-0.7294921875,0.3574218750,-0.0839843750,52.8106689453,-16.8609619141,-36.6363525391
2.4828031063,-0.7294921875,0.3574218750,-0.0839843750,49.9267578125,-13.9007568359,-27.1759033203
2.4855091572,-0.7294921875,0.3574218750,-0.0839843750,49.9267578125,-13.9007568359,-27.1759033203
2.4882080555,-0.7294921875,0.3574218750,-0.1010742188,46.0052490234,-10.4827880859,-17.0288085938
2.4908931255,-0.7397460938,0.3681640625,-0.1010742188,46.0052490234,-10.4827880859,-17.0288085938
2.4934761524,-0.7397460938,0.3681640625,-0.1010742188,40.6646728516,-7.2021484375,-6.1492919922
2.4960470200,-0.7397460938,0.3681640625,-0.1010742188,40.6646728516,-7.2021484375,-6.1492919922
2.4987089634,-0.7397460938,0.3842773438,-0.1000976562,35.4461669922,-4.5776367188,4.0435791016
2.5014200211,-0.7143554688,0.3842773438,-0.1000976562,35.4461669922,-4.5776367188,4.0435791016
2.5041170120,-0.7143554688,0.3842773438,-0.1000976562,30.3955078125,-1.9378662109,14.6179199219
2.5068280697,-0.7143554688,0.3842773438,-0.1000976562,30.3955078125,-1.9378662109,14.6179199219
2.5095491409,-0.7006835938,0.3950195312,-0.0810546875,26.2145996094,-0.0457763672,24.7497558594
2.5122551918,-0.7006835938,0.3950195312,-0.0810546875,26.2145996094,-0.0457763672,24.7497558594
2.5149621964,-0.7006835938,0.3950195312,-0.0810546875,22.3083496094,1.2054443359,33.9660644531
2.5176820755,-0.7006835938,0.3950195312,-0.0810546875,22.9187011719,1.2054443359,33.9660644531
2.5203881264,-0.6972656250,0.3930664062,-0.0512695312,22.9187011719,2.0599365234,41.8548583984
2.5230941772,-0.6972656250,0.3930664062,-0.0512695312,20.5383300781,2.0599365234,41.8548583984
2.5257961750,-0.6972656250,0.3930664062,-0.0512695312,16.6320800781,2.9907226562,49.5300292969
2.5285141468,-0.6972656250,0.3930664062,-0.0400390625,17.1813964844,2.9907226562,49.5300292969
2.5312170982,-0.6845703125,0.3642578125,-0.0400390625,13.2751464844,3.9062500000,57.0526123047
2.5340061188,-0.6845703125,0.3642578125,-0.0400390625,14.4042968750,3.9062500000,57.0526123047
2.5371091366,-0.6845703125,0.3642578125,-0.0400390625,9.7503662109,4.4555664062,64.1326904297
2.5396850109,-0.6811523438,0.3354492188,-0.0151367188,9.7503662109,4.4555664062,64.1326904297
2.5422570705,-0.6811523438,0.3354492188,-0.0151367188,5.0659179688,4.6234130859,71.7010498047
2.5448269844,-0.6811523438,0.3354492188,-0.0151367188,5.0659179688,4.6234130859,71.7010498047
2.5474650860,-0.6811523438,0.3354492188,-0.0151367188,1.1596679688,4.7912597656,79.4372558594
2.5501801968,-0.7001953125,0.3291015625,0.0117187500,0.0915527344,4.7912597656,79.4372558594
2.5528821945,-0.7001953125,0.3291015625,0.0117187500,-7.7209472656,4.2724609375,86.3037109375
2.5556950569,-0.7001953125,0.3291015625,0.0117187500,-5.1574707031,4.2724609375,86.3037109375
2.5584030151,-0.7001953125,0.3291015625,0.0117187500,-9.0637207031,0.0610351562,85.2508544922
2.5611050129,-0.7031250000,0.0957031250,0.1870117188,-9.7503662109,0.0610351562,85.2508544922
2.5638101101,-0.7031250000,0.0957031250,0.1870117188,-17.5628662109,-6.6375732422,81.0546875000
2.5665111542,-0.7031250000,0.0957031250,0.1870117188,-18.2800292969,-6.6375732422,81.0546875000
2.5691499710,-0.7031250000,-0.1542968750,0.2314453125,-18.2800292969,-6.3171386719,82.0159912109
2.5717260838,-0.7592773438,-0.2446289062,0.2314453125,-23.8494873047,-6.3171386719,82.0159912109
2.5743041039,-0.7592773438,-0.2446289062,0.2314453125,-23.8494873047,-6.3171386719,79.2083740234
2.5768799782,-0.7592773438,-0.2446289062,0.2314453125,-20.3552246094,-8.3160400391,79.2083740234
2.5794641972,-0.7592773438,-0.7758789062,0.2075195312,-20.3552246094,-8.3160400391,67.4896240234
2.5820400715,-0.7978515625,-0.7758789062,0.2075195312,-23.7579345703,-8.9721679688,69.9768066406
2.5846211910,-0.7978515625,-0.7758789062,0.2075195312,-23.7579345703,-8.9721679688,69.9768066406
2.5873770714,-0.7978515625,-0.7758789062,0.2075195312,-23.7731933594,-3.7994384766,63.0187988281
2.5899491310,-0.9785156250,-0.8964843750,-0.2045898438,-23.7731933594,-3.7994384766,63.0187988281
2.5925281048,-0.9785156250,-0.8964843750,-0.2045898438,-19.5465087891,1.6326904297,60.6384277344
2.5951020718,-0.9785156250,-0.8964843750,-0.2045898438,-19.5465087891,1.6326904297,60.6384277344
2.5978090763,-0.9785156250,-0.8964843750,-0.2045898438,-30.3192138672,4.9438476562,64.2700195312
2.6005091667,-0.9350585938,-0.4204101562,-0.3422851562,-30.3192138672,4.9438476562,64.2700195312
2.6032149792,-0.9350585938,-0.4204101562,-0.3422851562,-51.2084960938,5.7678222656,72.2045898438
2.6059260368,-0.9350585938,-0.4204101562,-0.3422851562,-51.2084960938,5.7678222656,72.2045898438
2.6086750031,-0.9350585938,-0.4204101562,-0.3422851562,-65.5975341797,6.6070556641,81.5887451172
2.6113791466,-0.9169921875,0.0244140625,-0.1953125000,-65.5975341797,6.6070556641,81.5887451172
2.6140890121,-0.9169921875,0.0244140625,-0.1953125000,-71.3043212891,7.1716308594,90.0726318359
2.6167910099,-0.9169921875,0.0244140625,-0.1953125000,-71.3043212891,7.1716308594,90.0726318359
2.6194951534,-0.9169921875,0.0244140625,0.0214843750,-73.1353759766,5.4931640625,96.7254638672
2.6220710278,-0.9584960938,0.2373046875,0.0214843750,-73.1353759766,5.4931640625,96.7254638672
2.6246411800,-0.9584960938,0.2373046875,0.0214843750,-69.4427490234,1.9378662109,100.8911132812
2.6272749901,-0.9584960938,0.2373046875,0.0214843750,-69.4427490234,1.9378662109,100.8911132812
2.6299760342,-0.9584960938,0.2075195312,0.0483398438,-57.4188232422,-2.2430419922,103.7597656250
2.6326770782,-0.9750976562,0.2075195312,0.0483398438,-57.4188232422,-2.2430419922,103.7597656250
2.6353871822,-0.9750976562,0.2075195312,0.0483398438,-39.8254394531,-4.8370361328,105.5450439453
2.6381051540,-0.9750976562,0.2075195312,0.0483398438,-39.8254394531,-4.8370361328,105.5450439453
2.6408910751,-0.9458007812,0.1958007812,-0.0961914062,-23.2086181641,-5.6762695312,105.8502197266
2.6435840130,-0.9458007812,0.1958007812,-0.0961914062,-23.2086181641,-5.6762695312,105.8502197266
2.6462700367,-0.9458007812,0.1958007812,-0.0961914062,-12.6953125000,-6.8511962891,104.5074462891
2.6489591599,-0.9458007812,0.1958007812,-0.0961914062,-12.6953125000,-6.8511962891,104.5074462891
2.6517260075,-0.8310546875,0.1528320312,-0.0952148438,-9.1094970703,-9.3536376953,101.4404296875
2.6545970440,-0.8310546875,0.1528320312,-0.0952148438,-9.1094970703,-9.3536376953,101.4404296875
2.6576871872,-0.8310546875,0.1528320312,-0.0952148438,-10.1776123047,-12.8173828125,97.3052978516
2.6604790688,-0.7060546875,0.0795898438,0.0288085938,-10.1776123047,-12.8173828125,97.3052978516
2.6631760597,-0.7416992188,0.0795898438,0.0288085938,-13.5040283203,-15.7928466797,93.0328369141
2.6658730507,-0.7416992188,0.0795898438,0.0288085938,-13.5040283203,-15.7928466797,93.0328369141
2.6685080528,-0.7416992188,0.0795898438,0.0288085938,-16.1132812500,-16.6320800781,89.2944335938
2.6711981297,-0.7402343750,0.0742187500,0.0727539062,-16.1132812500,-16.6320800781,89.2944335938
2.6737740040,-0.7402343750,0.0742187500,0.0727539062,-17.7001953125,-15.6707763672,86.1968994141
2.6763570309,-0.7402343750,0.0742187500,0.0727539062,-17.7001953125,-15.6707763672,86.1968994141
2.6790549755,-0.7402343750,0.0742187500,0.0727539062,-20.5383300781,-15.3656005859,84.1827392578
2.6817901134,-0.7758789062,0.0883789062,0.0751953125,-20.5383300781,-15.3656005859,84.1827392578
2.6846220493,-0.7758789062,0.0883789062,0.0751953125,-25.7873535156,-16.0827636719,82.7789306641
2.6873350143,-0.7758789062,0.0883789062,0.0751953125,-25.7873535156,-16.0827636719,82.7789306641
2.6899061203,-0.7758789062,0.0883789062,0.0751953125,-29.9377441406,-16.6473388672,81.8939208984
2.6924932003,-0.7841796875,0.1269531250,0.1040039062,-29.9377441406,-16.6473388672,81.8939208984
2.6950631142,-0.7841796875,0.1269531250,0.1040039062,-31.3720703125,-17.3797607422,80.7037353516
2.6976840496,-0.7841796875,0.1269531250,0.1040039062,-31.3720703125,-17.3797607422,80.7037353516
2.7002589703,-0.7841796875,0.1269531250,0.1708984375,-30.2734375000,-17.8527832031,79.4067382812
2.7028369904,-0.7900390625,0.2065429688,0.1708984375,-30.2734375000,-17.8527832031,79.4067382812
2.7054171562,-0.7900390625,0.2065429688,0.1708984375,-26.3671875000,-18.2952880859,77.5604248047
2.7081511021,-0.7900390625,0.2065429688,0.1708984375,-26.0925292969,-18.2952880859,77.5604248047
2.7107310295,-0.7900390625,0.2944335938,0.2416992188,-26.0925292969,-18.5546875000,75.2716064453
2.7133131027,-0.7797851562,0.2944335938,0.2416992188,-19.3023681641,-18.5546875000,75.2716064453
2.7158930302,-0.7797851562,0.2944335938,0.2416992188,-19.3023681641,-18.5546875000,71.7468261719
2.7185831070,-0.7797851562,0.2944335938,0.2416992188,-12.7868652344,-19.1650390625,71.7468261719
2.7211601734,-0.7646484375,0.3017578125,0.2534179688,-12.7868652344,-19.1650390625,67.4896240234
2.7238869667,-0.7646484375,0.3017578125,0.2534179688,-6.1798095703,-19.3634033203,67.4896240234
2.7264599800,-0.7646484375,0.3017578125,0.2534179688,-6.1798095703,-19.3634033203,62.9730224609
2.7292010784,-0.7646484375,0.3017578125,0.2534179688,1.0070800781,-17.2576904297,62.9730224609
2.7318661213,-0.7446289062,0.2241210938,0.1318359375,9.9792480469,-15.2282714844,58.5632324219
2.7354121208,-0.7446289062,0.2241210938,0.1318359375,9.9792480469,-15.2282714844,58.5632324219
2.7380549908,-0.7446289062,0.2241210938,0.1318359375,17.7917480469,-12.9241943359,54.0924072266
2.7406330109,-0.7446289062,0.2241210938,0.0068359375,17.9595947266,-12.9241943359,54.0924072266
2.7432081699,-0.7333984375,0.1503906250,0.0068359375,17.9595947266,-12.9241943359,50.6744384766
2.7457811832,-0.7333984375,0.1503906250,0.0068359375,21.6369628906,-12.6495361328,50.6744384766
2.7485201359,-0.7333984375,0.1503906250,0.0068359375,21.6369628906,-12.6495361328,47.7294921875
2.7510950565,-0.7333984375,0.1787109375,-0.0073242188,22.5982666016,-13.0920410156,47.7294921875
2.7536730766,-0.7167968750,0.1787109375,-0.0073242188,22.5982666016,-13.0920410156,43.8232421875
2.7562420368,-0.7167968750,0.1787109375,-0.0073242188,23.5290527344,-14.3127441406,45.0897216797
2.7588300705,-0.7167968750,0.1787109375,-0.0073242188,23.5290527344,-14.3127441406,45.0897216797
2.7614140511,-0.7167968750,0.1816406250,0.0537109375,27.0996093750,-14.8925781250,41.3513183594
2.7639839649,-0.7436523438,0.1816406250,0.0537109375,27.0996093750,-14.8925781250,41.3513183594
2.7665569782,-0.7436523438,0.1816406250,0.0537109375,31.5856933594,-14.6636962891,36.8652343750
2.7691791058,-0.7436523438,0.1816406250,0.0537109375,31.5856933594,-14.6636962891,36.8652343750
2.7717549801,-0.7500000000,0.1196289062,0.0454101562,36.1022949219,-15.4266357422,32.9132080078
2.7743291855,-0.7500000000,0.1196289062,0.0454101562,36.1022949219,-15.4266357422,32.9132080078
2.7769010067,-0.7500000000,0.1196289062,0.0454101562,38.6657714844,-15.6402587891,30.1055908203
2.7795510292,-0.7500000000,0.1196289062,0.0454101562,38.6657714844,-15.6402587891,30.1055908203
2.7821371555,-0.7319335938,0.0883789062,0.0273437500,38.5437011719,-15.9759521484,27.9083251953
2.7847170830,-0.7319335938,0.0883789062,0.0273437500,38.5437011719,-15.9759521484,27.9083251953
2.7874071598,-0.7319335938,0.0883789062,0.0273437500,35.9954833984,-16.7083740234,25.8331298828
2.7901191711,-0.7319335938,0.0883789062,0.0273437500,35.9954833984,-16.7083740234,25.8331298828
2.7928240299,-0.7192382812,0.0815429688,0.0371093750,32.7758789062,-16.7694091797,25.2227783203
2.7955350876,-0.7192382812,0.0815429688,0.0371093750,32.7758789062,-16.7694091797,25.2227783203
2.7982831001,-0.7192382812,0.0815429688,0.0371093750,28.6560058594,-16.4794921875,24.2004394531
2.8009920120,-0.7192382812,0.0815429688,0.0561523438,28.6560058594,-16.4794921875,24.2004394531
2.8037049770,-0.7260742188,0.0727539062,0.0561523438,24.4598388672,-17.4255371094,22.9949951172
2.8064141273,-0.7260742188,0.0727539062,0.0561523438,24.4598388672,-17.4255371094,22.9949951172
2.8091340065,-0.7260742188,0.0727539062,0.0561523438,20.0653076172,-17.3950195312,22.5372314453
2.8119561672,-0.7260742188,0.0556640625,0.0576171875,20.0653076172,-17.3950195312,22.5372314453
2.8146650791,-0.7285156250,0.0556640625,0.0576171875,15.0604248047,-17.8680419922,22.6593017578
2.8173580170,-0.7285156250,0.0556640625,0.0576171875,15.0604248047,-17.8680419922,22.6593017578
2.8199410439,-0.7285156250,0.0556640625,0.0576171875,10.1318359375,-18.2495117188,23.1628417969
2.8225221634,-0.7290039062,0.0522460938,0.0673828125,10.1318359375,-18.2495117188,23.1628417969
2.8251020908,-0.7290039062,0.0522460938,0.0673828125,6.2255859375,-18.5852050781,23.6358642578
2.8277280331,-0.7290039062,0.0522460938,0.0673828125,5.1269531250,-18.5852050781,23.6358642578
2.8304281235,-0.7290039062,0.0522460938,0.0673828125,5.1269531250,-18.4326171875,23.3306884766
2.8331329823,-0.7290039062,0.0634765625,0.0727539062,1.1444091797,-18.4326171875,23.3306884766
2.8358399868,-0.7290039062,0.0634765625,0.0727539062,1.1444091797,-17.6391601562,22.6745605469
2.8385651112,-0.7290039062,0.0634765625,0.0727539062,-0.8697509766,-17.6391601562,22.6745605469
2.8412721157,-0.7290039062,0.0634765625,0.0727539062,-0.8697509766,-16.7541503906,22.2320556641
2.8442530632,-0.7207031250,0.0722656250,0.0820312500,-0.4730224609,-16.7541503906,22.2320556641
2.8473451138,-0.7207031250,0.0722656250,0.0820312500,1.0528564453,-16.7541503906,21.4996337891
2.8500599861,-0.7207031250,0.0722656250,0.0820312500,1.0528564453,-16.7541503906,21.4996337891
2.8527691364,-0.7109375000,0.0869140625,0.0927734375,2.3345947266,-16.3421630859,19.9432373047
2.8554761410,-0.7109375000,0.0869140625,0.0927734375,2.3345947266,-16.3421630859,19.9432373047
2.8581900597,-0.7109375000,0.0869140625,0.0927734375,5.1574707031,-16.1285400391,18.9666748047
2.8609001637,-0.7109375000,0.0869140625,0.0927734375,5.1574707031,-16.1285400391,18.9666748047
2.8636021614,-0.7128906250,0.0927734375,0.1000976562,8.6822509766,-15.5944824219,17.8985595703
2.8663120270,-0.7128906250,0.0927734375,0.1000976562,8.6822509766,-15.5944824219,17.8985595703
2.8689680099,-0.7128906250,0.0927734375,0.1000976562,12.8021240234,-14.7247314453,16.1743164062
2.8715441227,-0.7128906250,0.0927734375,0.1000976562,12.8021240234,-14.7247314453,16.1743164062
2.8741211891,-0.7167968750,0.0878906250,0.1059570312,16.7083740234,-13.7786865234,14.4958496094
2.8768119812,-0.7167968750,0.0878906250,0.1059570312,17.2119140625,-13.7786865234,14.4958496094
2.8793990612,-0.7167968750,0.0878906250,0.1059570312,17.2119140625,-12.9394531250,13.1225585938
2.8819811344,-0.7167968750,0.0878906250,0.0932617188,20.4010009766,-12.9394531250,13.1225585938
2.8845620155,-0.7167968750,0.0917968750,0.0932617188,20.4010009766,-12.9394531250,12.4816894531
2.8872001171,-0.7167968750,0.0917968750,0.0932617188,22.6135253906,-11.9323730469,12.4816894531
2.8897790909,-0.7167968750,0.0917968750,0.0932617188,22.6135253906,-11.9323730469,12.4816894531
2.8923590183,-0.7167968750,0.1123046875,0.0888671875,23.2849121094,-11.3372802734,12.3748779297
2.8949360847,-0.7202148438,0.1123046875,0.0888671875,23.2849121094,-11.3372802734,12.3748779297
2.8976001740,-0.7202148438,0.1123046875,0.0888671875,23.5595703125,-10.5895996094,11.7950439453
2.9001820087,-0.7202148438,0.1123046875,0.0888671875,23.5595703125,-10.5895996094,11.7950439453
2.9027631283,-0.7202148438,0.0751953125,0.0942382812,24.5208740234,-9.6130371094,11.9018554688
2.9053390026,-0.7250976562,0.0751953125,0.0942382812,24.5208740234,-9.6130371094,11.9018554688
2.9081079960,-0.7250976562,0.0751953125,0.0942382812,24.3835449219,-8.9569091797,11.9781494141
2.9108250141,-0.7250976562,0.0751953125,0.0942382812,24.3835449219,-8.9569091797,11.9781494141
2.9135310650,-0.7285156250,0.0522460938,0.0737304688,23.1323242188,-8.6364746094,12.4511718750
2.9162440300,-0.7285156250,0.0522460938,0.0737304688,23.1323242188,-8.6364746094,12.4511718750
2.9188649654,-0.7285156250,0.0522460938,0.0737304688,21.7285156250,-8.4991455078,13.5803222656
2.9214320183,-0.7285156250,0.0522460938,0.0737304688,21.7285156250,-8.4991455078,13.5803222656
2.9240040779,-0.7304687500,0.0629882812,0.0781250000,19.5159912109,-8.0566406250,14.7857666016
2.9265730381,-0.7304687500,0.0629882812,0.0781250000,19.5159912109,-8.0566406250,14.7857666016
2.9293060303,-0.7304687500,0.0629882812,0.0781250000,16.0369873047,-7.2631835938,15.8691406250
2.9320120811,-0.7304687500,0.0629882812,0.0781250000,16.0369873047,-7.2631835938,15.8691406250
2.9347081184,-0.7260742188,0.0595703125,0.0898437500,13.8244628906,-6.9427490234,16.7846679688
2.9374451637,-0.7260742188,0.0595703125,0.0898437500,13.8244628906,-6.9427490234,16.7846679688
2.9401261806,-0.7260742188,0.0595703125,0.0898437500,14.0533447266,-6.8969726562,17.6086425781
2.9427011013,-0.7260742188,0.0595703125,0.0966796875,14.0533447266,-6.8969726562,17.6086425781
2.9452831745,-0.7133789062,0.0649414062,0.0966796875,14.7399902344,-7.4005126953,19.1345214844
2.9479219913,-0.7133789062,0.0649414062,0.0966796875,14.7399902344,-7.4005126953,19.1345214844
2.9506261349,-0.7133789062,0.0649414062,0.0966796875,16.1743164062,-8.3007812500,20.5383300781
2.9533371925,-0.7124023438,0.0737304688,0.0922851562,16.1743164062,-8.3007812500,20.5383300781
2.9560401440,-0.7124023438,0.0737304688,0.0922851562,18.0358886719,-8.6059570312,22.7203369141
2.9587631226,-0.7124023438,0.0737304688,0.0922851562,18.0358886719,-8.6059570312,22.7203369141
2.9614679813,-0.7124023438,0.0737304688,0.0922851562,19.7753906250,-8.7738037109,22.3083496094
2.9644000530,-0.7250976562,0.0659179688,0.0883789062,19.7753906250,-8.7738037109,22.3083496094
2.9674880505,-0.7250976562,0.0659179688,0.0883789062,22.1862792969,-8.6364746094,22.8118896484
2.9700691700,-0.7250976562,0.0659179688,0.0883789062,22.1862792969,-8.6364746094,22.8118896484
2.9726490974,-0.7250976562,0.0659179688,0.1040039062,24.8413085938,-8.6059570312,24.5666503906
2.9752221107,-0.7348632812,0.0776367188,0.1040039062,24.8413085938,-8.6059570312,24.5666503906
2.9778990746,-0.7348632812,0.0776367188,0.1040039062,27.2369384766,-8.1329345703,25.6652832031
2.9806091785,-0.7348632812,0.0776367188,0.1040039062,27.2369384766,-8.1329345703,25.6652832031
2.9833099842,-0.7348632812,0.0678710938,0.0966796875,28.4271240234,-7.9040527344,27.1148681641
2.9860191345,-0.7246093750,0.0678710938,0.0966796875,28.4271240234,-7.9040527344,27.1148681641
2.9887351990,-0.7246093750,0.0678710938,0.0966796875,28.1219482422,-7.9803466797,26.7486572266
2.9914391041,-0.7246093750,0.0678710938,0.0966796875,28.1219482422,-7.9803466797,26.7486572266
2.9941480160,-0.7373046875,0.0947265625,0.1049804688,27.9693603516,-7.9650878906,27.0690917969
2.9968571663,-0.7373046875,0.0947265625,0.1049804688,27.9693603516,-7.9650878906,27.0690917969
2.9994480610,-0.7373046875,0.0947265625,0.1049804688,27.9693603516,-7.5683593750,28.1829833984
3.0020260811,-0.7373046875,0.0947265625,0.1049804688,27.8778076172,-7.5683593750,28.1829833984
3.0047039986,-0.7260742188,0.1079101562,0.0947265625,27.8778076172,-6.7901611328,28.5339355469
3.0073051453,-0.7260742188,0.1079101562,0.0947265625,28.0456542969,-6.7901611328,28.5339355469
3.0098781586,-0.7260742188,0.1079101562,0.0947265625,28.0456542969,-6.7901611328,30.9295654297
3.0124530792,-0.7260742188,0.1079101562,0.0947265625,28.8391113281,-6.3629150391,30.9295654297
3.0150279999,-0.7158203125,0.1108398438,0.0966796875,28.8391113281,-6.3629150391,33.0810546875
3.0177690983,-0.7158203125,0.1108398438,0.0966796875,29.4342041016,-5.3710937500,33.0810546875
3.0203461647,-0.7158203125,0.1108398438,0.0966796875,29.4342041016,-5.3710937500,33.0810546875
3.0229260921,-0.7158203125,0.1108398438,0.0966796875,28.0303955078,-5.2947998047,31.6467285156
3.0254991055,-0.7587890625,0.0869140625,0.0859375000,28.0303955078,-5.2947998047,31.6467285156
3.0282139778,-0.7587890625,0.0869140625,0.0859375000,24.6734619141,-5.1269531250,31.2500000000
3.0310490131,-0.7587890625,0.0869140625,0.0859375000,24.6734619141,-5.1269531250,31.2500000000
3.0336201191,-0.7587890625,0.1201171875,0.0917968750,22.4761962891,-5.5389404297,33.5693359375
3.0361950397,-0.7241210938,0.1201171875,0.0917968750,22.4761962891,-5.5389404297,33.5693359375
3.0390431881,-0.7241210938,0.1201171875,0.0917968750,21.7590332031,-5.3710937500,36.4837646484
3.0418190956,-0.7241210938,0.1201171875,0.0917968750,21.7590332031,-5.3710937500,37.6129150391
3.0449941158,-0.7387695312,0.1171875000,0.0673828125,21.8658447266,-5.0964355469,37.6129150391
3.0475711823,-0.7387695312,0.1171875000,0.0673828125,21.8658447266,-5.0964355469,37.6129150391
3.0501391888,-0.7387695312,0.1171875000,0.0673828125,21.9268798828,-5.4168701172,37.3382568359
3.0527091026,-0.7387695312,0.1171875000,0.0673828125,21.9268798828,-5.4168701172,37.3382568359
3.0552761555,-0.7226562500,0.1196289062,0.0751953125,21.1029052734,-5.9661865234,38.6352539062
3.0578720570,-0.7226562500,0.1196289062,0.0751953125,21.1029052734,-5.9661865234,38.6352539062
3.0604441166,-0.7226562500,0.1196289062,0.0751953125,20.4315185547,-6.3323974609,38.6047363281
3.0630121231,-0.7226562500,0.1196289062,0.0751953125,20.4315185547,-6.3323974609,38.6047363281
3.0655820370,-0.7089843750,0.1396484375,0.0971679688,20.8587646484,-5.8441162109,38.8183593750
3.0683031082,-0.7089843750,0.1396484375,0.0971679688,20.8587646484,-5.8441162109,38.8183593750
3.0708761215,-0.7089843750,0.1396484375,0.0971679688,20.1416015625,-5.8593750000,39.9780273438
3.0734481812,-0.7089843750,0.1396484375,0.0971679688,20.1416015625,-5.8593750000,39.9780273438
3.0760161877,-0.7163085938,0.1333007812,0.1113281250,20.9197998047,-5.6610107422,39.8406982422
3.0786609650,-0.7163085938,0.1333007812,0.1113281250,20.9197998047,-5.6610107422,39.8406982422
3.0812270641,-0.7163085938,0.1333007812,0.1113281250,20.9350585938,-5.4473876953,38.7725830078
3.0838010311,-0.7163085938,0.1333007812,0.1035156250,20.9350585938,-5.4473876953,38.7725830078
3.0863649845,-0.7221679688,0.1518554688,0.1035156250,20.9350585938,-4.6539306641,38.8488769531
3.0890979767,-0.7221679688,0.1518554688,0.1035156250,20.3399658203,-4.6539306641,38.8488769531
3.0916640759,-0.7221679688,0.1518554688,0.1035156250,20.3399658203,-4.6539306641,39.8101806641
3.0942280293,-0.7221679688,0.1562500000,0.0888671875,19.5465087891,-4.8065185547,39.8101806641
3.0967960358,-0.7099609375,0.1562500000,0.0888671875,19.5465087891,-4.8065185547,38.9709472656
3.0994870663,-0.7099609375,0.1562500000,0.0888671875,19.3328857422,-4.3487548828,38.9709472656
3.1020569801,-0.7099609375,0.1562500000,0.0888671875,19.3328857422,-4.3487548828,38.9709472656
3.1046249866,-0.7099609375,0.1879882812,0.1015625000,19.1192626953,-4.0740966797,37.5823974609
3.1072599888,-0.7133789062,0.1879882812,0.1015625000,19.1192626953,-4.0740966797,37.5823974609
3.1098320484,-0.7133789062,0.1879882812,0.1015625000,17.7764892578,-4.0435791016,37.6129150391
3.1124000549,-0.7133789062,0.1879882812,0.1015625000,17.7764892578,-4.0435791016,37.6129150391
3.1149711609,-0.6972656250,0.1962890625,0.1000976562,17.0745849609,-4.2419433594,37.6739501953
3.1175470352,-0.6972656250,0.1962890625,0.1000976562,17.0745849609,-4.2419433594,37.6739501953
3.1201150417,-0.6972656250,0.1962890625,0.1000976562,17.0288085938,-4.3029785156,37.9486083984
3.1226890087,-0.6972656250,0.1962890625,0.1000976562,17.0288085938,-4.3029785156,37.9486083984
3.1252579689,-0.6982421875,0.1923828125,0.0986328125,17.2424316406,-3.6010742188,37.5366210938
3.1278691292,-0.6982421875,0.1923828125,0.0986328125,17.2424316406,-3.6010742188,37.5366210938
3.1305470467,-0.6982421875,0.1923828125,0.0986328125,16.6168212891,-3.4027099609,37.0635986328
3.1331219673,-0.6982421875,0.1923828125,0.0986328125,16.6168212891,-3.4027099609,37.0635986328
3.1356849670,-0.7167968750,0.1738281250,0.0991210938,16.2963867188,-3.0822753906,36.2243652344
3.1382670403,-0.7167968750,0.1738281250,0.0991210938,16.2963867188,-3.0822753906,36.2243652344
3.1409170628,-0.7167968750,0.1738281250,0.0991210938,16.2963867188,-2.4566650391,36.7889404297
3.1434869766,-0.7167968750,0.1738281250,0.0991210938,16.0217285156,-2.4566650391,36.7889404297
3.1460599899,-0.7304687500,0.1723632812,0.0717773438,16.0217285156,-2.6245117188,36.6516113281
3.1487410069,-0.7304687500,0.1723632812,0.0717773438,15.8691406250,-2.6245117188,36.6516113281
3.1514480114,-0.7304687500,0.1723632812,0.0717773438,15.8691406250,-2.8228759766,36.8499755859
3.1542379856,-0.7304687500,0.1723632812,0.0717773438,15.8081054688,-2.8228759766,36.8499755859
3.1577131748,-0.7255859375,0.1826171875,0.0722656250,14.9841308594,-2.1820068359,37.1704101562
3.1602971554,-0.7255859375,0.1826171875,0.0722656250,14.9841308594,-2.1820068359,37.1704101562
3.1628701687,-0.7255859375,0.1826171875,0.0722656250,14.8315429688,-2.4566650391,37.9638671875
3.1654391289,-0.7089843750,0.1992187500,0.0776367188,14.8315429688,-2.4566650391,37.9638671875
3.1680810452,-0.7089843750,0.1992187500,0.0776367188,14.8315429688,-2.8533935547,38.4063720703
3.1706500053,-0.7089843750,0.1992187500,0.0776367188,14.3127441406,-2.8533935547,38.4063720703
3.1732201576,-0.7089843750,0.1992187500,0.0776367188,14.3127441406,-2.8533935547,38.5589599609
3.1757919788,-0.7001953125,0.2016601562,0.0917968750,14.0686035156,-3.5858154297,38.5589599609
3.1784391403,-0.7001953125,0.2016601562,0.0917968750,14.0686035156,-3.5858154297,39.4744873047
3.1810100079,-0.7001953125,0.2016601562,0.0917968750,14.3737792969,-3.9672851562,39.4744873047
3.1835820675,-0.7001953125,0.2016601562,0.0917968750,14.3737792969,-3.9672851562,35.5682373047
3.1861510277,-0.7104492188,0.1992187500,0.0839843750,14.4805908203,-3.8299560547,38.9709472656
3.1887791157,-0.7104492188,0.1992187500,0.0839843750,14.4805908203,-3.8299560547,38.9709472656
3.1913471222,-0.7104492188,0.1992187500,0.0839843750,14.0533447266,-3.7841796875,39.3371582031
3.1939141750,-0.7104492188,0.1992187500,0.0839843750,14.0533447266,-3.7841796875,39.3371582031
3.1965930462,-0.7202148438,0.1997070312,0.0927734375,13.4277343750,-3.2958984375,38.9099121094
3.1992030144,-0.7202148438,0.1997070312,0.0927734375,13.4277343750,-3.2958984375,38.9099121094
3.2017760277,-0.7202148438,0.1997070312,0.0927734375,13.5803222656,-2.8686523438,38.4521484375
3.2043490410,-0.7202148438,0.1997070312,0.0927734375,13.5803222656,-2.8686523438,38.4521484375
3.2070941925,-0.7202148438,0.2163085938,0.1005859375,14.0533447266,-3.0364990234,38.6657714844
3.2096769810,-0.7202148438,0.2163085938,0.1005859375,14.0533447266,-3.0364990234,38.6657714844
3.2122521400,-0.7202148438,0.2163085938,0.1005859375,14.1906738281,-2.8228759766,38.9709472656
3.2148230076,-0.7202148438,0.2163085938,0.1005859375,14.1906738281,-2.8228759766,38.9709472656
3.2175540924,-0.7089843750,0.2270507812,0.0922851562,14.4195556641,-3.0975341797,39.1845703125
3.2201290131,-0.7089843750,0.2270507812,0.0922851562,14.4195556641,-3.0975341797,39.1845703125
3.2226991653,-0.7089843750,0.2270507812,0.0922851562,15.1367187500,-2.9907226562,39.3524169922
3.2252709866,-0.7089843750,0.2270507812,0.0913085938,15.1367187500,-2.9907226562,39.3524169922
3.2278721333,-0.7104492188,0.2358398438,0.0913085938,15.1367187500,-2.8839111328,39.1387939453
3.2304461002,-0.7104492188,0.2358398438,0.0913085938,15.7775878906,-2.8839111328,39.1387939453
3.2330219746,-0.7104492188,0.2358398438,0.0913085938,15.7775878906,-2.8839111328,39.5660400391
3.2355980873,-0.7104492188,0.2485351562,0.0888671875,16.1743164062,-3.1127929688,39.5660400391
3.2382271290,-0.7060546875,0.2485351562,0.0888671875,16.1743164062,-3.1127929688,39.8406982422
3.2407979965,-0.7060546875,0.2485351562,0.0888671875,17.0440673828,-3.6163330078,39.8406982422
3.2433731556,-0.7060546875,0.2485351562,0.0888671875,17.0440673828,-3.6163330078,39.8406982422
3.2459421158,-0.7060546875,0.2416992188,0.0849609375,18.1732177734,-3.7841796875,39.6118164062
3.2485191822,-0.7153320312,0.2416992188,0.0849609375,18.1732177734,-3.7841796875,39.6118164062
3.2510950565,-0.7153320312,0.2416992188,0.0849609375,18.4936523438,-3.4484863281,40.3137207031
3.2536680698,-0.7153320312,0.2416992188,0.0849609375,18.4936523438,-3.4484863281,40.3137207031
3.2562391758,-0.7329101562,0.2182617188,0.0590820312,17.5323486328,-3.1127929688,41.0919189453
3.2589280605,-0.7329101562,0.2182617188,0.0590820312,17.5323486328,-3.1127929688,41.0919189453
3.2614951134,-0.7329101562,0.2182617188,0.0590820312,16.1590576172,-2.4871826172,42.3583984375
3.2640609741,-0.7329101562,0.2182617188,0.0590820312,16.1590576172,-2.4871826172,42.3583984375
3.2666330338,-0.7329101562,0.2050781250,0.0722656250,14.6484375000,-1.1596679688,43.5180664062
3.2693400383,-0.7329101562,0.2050781250,0.0722656250,14.6484375000,-1.1596679688,43.5180664062
3.2719120979,-0.7329101562,0.2050781250,0.0722656250,13.4429931641,-0.6408691406,45.0897216797
3.2747390270,-0.7329101562,0.2050781250,0.0722656250,13.4429931641,-0.6408691406,45.0897216797
3.2774150372,-0.7065429688,0.2353515625,0.1147460938,12.7868652344,-0.7171630859,45.5932617188
3.2801401615,-0.7065429688,0.2353515625,0.1147460938,12.7868652344,-0.7171630859,45.5932617188
3.2828471661,-0.7065429688,0.2353515625,0.1147460938,12.7105712891,-0.7781982422,45.8984375000
3.2855551243,-0.7065429688,0.2353515625,0.1181640625,12.7105712891,-0.7781982422,45.8984375000
3.2882690430,-0.6796875000,0.2836914062,0.1181640625,13.4277343750,-1.6021728516,45.5017089844
3.2909731865,-0.6796875000,0.2836914062,0.1181640625,13.4277343750,-1.6021728516,45.5017089844
3.2936739922,-0.6796875000,0.2836914062,0.1181640625,15.0451660156,-2.2277832031,44.7235107422
3.2963721752,-0.6796875000,0.3027343750,0.0859375000,15.0451660156,-2.2277832031,44.7235107422
3.2990942001,-0.6728515625,0.3027343750,0.0859375000,16.4642333984,-2.8686523438,44.2657470703
3.3017990589,-0.6728515625,0.3027343750,0.0859375000,16.4642333984,-2.8686523438,44.2657470703
3.3044991493,-0.6728515625,0.3027343750,0.0859375000,18.0511474609,-3.2196044922,43.2586669922
3.3072450161,-0.6674804688,0.3217773438,0.0678710938,18.0511474609,-3.2196044922,43.2586669922
3.3098220825,-0.6674804688,0.3217773438,0.0678710938,19.4854736328,-3.7536621094,42.4194335938
3.3123919964,-0.6674804688,0.3217773438,0.0678710938,19.4854736328,-3.7536621094,42.4194335938
3.3149650097,-0.6674804688,0.3217773438,0.0678710938,19.4854736328,-3.3111572266,41.6107177734
3.3175470829,-0.6870117188,0.3081054688,0.0605468750,19.7753906250,-3.3111572266,41.6107177734
