# time_stamp before, Acceleration x, Acceleration y, Acceleration z, Gyro x, Gyro y, Gyro z
0.0000000000,-0.7065429688,0.1987304688,0.0454101562,1.3122558594,1.4343261719,0.6256103516
0.0025601387,-0.7065429688,0.1987304688,0.0454101562,1.3122558594,1.4343261719,0.7629394531
0.0051200390,-0.7065429688,0.1987304688,0.0454101562,3.8757324219,0.5340576172,0.7629394531
0.0076780319,-0.7065429688,0.1987304688,0.0454101562,3.8757324219,0.2593994141,1.2969970703
0.0109980106,-0.7211914062,0.2036132812,0.0351562500,6.3934326172,0.2593994141,1.2969970703
0.0136880875,-0.7211914062,0.2036132812,0.0351562500,6.3934326172,-0.0762939453,1.3732910156
0.0163879395,-0.7211914062,0.2036132812,0.0351562500,7.7514648438,-0.0762939453,1.3732910156
0.0190250874,-0.7211914062,0.2036132812,0.0664062500,7.7514648438,3.8299560547,1.9683837891
0.0215899944,-0.7270507812,0.1782226562,0.0664062500,9.4146728516,0.0152587891,1.9683837891
0.0241470337,-0.7270507812,0.1782226562,0.0664062500,9.4146728516,0.0152587891,3.2653808594
0.0267059803,-0.7270507812,0.1782226562,0.0664062500,10.3302001953,0.6561279297,3.2653808594
0.0292949677,-0.7270507812,0.1806640625,0.0654296875,10.3302001953,0.6561279297,7.1716308594
0.0318629742,-0.7236328125,0.1806640625,0.0654296875,10.7116699219,0.4730224609,3.9978027344
0.0344290733,-0.7236328125,0.1806640625,0.0654296875,10.7116699219,0.4730224609,3.9978027344
0.0369980335,-0.7236328125,0.1806640625,0.0654296875,11.3983154297,0.7019042969,5.0659179688
0.0396380424,-0.7236328125,0.1743164062,0.0698242188,11.3983154297,0.7019042969,5.0659179688
0.0422129631,-0.7172851562,0.1743164062,0.0698242188,11.9018554688,1.4038085938,6.1645507812
0.0447800159,-0.7172851562,0.1743164062,0.0698242188,11.9018554688,1.4038085938,6.1645507812
0.0473399162,-0.7172851562,0.1743164062,0.0698242188,10.7116699219,1.8768310547,6.7291259766
0.0500979424,-0.7392578125,0.1372070312,0.0717773438,10.7116699219,1.8768310547,6.7291259766
0.0528221130,-0.7392578125,0.1372070312,0.0717773438,9.3536376953,3.0212402344,7.7972412109
0.0553901196,-0.7392578125,0.1372070312,0.0717773438,9.3536376953,3.0212402344,7.7972412109
0.0580921173,-0.7392578125,0.1372070312,0.0717773438,8.9111328125,4.3029785156,8.7127685547
0.0607991219,-0.7446289062,0.1630859375,0.0791015625,8.9111328125,4.3029785156,8.7127685547
0.0635061264,-0.7446289062,0.1630859375,0.0791015625,8.7585449219,4.8370361328,9.2620849609
0.0661990643,-0.7446289062,0.1630859375,0.0791015625,8.7585449219,4.8370361328,9.2620849609
0.0689039230,-0.7446289062,0.1630859375,0.0791015625,9.5825195312,5.4779052734,9.2926025391
0.0716040134,-0.7421875000,0.2041015625,0.0498046875,9.5825195312,5.4779052734,9.2926025391
0.0743160248,-0.7421875000,0.2041015625,0.0498046875,9.8266601562,5.4473876953,9.0026855469
0.0768799782,-0.7421875000,0.2041015625,0.0498046875,9.8266601562,5.4473876953,9.0026855469
0.0795660019,-0.7421875000,0.2041015625,0.0322265625,10.1165771484,6.0729980469,8.8653564453
0.0821409225,-0.7319335938,0.2006835938,0.0322265625,10.1165771484,6.0729980469,8.8653564453
0.0855259895,-0.7319335938,0.2006835938,0.0322265625,9.9639892578,6.2866210938,8.2550048828
0.0881350040,-0.7319335938,0.2006835938,0.0322265625,9.9639892578,6.2866210938,8.2550048828
0.0906970501,-0.7216796875,0.2080078125,0.0346679688,8.0718994141,6.1492919922,7.6599121094
0.0932600498,-0.7216796875,0.2080078125,0.0346679688,8.0718994141,6.1492919922,7.6599121094
0.0959579945,-0.7216796875,0.2080078125,0.0346679688,6.5155029297,6.2866210938,7.3852539062
0.0985260010,-0.7216796875,0.2080078125,0.0346679688,6.5155029297,6.2866210938,7.3852539062
0.1010890007,-0.7236328125,0.2045898438,0.0283203125,4.7454833984,5.9814453125,7.1868896484
0.1036500931,-0.7236328125,0.2045898438,0.0283203125,4.7454833984,5.9814453125,7.1868896484
0.1062090397,-0.7236328125,0.2045898438,0.0283203125,4.7454833984,6.1492919922,7.1716308594
0.1088230610,-0.7236328125,0.2045898438,0.0283203125,2.4566650391,6.1492919922,7.1716308594
0.1113889217,-0.7163085938,0.2089843750,0.0419921875,2.4566650391,6.1492919922,7.0190429688
0.1139490604,-0.7163085938,0.2089843750,0.0419921875,-0.0610351562,6.2713623047,7.0190429688
0.1166219711,-0.7163085938,0.2089843750,0.0419921875,-0.0610351562,6.2713623047,6.8817138672
0.1192269325,-0.7163085938,0.2089843750,0.0419921875,-1.0070800781,7.0648193359,6.8817138672
0.1217849255,-0.6923828125,0.2167968750,0.0502929688,-1.0070800781,7.0648193359,6.8817138672
0.1243469715,-0.6923828125,0.2167968750,0.0502929688,-0.5035400391,6.1645507812,7.3699951172
0.1269080639,-0.6923828125,0.2167968750,0.0502929688,-0.5035400391,6.1645507812,7.3699951172
0.1295540333,-0.6923828125,0.2167968750,0.0502929688,-0.0152587891,6.0272216797,7.3699951172
0.1321260929,-0.7011718750,0.2153320312,0.0366210938,-0.0152587891,6.0272216797,7.3699951172
0.1346960068,-0.7011718750,0.2153320312,0.0366210938,0.4119873047,6.1950683594,6.8511962891
0.1372609138,-0.7011718750,0.2153320312,0.0366210938,0.4119873047,6.1950683594,6.8511962891
0.1400320530,-0.7011718750,0.2153320312,0.0449218750,1.1138916016,6.3629150391,6.5002441406
0.1427159309,-0.6933593750,0.2192382812,0.0449218750,1.1138916016,6.3629150391,6.5002441406
0.1454000473,-0.6933593750,0.2192382812,0.0449218750,1.2207031250,6.5002441406,6.2408447266
0.1480960846,-0.6933593750,0.2192382812,0.0449218750,1.2207031250,6.5002441406,6.2408447266
0.1507830620,-0.6933593750,0.2382812500,0.0541992188,2.3651123047,5.5541992188,5.8746337891
0.1534669399,-0.6865234375,0.2382812500,0.0541992188,2.3651123047,5.5541992188,5.8746337891
0.1561489105,-0.6865234375,0.2382812500,0.0541992188,3.6773681641,4.6539306641,5.0811767578
0.1588759422,-0.6865234375,0.2382812500,0.0541992188,3.6773681641,4.6539306641,5.0811767578
0.1615619659,-0.6875000000,0.2363281250,0.0361328125,4.6997070312,4.7912597656,4.7454833984
0.1642489433,-0.6875000000,0.2363281250,0.0361328125,4.6997070312,4.7912597656,4.7454833984
0.1669330597,-0.6875000000,0.2363281250,0.0361328125,5.3253173828,4.8370361328,4.5928955078
0.1696970463,-0.6875000000,0.2363281250,0.0361328125,5.3253173828,4.8370361328,4.5928955078
0.1722640991,-0.6948242188,0.2236328125,0.0190429688,5.1574707031,4.8675537109,4.4097900391
0.1748321056,-0.6948242188,0.2236328125,0.0190429688,5.1574707031,4.8675537109,4.4097900391
0.1774060726,-0.6948242188,0.2236328125,0.0190429688,5.4168701172,5.0354003906,4.1503906250
0.1803181171,-0.6948242188,0.2236328125,0.0205078125,5.4168701172,5.0354003906,4.1503906250
0.1835241318,-0.6977539062,0.2163085938,0.0205078125,5.8135986328,5.0506591797,4.3487548828
0.1862161160,-0.6977539062,0.2163085938,0.0205078125,5.8135986328,5.0506591797,4.3487548828
0.1888971329,-0.6977539062,0.2163085938,0.0205078125,6.0882568359,4.6539306641,4.4860839844
0.1915609837,-0.7065429688,0.2172851562,0.0239257812,6.0882568359,4.6539306641,4.4860839844
0.1942179203,-0.7065429688,0.2172851562,0.0239257812,6.4697265625,4.6234130859,4.6539306641
0.1970279217,-0.7065429688,0.2172851562,0.0239257812,6.4697265625,4.6234130859,4.6539306641
0.1997349262,-0.7065429688,0.2172851562,0.0239257812,6.7749023438,4.4250488281,4.8828125000
0.2024281025,-0.7285156250,0.1899414062,0.0263671875,6.7749023438,4.4250488281,4.8828125000
0.2051310539,-0.7285156250,0.1899414062,0.0263671875,6.8359375000,4.7149658203,4.5318603516
0.2078659534,-0.7285156250,0.1899414062,0.0263671875,6.8359375000,4.7149658203,4.5318603516
0.2105610371,-0.7285156250,0.1899414062,0.0239257812,5.2642822266,4.6081542969,4.6386718750
0.2132630348,-0.7260742188,0.2060546875,0.0239257812,5.2642822266,4.6081542969,4.6386718750
0.2159600258,-0.7260742188,0.2060546875,0.0239257812,4.6844482422,4.3945312500,4.8675537109
0.2186250687,-0.7260742188,0.2060546875,0.0239257812,4.6844482422,4.3945312500,4.8675537109
0.2211880684,-0.7260742188,0.2290039062,0.0239257812,5.2032470703,4.4097900391,4.7912597656
0.2237460613,-0.7089843750,0.2290039062,0.0239257812,5.2032470703,4.4097900391,4.7912597656
0.2263131142,-0.7089843750,0.2290039062,0.0239257812,5.5541992188,4.3792724609,4.6691894531
0.2289879322,-0.7089843750,0.2290039062,0.0239257812,5.5541992188,4.3792724609,4.6691894531
0.2315540314,-0.7089843750,0.2304687500,0.0312500000,5.5541992188,4.2724609375,4.2419433594
0.2341251373,-0.6962890625,0.2304687500,0.0312500000,5.7983398438,4.2724609375,4.2419433594
0.2366819382,-0.6962890625,0.2304687500,0.0312500000,5.7983398438,4.0283203125,4.3182373047
0.2394220829,-0.6962890625,0.2304687500,0.0312500000,6.1187744141,4.0283203125,4.3182373047
0.2421009541,-0.6855468750,0.2333984375,0.0375976562,6.1187744141,0.1220703125,4.3029785156
0.2448880672,-0.6855468750,0.2333984375,0.0375976562,6.8206787109,3.8604736328,4.3029785156
0.2475819588,-0.6855468750,0.2333984375,0.0375976562,6.8206787109,3.8604736328,4.1656494141
0.2502579689,-0.6855468750,0.2333984375,0.0375976562,7.4310302734,3.6773681641,4.1656494141
0.2529330254,-0.6826171875,0.2304687500,0.0415039062,7.4310302734,3.6773681641,3.5552978516
0.2556219101,-0.6826171875,0.2304687500,0.0415039062,9.3841552734,3.2806396484,3.5552978516
0.2583119869,-0.6826171875,0.2304687500,0.0415039062,9.3841552734,3.2806396484,3.0975341797
0.2609930038,-0.6826171875,0.2304687500,0.0415039062,11.0778808594,3.0822753906,3.0975341797
0.2636890411,-0.6826171875,0.2333984375,0.0463867188,11.0778808594,3.0822753906,2.5787353516
0.2663750648,-0.6826171875,0.2333984375,0.0463867188,12.7563476562,2.8839111328,2.5787353516
0.2690839767,-0.6826171875,0.2333984375,0.0463867188,12.7563476562,2.8839111328,2.0904541016
0.2717690468,-0.6826171875,0.2280273438,0.0395507812,14.6179199219,2.3956298828,2.0904541016
0.2744569778,-0.7006835938,0.2280273438,0.0395507812,14.6179199219,2.3956298828,1.3732910156
0.2771470547,-0.7006835938,0.2280273438,0.0395507812,15.5792236328,2.4261474609,1.3732910156
0.2798910141,-0.7006835938,0.2280273438,0.0395507812,15.5792236328,2.4261474609,0.5798339844
0.2825849056,-0.7099609375,0.2221679688,0.0307617188,15.7775878906,2.5177001953,0.5798339844
0.2852749825,-0.7099609375,0.2221679688,0.0307617188,15.7775878906,2.5177001953,0.2899169922
0.2879691124,-0.7099609375,0.2221679688,0.0307617188,15.8233642578,2.1514892578,0.2899169922
0.2906389236,-0.7099609375,0.2221679688,0.0307617188,15.8233642578,2.1514892578,0.2899169922
0.2933049202,-0.7060546875,0.2309570312,0.0170898438,15.2587890625,2.1972656250,0.5645751953
0.2962760925,-0.7060546875,0.2309570312,0.0170898438,15.2587890625,2.1972656250,0.1525878906
0.2990720272,-0.7060546875,0.2309570312,0.0170898438,14.8773193359,2.0141601562,0.1525878906
0.3017940521,-0.7060546875,0.2309570312,0.0097656250,14.8773193359,2.0141601562,-0.0305175781
0.3045060635,-0.7006835938,0.2260742188,0.0097656250,14.4348144531,1.7547607422,-0.0305175781
0.3072080612,-0.7006835938,0.2260742188,0.0097656250,14.4348144531,1.7547607422,0.3967285156
0.3100299835,-0.7006835938,0.2260742188,0.0097656250,13.9007568359,1.5716552734,0.3967285156
0.3127400875,-0.7001953125,0.2177734375,-0.0146484375,13.9007568359,1.5716552734,0.2136230469
0.3154411316,-0.7001953125,0.2177734375,-0.0146484375,12.8173828125,2.0141601562,0.2136230469
0.3181579113,-0.7001953125,0.2177734375,-0.0146484375,12.8173828125,2.0141601562,-0.3204345703
0.3208649158,-0.7001953125,0.2177734375,-0.0146484375,11.0321044922,1.9378662109,-0.3204345703
0.3235650063,-0.7045898438,0.2138671875,-0.0009765625,11.0321044922,1.9378662109,0.0305175781
0.3262751102,-0.7045898438,0.2138671875,-0.0009765625,9.6435546875,1.7547607422,0.0305175781
0.3289251328,-0.7045898438,0.2138671875,-0.0009765625,9.6435546875,1.7547607422,0.5187988281
0.3314931393,-0.7045898438,0.2138671875,-0.0009765625,8.4075927734,1.4038085938,0.5187988281
0.3340640068,-0.7075195312,0.2211914062,0.0083007812,8.4075927734,1.4038085938,0.5187988281
0.3366310596,-0.7075195312,0.2211914062,0.0083007812,7.6904296875,1.2512207031,0.4882812500
0.3392579556,-0.7075195312,0.2211914062,0.0083007812,7.6904296875,1.2512207031,0.4882812500
0.3418269157,-0.7075195312,0.2211914062,0.0083007812,6.2255859375,1.1138916016,0.2746582031
0.3443899155,-0.7255859375,0.2163085938,0.0195312500,6.2255859375,1.1138916016,0.2746582031
0.3469579220,-0.7255859375,0.2163085938,0.0195312500,4.5318603516,1.5869140625,-0.1525878906
0.3496980667,-0.7255859375,0.2163085938,0.0195312500,4.5318603516,1.5869140625,-0.1525878906
0.3522629738,-0.7255859375,0.2163085938,0.0263671875,3.3569335938,1.6632080078,-0.2441406250
0.3548369408,-0.7202148438,0.2216796875,0.0263671875,3.3569335938,1.6632080078,-0.2441406250
0.3574080467,-0.7202148438,0.2216796875,0.0263671875,2.6245117188,1.3885498047,-0.2136230469
0.3602230549,-0.7202148438,0.2216796875,0.0263671875,2.6245117188,1.3885498047,-0.2136230469
0.3629190922,-0.7202148438,0.2236328125,0.0175781250,2.2583007812,1.0833740234,0.0610351562
0.3656079769,-0.7045898438,0.2236328125,0.0175781250,2.2583007812,1.0833740234,0.0610351562
0.3683190346,-0.7045898438,0.2236328125,0.0175781250,2.3040771484,1.0681152344,0.1678466797
0.3710079193,-0.7045898438,0.2236328125,0.0175781250,2.3040771484,1.0681152344,0.1678466797
0.3738009930,-0.6953125000,0.2343750000,0.0234375000,2.8228759766,1.2664794922,-0.0152587891
0.3765070438,-0.6953125000,0.2343750000,0.0234375000,2.8228759766,1.2664794922,-0.0152587891
0.3791320324,-0.6953125000,0.2343750000,0.0234375000,3.5858154297,0.9460449219,-0.4272460938
0.3817040920,-0.6953125000,0.2343750000,0.0234375000,3.5858154297,0.9460449219,-0.4272460938
0.3842720985,-0.7001953125,0.2211914062,0.0180664062,4.4097900391,1.1749267578,-0.1220703125
0.3868439198,-0.7001953125,0.2211914062,0.0180664062,4.4097900391,1.1749267578,-0.1220703125
0.3895330429,-0.7001953125,0.2211914062,0.0180664062,5.5389404297,1.2969970703,-0.2288818359
0.3922319412,-0.7001953125,0.2211914062,0.0180664062,5.5389404297,1.2969970703,-0.2288818359
0.3949251175,-0.7143554688,0.1977539062,0.0434570312,6.5002441406,1.6326904297,-0.5798339844
0.3976349831,-0.7143554688,0.1977539062,0.0434570312,6.5002441406,1.6326904297,-0.5798339844
0.4003319740,-0.7143554688,0.1977539062,0.0434570312,6.5002441406,2.0294189453,-0.5645751953
0.4030411243,-0.7143554688,0.1826171875,0.0283203125,7.4157714844,2.0294189453,-0.5645751953
0.4057369232,-0.7451171875,0.1826171875,0.0283203125,7.4157714844,1.7700195312,-0.2136230469
0.4084811211,-0.7451171875,0.1826171875,0.0283203125,7.6904296875,1.7700195312,-0.2136230469
0.4111859798,-0.7451171875,0.1826171875,0.0283203125,7.6904296875,1.7242431641,0.1220703125
0.4140861034,-0.7402343750,0.2060546875,0.0322265625,7.5531005859,1.7242431641,0.1220703125
0.4167850018,-0.7402343750,0.2060546875,0.0322265625,7.1411132812,1.9073486328,0.7781982422
0.4196491241,-0.7402343750,0.2060546875,0.0322265625,7.1411132812,1.9073486328,0.7781982422
0.4223489761,-0.7402343750,0.2060546875,0.0322265625,7.2174072266,1.8005371094,0.9918212891
0.4250550270,-0.7363281250,0.2255859375,0.0083007812,7.2174072266,1.8005371094,0.9918212891
0.4277861118,-0.7363281250,0.2255859375,0.0083007812,7.0953369141,1.7089843750,0.8392333984
0.4303541183,-0.7363281250,0.2255859375,0.0083007812,7.0953369141,1.7089843750,0.8392333984
0.4329340458,-0.7363281250,0.2255859375,-0.0039062500,7.0953369141,1.6632080078,0.7629394531
0.4355020523,-0.7255859375,0.2324218750,-0.0039062500,7.4310302734,1.6632080078,0.7629394531
0.4381349087,-0.7255859375,0.2324218750,-0.0039062500,7.4310302734,1.6632080078,0.7171630859
0.4408020973,-0.7255859375,0.2324218750,-0.0039062500,7.4615478516,1.5258789062,0.7171630859
0.4433639050,-0.7255859375,0.2285156250,-0.0019531250,7.4615478516,1.5258789062,0.5035400391
0.4459309578,-0.7021484375,0.2285156250,-0.0019531250,7.3547363281,1.0070800781,0.5035400391
0.4486720562,-0.7021484375,0.2285156250,-0.0019531250,7.3547363281,1.0070800781,-0.0610351562
0.4512360096,-0.7021484375,0.2285156250,-0.0019531250,7.7362060547,0.6713867188,-0.0610351562
0.4538059235,-0.7021484375,0.2353515625,0.0043945312,7.7362060547,0.6713867188,-0.0610351562
0.4563720226,-0.7084960938,0.2353515625,0.0043945312,8.2855224609,0.1525878906,0.0152587891
0.4589409828,-0.7084960938,0.2353515625,0.0043945312,8.2855224609,0.1525878906,0.0152587891
0.4615020752,-0.7084960938,0.2353515625,0.0043945312,7.8430175781,0.1373291016,-0.2441406250
0.4640619755,-0.7172851562,0.2280273438,-0.0112304688,7.8430175781,0.1373291016,-0.2441406250
0.4666259289,-0.7172851562,0.2280273438,-0.0112304688,7.4768066406,0.2288818359,-1.2054443359
0.4693479538,-0.7172851562,0.2280273438,-0.0112304688,7.4768066406,0.2288818359,-1.2054443359
0.4719030857,-0.7172851562,0.2280273438,-0.0112304688,5.3405761719,0.3814697266,-1.7547607422
0.4745371342,-0.7358398438,0.2197265625,0.0102539062,5.3405761719,0.3814697266,-1.7547607422
0.4771029949,-0.7358398438,0.2197265625,0.0102539062,2.1514892578,0.0152587891,-2.1362304688
0.4797849655,-0.7358398438,0.2197265625,0.0102539062,2.1514892578,0.0152587891,-2.1362304688
0.4823479652,-0.7358398438,0.2197265625,0.0102539062,-0.3204345703,-0.3051757812,-2.4719238281
0.4849090576,-0.7392578125,0.2192382812,0.0117187500,-0.3204345703,-0.3051757812,-2.4719238281
0.4874649048,-0.7392578125,0.2192382812,0.0117187500,-2.3803710938,0.0000000000,-2.8533935547
0.4902050495,-0.7392578125,0.2192382812,0.0117187500,-2.3803710938,0.0000000000,-2.8533935547
0.4936530590,-0.7392578125,0.2192382812,0.0034179688,-4.2419433594,-0.1678466797,-2.7618408203
0.4962260723,-0.7309570312,0.2207031250,0.0034179688,-4.2419433594,-0.1678466797,-2.7618408203
0.4988579750,-0.7309570312,0.2207031250,0.0034179688,-5.6915283203,-0.5645751953,-2.9754638672
0.5014200211,-0.7309570312,0.2207031250,0.0034179688,-5.6915283203,-0.5645751953,-2.9754638672
0.5040891171,-0.7309570312,0.2221679688,0.0024414062,-6.3476562500,-0.3051757812,-2.7923583984
0.5066549778,-0.7290039062,0.2221679688,0.0024414062,-6.3476562500,-0.3051757812,-2.7923583984
0.5092470646,-0.7290039062,0.2221679688,0.0024414062,-6.3476562500,-0.3356933594,-1.8310546875
0.5118110180,-0.7290039062,0.2221679688,0.0024414062,-6.3018798828,-0.3356933594,-1.8310546875
0.5143759251,-0.7290039062,0.2148437500,-0.0078125000,-6.3018798828,-0.3356933594,-1.1444091797
0.5169360638,-0.7304687500,0.2148437500,-0.0078125000,-6.4392089844,-0.5187988281,-1.1444091797
0.5195081234,-0.7304687500,0.2148437500,-0.0078125000,-6.4392089844,-0.5187988281,-0.6561279297
0.5220739841,-0.7304687500,0.2148437500,-0.0078125000,-7.3394775391,-0.7629394531,-0.6561279297
0.5246360302,-0.7465820312,0.2021484375,-0.0097656250,-7.3394775391,-0.7629394531,3.2501220703
0.5271990299,-0.7465820312,0.2021484375,-0.0097656250,-9.0789794922,-0.7629394531,0.2899169922
0.5298070908,-0.7465820312,0.2021484375,-0.0097656250,-9.0789794922,-0.7629394531,0.2899169922
0.5323739052,-0.7465820312,0.2021484375,-0.0097656250,-11.7034912109,-0.7781982422,1.2664794922
0.5349419117,-0.7749023438,0.1953125000,-0.0332031250,-11.7034912109,-0.7781982422,1.2664794922
0.5375149250,-0.7749023438,0.1953125000,-0.0332031250,-15.1062011719,0.1220703125,2.5787353516
0.5401599407,-0.7749023438,0.1953125000,-0.0332031250,-15.1062011719,0.1220703125,2.5787353516
0.5427279472,-0.7749023438,0.1953125000,-0.0332031250,-17.8375244141,1.1749267578,3.7536621094
0.5452950001,-0.8017578125,0.1899414062,-0.0400390625,-17.8375244141,1.1749267578,3.7536621094
0.5480039120,-0.8017578125,0.1899414062,-0.0400390625,-18.6309814453,1.7852783203,5.4931640625
0.5505731106,-0.8017578125,0.1899414062,-0.0400390625,-18.6309814453,1.7852783203,5.4931640625
0.5531361103,-0.8017578125,0.1899414062,-0.0400390625,-17.0593261719,2.0446777344,7.0343017578
0.5556979179,-0.8115234375,0.2197265625,-0.0468750000,-17.0593261719,2.0446777344,7.0343017578
0.5582981110,-0.8115234375,0.2197265625,-0.0468750000,-14.4805908203,1.9378662109,8.6517333984
0.5608639717,-0.8115234375,0.2197265625,-0.0468750000,-14.4805908203,1.9378662109,8.6517333984
0.5634360313,-0.8115234375,0.2197265625,-0.0468750000,-14.4805908203,2.5634765625,11.0015869141
0.5661139488,-0.8027343750,0.2138671875,-0.0834960938,-12.0391845703,2.5634765625,11.0015869141
0.5686991215,-0.8027343750,0.2138671875,-0.0834960938,-12.0391845703,2.5634765625,13.5345458984
0.5712740421,-0.8027343750,0.2138671875,-0.0834960938,-11.2915039062,2.4414062500,13.5345458984
0.5738449097,-0.8027343750,0.2138671875,-0.0834960938,-11.2915039062,2.4414062500,16.2048339844
0.5764179230,-0.8149414062,0.1704101562,-0.0947265625,-13.1530761719,2.7008056641,16.2048339844
0.5792119503,-0.8149414062,0.1704101562,-0.0947265625,-13.1530761719,2.7008056641,16.2048339844
0.5817890167,-0.8149414062,0.1704101562,-0.0947265625,-17.2119140625,4.0588378906,19.5159912109
0.5846700668,-0.8149414062,0.1728515625,-0.1210937500,-17.2119140625,4.0588378906,23.4222412109
0.5872459412,-0.8144531250,0.1728515625,-0.1210937500,-22.1099853516,4.6997070312,23.3612060547
0.5898740292,-0.8144531250,0.1728515625,-0.1210937500,-22.1099853516,4.6997070312,23.3612060547
0.5924479961,-0.8144531250,0.1728515625,-0.1210937500,-26.3519287109,5.5236816406,27.2216796875
0.5950191021,-0.8144531250,0.2290039062,-0.1499023438,-26.3519287109,5.5236816406,27.2216796875
0.5976190567,-0.7939453125,0.2290039062,-0.1499023438,-30.5633544922,6.3629150391,30.5938720703
0.6001899242,-0.7939453125,0.2290039062,-0.1499023438,-30.5633544922,6.3629150391,30.5938720703
0.6027629375,-0.7939453125,0.2290039062,-0.1499023438,-35.5224609375,7.8582763672,33.7219238281
0.6053280830,-0.7773437500,0.2416992188,-0.2016601562,-35.5224609375,7.8582763672,33.7219238281
0.6079170704,-0.7773437500,0.2416992188,-0.2016601562,-39.7796630859,8.9416503906,36.4227294922
0.6104941368,-0.7773437500,0.2416992188,-0.2016601562,-39.7796630859,8.9416503906,36.4227294922
0.6130630970,-0.7773437500,0.2416992188,-0.2016601562,-43.8842773438,10.3149414062,37.6739501953
0.6156380177,-0.7685546875,0.2294921875,-0.2871093750,-43.8842773438,10.3149414062,37.6739501953
0.6182789803,-0.7685546875,0.2294921875,-0.2871093750,-48.7823486328,12.3901367188,38.4674072266
0.6208510399,-0.7685546875,0.2294921875,-0.2871093750,-48.7823486328,12.3901367188,38.4674072266
0.6234250069,-0.7685546875,0.2294921875,-0.2871093750,-52.6885986328,13.3819580078,40.6188964844
0.6259970665,-0.7661132812,0.1875000000,-0.2988281250,-52.6428222656,13.3819580078,40.6188964844
0.6287200451,-0.7661132812,0.1875000000,-0.2988281250,-52.6428222656,13.8854980469,42.6177978516
0.6312940121,-0.7661132812,0.1875000000,-0.2988281250,-54.5806884766,13.8854980469,42.6177978516
0.6338679790,-0.7661132812,0.1875000000,-0.2988281250,-54.5806884766,13.8854980469,44.0826416016
0.6364440918,-0.7841796875,0.1440429688,-0.2231445312,-55.6640625000,14.3280029297,44.0826416016
0.6392071247,-0.7841796875,0.1440429688,-0.2231445312,-55.6640625000,14.3280029297,45.8221435547
0.6417829990,-0.7841796875,0.1440429688,-0.2231445312,-52.5207519531,14.6331787109,45.8221435547
0.6443591118,-0.7841796875,0.1440429688,-0.2231445312,-52.5207519531,14.6331787109,45.8221435547
0.6469309330,-0.8603515625,0.2612304688,-0.1845703125,-40.6951904297,15.5181884766,50.2166748047
0.6498119831,-0.8603515625,0.2612304688,-0.1845703125,-40.6951904297,15.5181884766,50.2166748047
0.6523900032,-0.8603515625,0.2612304688,-0.1845703125,-24.5208740234,16.6168212891,50.4760742188
0.6549680233,-0.8603515625,0.2612304688,-0.2319335938,-24.5208740234,16.6168212891,50.4760742188
0.6575319767,-0.8115234375,0.1870117188,-0.2319335938,-9.2163085938,17.9595947266,47.0886230469
0.6603069305,-0.8115234375,0.1870117188,-0.2319335938,-9.2163085938,17.9595947266,47.0886230469
0.6630170345,-0.8115234375,0.1870117188,-0.2319335938,6.3018798828,18.3563232422,43.2739257812
0.6657180786,-0.8115234375,0.0800781250,-0.2758789062,6.3018798828,18.3563232422,43.2739257812
0.6684639454,-0.7880859375,0.0800781250,-0.2758789062,22.4151611328,18.2342529297,39.3066406250
0.6711759567,-0.7880859375,0.0800781250,-0.2758789062,22.4151611328,18.2342529297,39.3066406250
0.6738901138,-0.7880859375,0.0800781250,-0.2758789062,35.4766845703,18.6462402344,34.9273681641
0.6766009331,-0.7407226562,0.0688476562,-0.2900390625,35.4766845703,18.6462402344,34.9273681641
0.6792430878,-0.7407226562,0.0688476562,-0.2900390625,46.7681884766,19.9432373047,29.2968750000
0.6819019318,-0.7407226562,0.0688476562,-0.2900390625,46.7681884766,19.9432373047,29.2968750000
0.6844730377,-0.7407226562,0.0688476562,-0.2900390625,58.4564208984,21.0418701172,23.1933593750
0.6870529652,-0.7148437500,0.0068359375,-0.2797851562,58.4564208984,21.0418701172,23.1933593750
0.6896340847,-0.7148437500,0.0068359375,-0.2797851562,68.8018798828,21.7590332031,17.1813964844
0.6923251152,-0.7148437500,0.0068359375,-0.2797851562,68.8018798828,21.7590332031,17.1813964844
0.6950280666,-0.7148437500,0.0068359375,-0.2797851562,76.0345458984,22.1099853516,11.5051269531
0.6985769272,-0.6972656250,-0.1000976562,-0.2539062500,76.0345458984,22.1099853516,11.5051269531
0.7011561394,-0.6972656250,-0.1000976562,-0.2539062500,79.6813964844,22.3083496094,6.4086914062
0.7037260532,-0.6972656250,-0.1000976562,-0.2539062500,79.6813964844,22.3083496094,6.4086914062
0.7062981129,-0.6606445312,-0.1372070312,-0.2514648438,80.1849365234,22.7813720703,2.0904541016
0.7089669704,-0.6606445312,-0.1372070312,-0.2514648438,80.1849365234,22.7813720703,2.0904541016
0.7115371227,-0.6606445312,-0.1372070312,-0.2514648438,78.8116455078,23.6816406250,-1.7547607422
0.7141079903,-0.6606445312,-0.1372070312,-0.2514648438,78.8116455078,23.6816406250,-1.7547607422
0.7166731358,-0.6635742188,-0.0996093750,-0.2368164062,76.9348144531,24.3988037109,-7.1868896484
0.7192540169,-0.6635742188,-0.0996093750,-0.2368164062,76.9348144531,24.3988037109,-7.1868896484
0.7218270302,-0.6635742188,-0.0996093750,-0.2368164062,73.7304687500,24.8107910156,-12.5274658203
0.7244000435,-0.6635742188,-0.0996093750,-0.2368164062,73.7304687500,24.8107910156,-12.5274658203
0.7269749641,-0.6757812500,-0.0776367188,-0.2124023438,70.1904296875,25.2685546875,-17.7459716797
0.7295980453,-0.6757812500,-0.0776367188,-0.2124023438,70.1904296875,25.2685546875,-17.7459716797
0.7321720123,-0.6757812500,-0.0776367188,-0.2124023438,70.1904296875,25.9704589844,-22.5219726562
0.7347481251,-0.6757812500,-0.0776367188,-0.2124023438,65.8721923828,25.9704589844,-22.5219726562
0.7373249531,-0.7041015625,-0.0405273438,-0.2050781250,65.8721923828,25.9704589844,-26.8096923828
0.7399060726,-0.7041015625,-0.0405273438,-0.2050781250,60.7757568359,27.0538330078,-26.8096923828
0.7424809933,-0.7041015625,-0.0405273438,-0.2050781250,60.7757568359,27.0538330078,-34.6221923828
0.7450549603,-0.7041015625,-0.0405273438,-0.2050781250,55.0689697266,27.7709960938,-31.3262939453
0.7477219105,-0.7197265625,-0.0273437500,-0.1787109375,55.0689697266,27.7709960938,-31.3262939453
0.7502970695,-0.7197265625,-0.0273437500,-0.1787109375,49.3774414062,29.0679931641,-35.8428955078
0.7528700829,-0.7197265625,-0.0273437500,-0.1787109375,49.3774414062,29.0679931641,-35.8428955078
0.7555539608,-0.7197265625,-0.0273437500,-0.1787109375,42.5262451172,30.5938720703,-39.8712158203
0.7582130432,-0.7290039062,-0.0288085938,-0.1459960938,42.5262451172,30.5938720703,-39.8712158203
0.7607901096,-0.7290039062,-0.0288085938,-0.1459960938,34.1644287109,31.4788818359,-42.7703857422
0.7633659840,-0.7290039062,-0.0288085938,-0.1459960938,34.1644287109,31.4788818359,-42.7703857422
0.7659361362,-0.7290039062,-0.0288085938,-0.0209960938,25.2990722656,32.6995849609,-45.3491210938
0.7685160637,-0.7353515625,-0.0195312500,-0.1157226562,25.2990722656,32.6995849609,-45.3491210938
0.7710900307,-0.7353515625,-0.0195312500,-0.1157226562,17.3645019531,33.4777832031,-47.5769042969
0.7736599445,-0.7353515625,-0.0195312500,-0.1157226562,17.3645019531,33.4777832031,-47.5769042969
0.7762300968,-0.7353515625,-0.0195312500,-0.1030273438,9.9029541016,33.9660644531,-49.0112304688
0.7788550854,-0.7202148438,0.0063476562,-0.1030273438,9.9029541016,33.9660644531,-49.0112304688
0.7814331055,-0.7202148438,0.0063476562,-0.1030273438,2.0904541016,34.6221923828,-50.8117675781
0.7840120792,-0.7202148438,0.0063476562,-0.1030273438,3.3111572266,34.6221923828,-50.8117675781
0.7865841389,-0.7202148438,0.0063476562,-0.0634765625,3.3111572266,34.7442626953,-51.7730712891
0.7892849445,-0.7270507812,0.0375976562,-0.0634765625,-2.2888183594,34.7442626953,-51.7730712891
0.7919900417,-0.7270507812,0.0375976562,-0.0634765625,-2.2888183594,34.1644287109,-52.8106689453
0.7946970463,-0.7270507812,0.0375976562,-0.0634765625,-8.1481933594,34.1644287109,-52.8106689453
0.7974100113,-0.7338867188,0.0620117188,-0.0341796875,-8.1481933594,34.4543457031,-54.2297363281
0.8001320362,-0.7338867188,0.0620117188,-0.0341796875,-13.7634277344,34.4543457031,-54.2297363281
0.8028349876,-0.7338867188,0.0620117188,-0.0341796875,-13.7634277344,34.8205566406,-55.3131103516
0.8055489063,-0.7338867188,0.0620117188,-0.0341796875,-19.3176269531,34.8205566406,-55.3131103516
0.8083059788,-0.7460937500,0.0966796875,-0.0151367188,-19.3176269531,35.5377197266,-55.6488037109
0.8110120296,-0.7460937500,0.0966796875,-0.0151367188,-26.0772705078,35.5377197266,-55.6488037109
0.8137741089,-0.7460937500,0.0966796875,-0.0151367188,-26.0772705078,36.6668701172,-55.4504394531
0.8164920807,-0.7460937500,0.0966796875,-0.0004882812,-32.8063964844,36.6668701172,-55.4504394531
0.8196210861,-0.7290039062,0.1411132812,-0.0004882812,-39.2761230469,37.5366210938,-55.2215576172
0.8223340511,-0.7290039062,0.1411132812,-0.0004882812,-39.2761230469,37.5366210938,-55.2215576172
0.8250410557,-0.7290039062,0.1411132812,-0.0004882812,-43.8079833984,38.7115478516,-54.2755126953
0.8277399540,-0.7343750000,0.1840820312,0.0351562500,-43.8079833984,38.7115478516,-54.2755126953
0.8303151131,-0.7343750000,0.1840820312,0.0351562500,-47.7142333984,39.5202636719,-54.1229248047
0.8328931332,-0.7343750000,0.1840820312,0.0351562500,-47.4395751953,39.5202636719,-54.1229248047
0.8354730606,-0.7343750000,0.1840820312,0.0351562500,-47.4395751953,39.5202636719,-54.6417236328
0.8381130695,-0.7202148438,0.2187500000,0.0605468750,-51.0864257812,40.1000976562,-54.6417236328
0.8408241272,-0.7202148438,0.2187500000,0.0605468750,-51.0864257812,40.1000976562,-54.1076660156
0.8435339928,-0.7202148438,0.2187500000,0.0605468750,-54.2907714844,40.5426025391,-54.1076660156
0.8462460041,-0.7202148438,0.2187500000,0.0605468750,-54.2907714844,40.5426025391,-53.1463623047
0.8489091396,-0.7177734375,0.2587890625,0.0937500000,-55.9387207031,40.4510498047,-53.1463623047
0.8514900208,-0.7177734375,0.2587890625,0.0937500000,-55.9387207031,40.4510498047,-52.5360107422
0.8540680408,-0.7177734375,0.2587890625,0.0937500000,-56.3964843750,40.3594970703,-52.5360107422
0.8566410542,-0.7177734375,0.2587890625,0.0937500000,-56.3964843750,40.3594970703,-52.5360107422
0.8592789173,-0.7192382812,0.2739257812,0.1210937500,-55.6793212891,39.9627685547,-52.3834228516
0.8618590832,-0.7192382812,0.2739257812,0.1210937500,-55.6793212891,39.9627685547,-52.3834228516
0.8644390106,-0.7192382812,0.2739257812,0.1210937500,-55.2520751953,39.2608642578,-52.3223876953
0.8670151234,-0.7192382812,0.2739257812,0.1547851562,-55.2520751953,39.2608642578,-52.3223876953
0.8697659969,-0.7294921875,0.2578125000,0.1547851562,-55.7250976562,38.6962890625,-51.9561767578
0.8723390102,-0.7294921875,0.2578125000,0.1547851562,-55.7250976562,38.6962890625,-51.9561767578
0.8749101162,-0.7294921875,0.2578125000,0.1547851562,-56.3812255859,37.1704101562,-51.1169433594
0.8774881363,-0.7294921875,0.2675781250,0.1596679688,-56.3812255859,37.1704101562,-51.1169433594
0.8801639080,-0.7099609375,0.2675781250,0.1596679688,-56.6864013672,35.5987548828,-49.9725341797
0.8828520775,-0.7099609375,0.2675781250,0.1596679688,-56.6864013672,35.5987548828,-49.9725341797
0.8854300976,-0.7099609375,0.2675781250,0.1596679688,-56.6711425781,34.0270996094,-48.9807128906
0.8880710602,-0.6884765625,0.2954101562,0.1791992188,-56.6711425781,34.0270996094,-48.9807128906
0.8907771111,-0.6884765625,0.2954101562,0.1791992188,-56.7016601562,31.6925048828,-47.4548339844
0.8934900761,-0.6884765625,0.2954101562,0.1791992188,-56.7016601562,31.6925048828,-47.4548339844
0.8961961269,-0.6884765625,0.2954101562,0.1791992188,-56.6711425781,30.0292968750,-46.1425781250
0.8989889622,-0.6708984375,0.3125000000,0.1884765625,-56.6711425781,30.0292968750,-46.1425781250
0.9017000198,-0.6708984375,0.3125000000,0.1884765625,-56.1065673828,28.2897949219,-45.0134277344
0.9044089317,-0.6708984375,0.3125000000,0.1884765625,-56.1065673828,28.2897949219,-45.0134277344
0.9071130753,-0.6708984375,0.3125000000,0.1884765625,-55.3131103516,25.9857177734,-44.1589355469
0.9098279476,-0.6640625000,0.3134765625,0.2099609375,-55.3131103516,25.9857177734,-44.1589355469
0.9125390053,-0.6640625000,0.3134765625,0.2099609375,-55.9234619141,23.4832763672,-42.9077148438
0.9152460098,-0.6640625000,0.3134765625,0.2099609375,-55.9234619141,23.4832763672,-42.9077148438
0.9180719852,-0.6640625000,0.3237304688,0.2158203125,-57.2814941406,21.3012695312,-41.4581298828
0.9206540585,-0.6508789062,0.3237304688,0.2158203125,-57.2814941406,21.3012695312,-41.4581298828
0.9232280254,-0.6508789062,0.3237304688,0.2158203125,-58.6700439453,18.6309814453,-39.9932861328
0.9258050919,-0.6508789062,0.3237304688,0.2158203125,-58.6700439453,18.6309814453,-39.9932861328
0.9283900261,-0.6508789062,0.3364257812,0.2309570312,-58.6700439453,16.2048339844,-38.5742187500
0.9309649467,-0.6455078125,0.3364257812,0.2309570312,-60.5621337891,16.2048339844,-38.5742187500
0.9335451126,-0.6455078125,0.3364257812,0.2309570312,-60.5621337891,13.8549804688,-37.7807617188
0.9363350868,-0.6455078125,0.3364257812,0.2309570312,-62.1795654297,13.8549804688,-37.7807617188
0.9393329620,-0.6459960938,0.3867187500,0.2656250000,-60.7910156250,11.2762451172,-37.3077392578
0.9420509338,-0.6459960938,0.3867187500,0.2656250000,-60.7910156250,11.2762451172,-37.3077392578
0.9447610378,-0.6459960938,0.3867187500,0.2656250000,-59.6313476562,9.1247558594,-34.9273681641
0.9475951195,-0.6459960938,0.3867187500,0.2656250000,-59.6313476562,9.1247558594,-34.9273681641
0.9502980709,-0.6489257812,0.4589843750,0.3173828125,-58.8836669922,5.4168701172,-31.6925048828
0.9530050755,-0.6489257812,0.4589843750,0.3173828125,-58.8836669922,5.4168701172,-31.6925048828
0.9557111263,-0.6489257812,0.4589843750,0.3173828125,-57.2509765625,1.8615722656,-29.4189453125
0.9584181309,-0.6489257812,0.4609375000,0.3222656250,-57.2509765625,1.8615722656,-29.4189453125
0.9611270428,-0.6494140625,0.4609375000,0.3222656250,-54.6875000000,-0.8239746094,-27.4810791016
0.9638309479,-0.6494140625,0.4609375000,0.3222656250,-54.6875000000,-0.8239746094,-27.4810791016
0.9665410519,-0.6494140625,0.4609375000,0.3222656250,-49.4537353516,-2.3193359375,-25.0854492188
0.9692161083,-0.6972656250,0.4775390625,0.2333984375,-49.4537353516,-2.3193359375,-25.0854492188
0.9717879295,-0.6972656250,0.4775390625,0.2333984375,-49.4537353516,-4.7302246094,-21.7285156250
0.9743630886,-0.6972656250,0.4775390625,0.2333984375,-47.3480224609,-4.7302246094,-21.7285156250
0.9769380093,-0.6972656250,0.4775390625,0.2333984375,-47.3480224609,-8.6364746094,-18.1732177734
0.9795169830,-0.6601562500,0.5107421875,0.2143554688,-48.5992431641,-8.8806152344,-18.1732177734
0.9820909500,-0.6601562500,0.5107421875,0.2143554688,-48.5992431641,-8.8806152344,-14.1754150391
0.9846630096,-0.6601562500,0.5107421875,0.2143554688,-52.0172119141,-11.1846923828,-14.1754150391
0.9872429371,-0.6601562500,0.5107421875,0.2143554688,-52.0172119141,-11.1846923828,-10.2691650391
0.9899230003,-0.6801757812,0.5629882812,0.1616210938,-55.2520751953,-12.6800537109,-9.0026855469
0.9925000668,-0.6801757812,0.5629882812,0.1616210938,-55.2520751953,-12.6800537109,-9.0026855469
0.9950740337,-0.6801757812,0.5629882812,0.1616210938,-60.1959228516,-13.4277343750,-2.0141601562
0.9979319572,-0.6801757812,0.5629882812,0.1616210938,-60.1959228516,-13.4277343750,-2.0141601562
1.0006411076,-0.6943359375,0.6655273438,0.0766601562,-65.5364990234,-13.0920410156,6.4392089844
1.0033459663,-0.6943359375,0.6655273438,0.0766601562,-65.5364990234,-13.0920410156,6.4392089844
1.0060501099,-0.6943359375,0.6655273438,0.0766601562,-68.6340332031,-12.6342773438,18.0511474609
1.0087709427,-0.6943359375,0.7905273438,0.0444335938,-68.6340332031,-12.6342773438,18.0511474609
1.0115909576,-0.7192382812,0.8432617188,0.0444335938,-64.3310546875,-11.7492675781,30.0140380859
1.0143001080,-0.7192382812,0.8432617188,0.0444335938,-64.3310546875,-11.7492675781,30.0140380859
1.0170130730,-0.7192382812,0.8432617188,0.0444335938,-50.7507324219,-11.4288330078,37.7502441406
1.0197360516,-0.6660156250,0.7353515625,-0.0615234375,-50.7507324219,-11.4288330078,37.7502441406
1.0224499702,-0.6660156250,0.7353515625,-0.0615234375,-28.2440185547,-11.2152099609,41.0461425781
1.0251591206,-0.6660156250,0.7353515625,-0.0615234375,-28.2440185547,-11.2152099609,41.0461425781
1.0278720856,-0.6660156250,0.7353515625,-0.0615234375,-3.4484863281,-9.8876953125,35.9191894531
1.0304439068,-0.5996093750,0.3002929688,-0.2822265625,-3.4484863281,-9.8876953125,35.9191894531
1.0330109596,-0.5996093750,0.3002929688,-0.2822265625,14.0991210938,-8.8500976562,23.9562988281
1.0355799198,-0.5996093750,0.3002929688,-0.2822265625,14.0991210938,-8.8500976562,23.9562988281
1.0382449627,-0.5996093750,0.3002929688,-0.2822265625,18.0206298828,-8.6669921875,15.1824951172
1.0408210754,-0.6289062500,0.0512695312,-0.3666992188,18.0206298828,-8.6669921875,15.1824951172
1.0433959961,-0.6289062500,0.0512695312,-0.3666992188,9.8724365234,-11.6882324219,11.3677978516
1.0459749699,-0.6289062500,0.0512695312,-0.3666992188,9.8724365234,-11.6882324219,11.3677978516
1.0486679077,-0.6289062500,0.0512695312,-0.1166992188,-2.9296875000,-19.1650390625,7.9193115234
1.0513370037,-0.6772460938,0.0332031250,-0.0527343750,-2.9296875000,-19.1650390625,7.9193115234
1.0541820526,-0.6772460938,0.0332031250,-0.0527343750,-10.6506347656,-27.4658203125,3.7689208984
1.0572710037,-0.6772460938,0.0332031250,-0.0527343750,-10.6506347656,-27.4658203125,3.7689208984
1.0599770546,-0.7700195312,0.2202148438,0.1030273438,-10.2844238281,-30.0140380859,3.8299560547
1.0626699924,-0.7700195312,0.2202148438,0.1030273438,-10.2844238281,-30.0140380859,3.8299560547
1.0653591156,-0.7700195312,0.2202148438,0.1030273438,-5.6610107422,-28.5949707031,6.7291259766
1.0680830479,-0.7700195312,0.2202148438,0.1030273438,-5.6610107422,-28.5949707031,6.7291259766
1.0707669258,-0.9052734375,0.2451171875,-0.0361328125,-6.2561035156,-28.0609130859,8.8806152344
1.0734560490,-0.9052734375,0.2451171875,-0.0361328125,-6.2561035156,-28.0609130859,8.8806152344
1.0762450695,-0.9052734375,0.2451171875,-0.0361328125,-12.4511718750,-29.7088623047,10.1318359375
1.0789511204,-0.9052734375,0.2451171875,-0.0361328125,-12.4511718750,-29.7088623047,10.1318359375
1.0816431046,-0.8715820312,0.0463867188,-0.0712890625,-21.5148925781,-30.7464599609,11.1999511719
1.0843360424,-0.8715820312,0.0463867188,-0.0712890625,-21.5148925781,-30.7464599609,11.1999511719
1.0870270729,-0.8715820312,0.0463867188,-0.0712890625,-29.1748046875,-31.1279296875,12.9394531250
1.0914759636,-0.7592773438,0.0712890625,-0.1455078125,-32.5012207031,-30.9600830078,14.3432617188
1.0944850445,-0.7592773438,0.0712890625,-0.1455078125,-32.5012207031,-30.9600830078,14.3432617188
1.0970621109,-0.7592773438,0.0712890625,-0.1455078125,-33.5235595703,-30.8074951172,14.9688720703
1.0998439789,-0.7592773438,0.2402343750,-0.1269531250,-33.5235595703,-30.8074951172,14.9688720703
1.1024160385,-0.6938476562,0.2402343750,-0.1269531250,-33.5235595703,-30.0292968750,14.2059326172
1.1049880981,-0.6938476562,0.2402343750,-0.1269531250,-31.9976806641,-30.0292968750,14.2059326172
1.1076009274,-0.6938476562,0.2402343750,-0.1269531250,-31.9976806641,-30.0292968750,12.0086669922
1.1101739407,-0.6938476562,0.3041992188,0.0161132812,-28.3203125000,-29.0832519531,12.0086669922
1.1127460003,-0.6420898438,0.3041992188,0.0161132812,-28.3203125000,-29.0832519531,8.7585449219
1.1153180599,-0.6420898438,0.3041992188,0.0161132812,-24.1546630859,-28.5186767578,8.7585449219
1.1179220676,-0.6420898438,0.3041992188,0.0161132812,-24.1546630859,-28.5186767578,8.7585449219
1.1204941273,-0.6757812500,0.2470703125,0.1015625000,-20.7366943359,-27.7252197266,6.1492919922
1.1230649948,-0.6757812500,0.2470703125,0.1015625000,-20.7366943359,-27.7252197266,6.1492919922
1.1256370544,-0.6757812500,0.2470703125,0.1015625000,-18.2800292969,-25.9399414062,4.8522949219
1.1282570362,-0.6757812500,0.2470703125,0.1015625000,-18.2800292969,-25.9399414062,4.8522949219
1.1308231354,-0.7338867188,0.1635742188,0.0932617188,-16.6015625000,-24.1546630859,4.4860839844
1.1333920956,-0.7338867188,0.1635742188,0.0932617188,-16.6015625000,-24.1546630859,4.4860839844
1.1359610558,-0.7338867188,0.1635742188,0.0932617188,-15.1367187500,-22.3999023438,4.9591064453
1.1387550831,-0.7338867188,0.1635742188,0.0932617188,-15.1367187500,-22.3999023438,4.9591064453
1.1413300037,-0.8032226562,0.1582031250,0.0664062500,-13.9007568359,-20.1721191406,5.8288574219
1.1440179348,-0.8032226562,0.1582031250,0.0664062500,-13.9007568359,-20.1721191406,5.8288574219
1.1465909481,-0.8032226562,0.1582031250,0.0664062500,-13.8244628906,-17.8375244141,6.7443847656
1.1494009495,-0.8032226562,0.1582031250,0.0664062500,-13.8244628906,-17.8375244141,6.7443847656
1.1521100998,-0.8344726562,0.1420898438,0.0375976562,-13.9770507812,-16.1437988281,7.5683593750
1.1548171043,-0.8344726562,0.1420898438,0.0375976562,-13.9770507812,-16.1437988281,7.5683593750
1.1575269699,-0.8344726562,0.1420898438,0.0375976562,-13.4429931641,-14.6026611328,8.4991455078
1.1602380276,-0.8344726562,0.1420898438,0.0278320312,-13.4429931641,-14.6026611328,8.4991455078
1.1629469395,-0.8134765625,0.1420898438,0.0278320312,-12.9852294922,-13.2446289062,9.3841552734
1.1656529903,-0.8134765625,0.1420898438,0.0278320312,-12.9852294922,-13.2446289062,9.3841552734
1.1683719158,-0.8134765625,0.1420898438,0.0278320312,-13.3209228516,-11.8255615234,9.8266601562
1.1710789204,-0.7724609375,0.1860351562,0.0000000000,-13.3209228516,-11.8255615234,9.8266601562
1.1737780571,-0.7724609375,0.1860351562,0.0000000000,-13.6718750000,-11.1541748047,10.0250244141
1.1764891148,-0.7724609375,0.1860351562,0.0000000000,-13.6718750000,-11.1541748047,10.0250244141
1.1791260242,-0.7724609375,0.1860351562,0.0000000000,-13.5192871094,-10.2539062500,10.0250244141
1.1817021370,-0.7631835938,0.1811523438,-0.0219726562,-13.5192871094,-10.2539062500,10.0250244141
1.1842811108,-0.7631835938,0.1811523438,-0.0219726562,-12.9547119141,-9.2926025391,10.7116699219
1.1868600845,-0.7631835938,0.1811523438,-0.0219726562,-12.9547119141,-9.2926025391,10.7116699219
1.1895229816,-0.7631835938,0.1811523438,-0.0219726562,-12.9547119141,-8.6669921875,11.1083984375
1.1921911240,-0.7714843750,0.1484375000,-0.0463867188,-11.7645263672,-8.6669921875,11.1083984375
1.1948540211,-0.7714843750,0.1484375000,-0.0463867188,-11.7645263672,-7.9803466797,11.7950439453
1.1975929737,-0.7714843750,0.1484375000,-0.0463867188,-11.0168457031,-7.9803466797,11.7950439453
1.2002990246,-0.7714843750,0.1484375000,-0.0532226562,-11.0168457031,-7.6904296875,13.3209228516
1.2030019760,-0.7832031250,0.1406250000,-0.0532226562,-10.8489990234,-7.6904296875,13.3209228516
1.2058589458,-0.7832031250,0.1406250000,-0.0532226562,-10.8489990234,-6.8359375000,15.2740478516
1.2089929581,-0.7832031250,0.1406250000,-0.0532226562,-10.7421875000,-6.8359375000,15.2740478516
1.2117040157,-0.7675781250,0.1269531250,-0.0405273438,-10.4980468750,-6.9427490234,16.7541503906
1.2144050598,-0.7675781250,0.1269531250,-0.0405273438,-10.4980468750,-6.9427490234,16.7541503906
1.2171061039,-0.7675781250,0.1269531250,-0.0405273438,-10.2844238281,-6.3323974609,17.9138183594
1.2198181152,-0.7675781250,0.1269531250,-0.0405273438,-10.2844238281,-6.3323974609,17.9138183594
1.2225229740,-0.7465820312,0.1557617188,-0.0092773438,-11.6271972656,-5.4779052734,18.9514160156
1.2252271175,-0.7465820312,0.1557617188,-0.0092773438,-11.6271972656,-5.4779052734,18.9514160156
1.2279369831,-0.7465820312,0.1557617188,-0.0092773438,-12.2070312500,-5.2795410156,19.9584960938
1.2305109501,-0.7465820312,0.1557617188,0.1157226562,-12.2070312500,-5.2795410156,19.9584960938
1.2330861092,-0.7211914062,0.2094726562,0.0014648438,-12.2070312500,-4.8522949219,20.0500488281
1.2356619835,-0.7211914062,0.2094726562,0.0014648438,-12.0697021484,-4.8522949219,20.0500488281
1.2382841110,-0.7211914062,0.2094726562,0.0014648438,-12.0697021484,-4.8522949219,19.9890136719
1.2408571243,-0.7211914062,0.2094726562,0.0214843750,-10.9405517578,-4.1046142578,19.9890136719
1.2434310913,-0.7285156250,0.2255859375,0.0214843750,-10.9405517578,-4.1046142578,19.6075439453
1.2460010052,-0.7285156250,0.2255859375,0.0214843750,-9.8876953125,-3.0822753906,19.6075439453
1.2485749722,-0.7285156250,0.2255859375,0.0214843750,-9.8876953125,-3.0822753906,15.7012939453
1.2511451244,-0.7285156250,0.2255859375,0.0229492188,-8.3465576172,-2.3651123047,18.7530517578
1.2537109852,-0.7216796875,0.2324218750,0.0229492188,-8.3465576172,-2.3651123047,18.7530517578
1.2562830448,-0.7216796875,0.2324218750,0.0229492188,-6.8817138672,-1.6784667969,17.6696777344
1.2589750290,-0.7216796875,0.2324218750,0.0229492188,-6.8817138672,-1.6784667969,17.6696777344
1.2615420818,-0.7216796875,0.2216796875,0.0146484375,-5.0201416016,-1.0681152344,16.7846679688
1.2641110420,-0.7236328125,0.2216796875,0.0146484375,-5.0201416016,-1.0681152344,16.7846679688
1.2666749954,-0.7236328125,0.2216796875,0.0146484375,-3.8452148438,-1.0070800781,15.4571533203
1.2694280148,-0.7236328125,0.2216796875,0.0146484375,-3.8452148438,-1.0070800781,15.4571533203
1.2722299099,-0.7060546875,0.2387695312,0.0039062500,-1.6174316406,-0.4730224609,13.9617919922
1.2749350071,-0.7060546875,0.2387695312,0.0039062500,-1.6174316406,-0.4730224609,13.9617919922
1.2776429653,-0.7060546875,0.2387695312,0.0039062500,0.0000000000,-0.3967285156,12.7563476562
1.2802150249,-0.7060546875,0.2387695312,0.0039062500,0.0000000000,-0.3967285156,12.7563476562
1.2827780247,-0.6997070312,0.2705078125,-0.0219726562,0.9765625000,-0.5340576172,11.6271972656
1.2853469849,-0.6997070312,0.2705078125,-0.0219726562,0.9765625000,-0.5340576172,11.6271972656
1.2879500389,-0.6997070312,0.2705078125,-0.0219726562,1.8157958984,-0.8544921875,9.1705322266
1.2906420231,-0.6997070312,0.2705078125,-0.0219726562,1.8157958984,-0.8544921875,9.1705322266
1.2933390141,-0.6889648438,0.2465820312,-0.0278320312,2.4108886719,-0.9155273438,7.2479248047
1.2960379124,-0.6889648438,0.2465820312,-0.0278320312,2.4108886719,-0.9155273438,7.2479248047
1.2987439632,-0.6889648438,0.2465820312,-0.0278320312,2.5024414062,-1.3275146484,6.4697265625
1.3014380932,-0.6889648438,0.2465820312,-0.0478515625,2.5024414062,-1.3275146484,6.4697265625
1.3041350842,-0.6909179688,0.2343750000,-0.0478515625,1.7242431641,-1.8005371094,5.3100585938
1.3068330288,-0.6909179688,0.2343750000,-0.0478515625,1.7242431641,-1.8005371094,5.3100585938
1.3095419407,-0.6909179688,0.2343750000,-0.0478515625,0.6866455078,-2.3803710938,4.2266845703
1.3122420311,-0.6909179688,0.2094726562,-0.0356445312,0.6866455078,-2.3803710938,4.2266845703
1.3149349689,-0.6987304688,0.2094726562,-0.0356445312,0.4272460938,-2.5634765625,3.4637451172
1.3176400661,-0.6987304688,0.2094726562,-0.0356445312,0.4272460938,-2.5634765625,3.4637451172
1.3203380108,-0.6987304688,0.2094726562,-0.0356445312,0.3662109375,-2.5634765625,2.9449462891
1.3230381012,-0.6962890625,0.2285156250,-0.0410156250,0.3662109375,-2.5634765625,2.9449462891
1.3258299828,-0.6962890625,0.2285156250,-0.0410156250,0.1373291016,-2.9907226562,2.4566650391
1.3285019398,-0.6962890625,0.2285156250,-0.0410156250,0.1373291016,-2.9907226562,2.4566650391
1.3310611248,-0.6962890625,0.2285156250,-0.0410156250,0.1373291016,-4.5166015625,1.7700195312
1.3336291313,-0.6953125000,0.2412109375,-0.0463867188,0.5035400391,-4.5166015625,1.7700195312
1.3362989426,-0.6953125000,0.2412109375,-0.0463867188,0.5035400391,-4.5166015625,1.3275146484
1.3389430046,-0.6953125000,0.2412109375,-0.0463867188,1.5411376953,-5.4473876953,1.3275146484
1.3416481018,-0.6953125000,0.2412109375,-0.0258789062,1.5411376953,-5.4473876953,0.5035400391
1.3443400860,-0.7055664062,0.2275390625,-0.0258789062,2.3498535156,-5.7067871094,0.5035400391
1.3470430374,-0.7055664062,0.2275390625,-0.0258789062,2.3498535156,-5.7067871094,0.6103515625
1.3497529030,-0.7055664062,0.2275390625,-0.0258789062,3.1433105469,-6.1798095703,0.6103515625
1.3524520397,-0.7055664062,0.1977539062,-0.0229492188,3.1433105469,-6.1798095703,0.8850097656
1.3551509380,-0.7158203125,0.1977539062,-0.0229492188,2.9449462891,-6.6833496094,0.8850097656
1.3578839302,-0.7158203125,0.1977539062,-0.0229492188,2.9449462891,-6.6833496094,1.4801025391
1.3604481220,-0.7158203125,0.1977539062,-0.0229492188,2.1820068359,-6.9885253906,1.4801025391
1.3630161285,-0.7187500000,0.2143554688,-0.0102539062,2.1820068359,-6.9885253906,1.4801025391
1.3655779362,-0.7187500000,0.2143554688,-0.0102539062,2.2735595703,-7.2021484375,1.9073486328
1.3682279587,-0.7187500000,0.2143554688,-0.0102539062,2.2735595703,-7.2021484375,1.9073486328
1.3707900047,-0.7187500000,0.2143554688,-0.0102539062,3.0975341797,-7.3242187500,2.5939941406
1.3733570576,-0.7055664062,0.2216796875,-0.0166015625,3.0975341797,-7.3242187500,2.5939941406
1.3759291172,-0.7055664062,0.2216796875,-0.0166015625,3.5705566406,-7.2174072266,2.3803710938
1.3786730766,-0.7055664062,0.2216796875,-0.0166015625,3.5705566406,-7.2174072266,2.3803710938
1.3812429905,-0.7055664062,0.2216796875,-0.0166015625,3.4637451172,-7.0343017578,1.9531250000
1.3838150501,-0.7290039062,0.2114257812,-0.0117187500,3.4637451172,-7.0343017578,1.9531250000
1.3863871098,-0.7290039062,0.2114257812,-0.0117187500,3.8452148438,-7.6446533203,2.1362304688
1.3890829086,-0.7290039062,0.2114257812,-0.0117187500,3.8452148438,-7.6446533203,2.1362304688
1.3917839527,-0.7290039062,0.2114257812,-0.0117187500,4.3334960938,-7.5378417969,2.4566650391
1.3944790363,-0.7309570312,0.2080078125,-0.0117187500,4.3334960938,-7.5378417969,2.4566650391
1.3972549438,-0.7309570312,0.2080078125,-0.0117187500,4.8980712891,-7.2479248047,2.3956298828
1.4000430107,-0.7309570312,0.2080078125,-0.0117187500,4.8980712891,-7.2479248047,2.3956298828
1.4027011395,-0.7309570312,0.2241210938,-0.0166015625,5.3710937500,-7.7056884766,2.3345947266
1.4054610729,-0.7182617188,0.2241210938,-0.0166015625,5.3710937500,-7.7056884766,2.3345947266
1.4089190960,-0.7182617188,0.2241210938,-0.0166015625,5.4626464844,-8.0413818359,2.3498535156
1.4114849567,-0.7182617188,0.2241210938,-0.0166015625,5.4626464844,-8.0413818359,2.3498535156
1.4140419960,-0.7001953125,0.2236328125,-0.0283203125,5.4779052734,-8.3618164062,2.7313232422
1.4166021347,-0.7001953125,0.2236328125,-0.0283203125,5.4779052734,-8.3618164062,2.7313232422
1.4192340374,-0.7001953125,0.2236328125,-0.0283203125,5.3863525391,-8.7890625000,2.4261474609
1.4217960835,-0.7001953125,0.2236328125,-0.0283203125,5.3863525391,-8.7890625000,2.4261474609
1.4243531227,-0.6997070312,0.2304687500,-0.0185546875,5.8898925781,-8.9874267578,2.1820068359
1.4269130230,-0.6997070312,0.2304687500,-0.0185546875,5.8898925781,-8.9874267578,2.1820068359
1.4294850826,-0.6997070312,0.2304687500,-0.0185546875,6.9580078125,-9.1094970703,2.6397705078
1.4320499897,-0.6997070312,0.2304687500,-0.0185546875,6.9580078125,-9.1094970703,2.6397705078
1.4346139431,-0.7070312500,0.2197265625,-0.0229492188,6.9580078125,-9.5214843750,3.1890869141
1.4371759892,-0.7070312500,0.2197265625,-0.0229492188,7.5225830078,-9.5214843750,3.1890869141
1.4397859573,-0.7070312500,0.2197265625,-0.0229492188,7.5225830078,-9.7656250000,3.3416748047
1.4423439503,-0.7070312500,0.2197265625,-0.0229492188,8.3160400391,-9.7656250000,3.3416748047
1.4449019432,-0.7309570312,0.1997070312,0.0014648438,8.3160400391,-9.7656250000,4.1961669922
1.4474670887,-0.7309570312,0.1997070312,0.0014648438,9.0942382812,-9.0484619141,4.1961669922
1.4500360489,-0.7309570312,0.1997070312,0.0014648438,9.0942382812,-9.0484619141,4.1961669922
1.4526050091,-0.7309570312,0.1997070312,0.0014648438,9.6282958984,-8.8653564453,5.6915283203
1.4551649094,-0.7402343750,0.1962890625,0.0156250000,9.6282958984,-8.8653564453,5.6915283203
1.4578421116,-0.7402343750,0.1962890625,0.0156250000,10.8032226562,-8.6059570312,7.1716308594
1.4604279995,-0.7402343750,0.1962890625,0.0156250000,10.8032226562,-8.6059570312,7.1716308594
1.4631059170,-0.7402343750,0.1962890625,0.0356445312,12.2375488281,-7.7056884766,8.7432861328
1.4656789303,-0.7490234375,0.2070312500,0.0356445312,12.2375488281,-7.7056884766,8.7432861328
1.4684209824,-0.7490234375,0.2070312500,0.0356445312,14.4958496094,-6.9274902344,9.9487304688
1.4711239338,-0.7490234375,0.2070312500,0.0356445312,14.4958496094,-6.9274902344,9.9487304688
1.4738259315,-0.8740234375,0.1933593750,0.0473632812,16.5710449219,-6.5307617188,11.1389160156
1.4765319824,-0.7651367188,0.1933593750,0.0473632812,16.5710449219,-6.5307617188,11.1389160156
1.4792039394,-0.7651367188,0.1933593750,0.0473632812,18.1579589844,-5.2642822266,12.2375488281
1.4817790985,-0.7651367188,0.1933593750,0.0473632812,18.1579589844,-5.2642822266,12.2375488281
1.4843590260,-0.8046875000,0.1689453125,0.0698242188,19.0429687500,-3.7078857422,13.9770507812
1.4869370461,-0.8046875000,0.1689453125,0.0698242188,19.0429687500,-3.7078857422,13.9770507812
1.4896171093,-0.8046875000,0.1689453125,0.0698242188,18.7225341797,-2.6702880859,15.9149169922
1.4923241138,-0.8046875000,0.1689453125,0.0698242188,18.7225341797,-2.6702880859,15.9149169922
1.4950320721,-0.7924804688,0.1684570312,0.0600585938,18.1579589844,-1.6021728516,18.0969238281
1.4977290630,-0.7924804688,0.1684570312,0.0600585938,18.1579589844,-1.6021728516,18.0969238281
1.5003039837,-0.7924804688,0.1684570312,0.0600585938,17.5323486328,-0.8850097656,20.1416015625
1.5028820038,-0.7924804688,0.1684570312,0.0600585938,17.5323486328,-0.8850097656,20.1416015625
1.5054540634,-0.7646484375,0.1884765625,0.0234375000,16.5252685547,-0.1068115234,22.4761962891
1.5081100464,-0.7646484375,0.1884765625,0.0234375000,16.5252685547,-0.1068115234,22.4761962891
1.5108129978,-0.7646484375,0.1884765625,0.0234375000,15.3961181641,1.0681152344,24.5666503906
1.5135130882,-0.7646484375,0.1884765625,-0.0053710938,15.3961181641,1.0681152344,24.5666503906
1.5162310600,-0.7641601562,0.1821289062,-0.0053710938,15.3656005859,1.9226074219,26.0925292969
1.5189499855,-0.7641601562,0.1821289062,-0.0053710938,15.3656005859,1.9226074219,26.0925292969
1.5216510296,-0.7641601562,0.1821289062,-0.0053710938,15.3656005859,2.5329589844,27.5726318359
1.5244390965,-0.7524414062,0.1767578125,-0.0058593750,15.0299072266,2.5329589844,27.5726318359
1.5272591114,-0.7524414062,0.1767578125,-0.0058593750,15.1367187500,2.5634765625,29.2510986328
1.5298781395,-0.7524414062,0.1767578125,-0.0058593750,15.1367187500,2.5634765625,29.2510986328
1.5324549675,-0.7524414062,0.1767578125,-0.0058593750,15.1367187500,3.0822753906,30.8685302734
1.5350320339,-0.7534179688,0.2021484375,-0.0341796875,15.2130126953,3.0822753906,30.8685302734
1.5376191139,-0.7534179688,0.2021484375,-0.0341796875,15.2130126953,3.0822753906,32.7606201172
1.5403239727,-0.7534179688,0.2021484375,-0.0341796875,16.0522460938,3.6315917969,32.7606201172
1.5430359840,-0.7534179688,0.2021484375,-0.0341796875,16.0522460938,7.5378417969,34.0423583984
1.5457460880,-0.7578125000,0.2011718750,-0.0341796875,16.9372558594,4.0740966797,34.0423583984
1.5484960079,-0.7578125000,0.2011718750,-0.0341796875,16.9372558594,4.0740966797,35.0036621094
1.5511999130,-0.7578125000,0.2011718750,-0.0341796875,16.9830322266,4.2114257812,35.0036621094
1.5539109707,-0.7578125000,0.2011718750,-0.0190429688,16.9830322266,4.2114257812,36.2243652344
1.5566139221,-0.7612304688,0.2138671875,-0.0190429688,16.7236328125,4.5471191406,36.2243652344
1.5592601299,-0.7612304688,0.2138671875,-0.0190429688,16.7236328125,4.5471191406,37.2314453125
1.5618340969,-0.7612304688,0.2138671875,-0.0190429688,15.0451660156,5.4321289062,37.2314453125
1.5644130707,-0.7612304688,0.2280273438,-0.0283203125,15.0451660156,5.4321289062,37.2314453125
1.5669929981,-0.7597656250,0.2280273438,-0.0283203125,13.5498046875,5.6762695312,38.2843017578
1.5697069168,-0.7597656250,0.2280273438,-0.0283203125,13.5498046875,5.6762695312,38.2843017578
1.5722861290,-0.7597656250,0.2280273438,-0.0283203125,11.1236572266,5.6457519531,39.5355224609
1.5748569965,-0.7446289062,0.2456054688,-0.0390625000,11.1236572266,5.6457519531,39.5355224609
1.5774290562,-0.7446289062,0.2456054688,-0.0390625000,8.3465576172,5.1422119141,40.5883789062
1.5802509785,-0.7446289062,0.2456054688,-0.0390625000,8.3465576172,5.1422119141,40.5883789062
1.5829529762,-0.7446289062,0.2456054688,-0.0390625000,5.9814453125,4.4403076172,41.0919189453
1.5856580734,-0.7509765625,0.2685546875,-0.0556640625,5.9814453125,4.4403076172,41.0919189453
1.5883760452,-0.7509765625,0.2685546875,-0.0556640625,5.2337646484,4.2877197266,42.1600341797
1.5911870003,-0.7509765625,0.2685546875,-0.0556640625,5.2337646484,4.2877197266,42.1600341797
1.5938930511,-0.7509765625,0.2685546875,-0.0556640625,5.0201416016,3.4484863281,43.2128906250
1.5965940952,-0.7563476562,0.2446289062,-0.0493164062,5.0201416016,3.4484863281,43.2128906250
1.5993080139,-0.7563476562,0.2446289062,-0.0493164062,6.0882568359,2.6092529297,43.8995361328
1.6021590233,-0.7563476562,0.2446289062,-0.0493164062,6.0882568359,2.6092529297,43.8995361328
1.6047310829,-0.7563476562,0.2387695312,-0.0444335938,7.0190429688,2.0904541016,45.1812744141
1.6073000431,-0.7680664062,0.2387695312,-0.0444335938,7.0190429688,2.0904541016,45.1812744141
1.6100409031,-0.7680664062,0.2387695312,-0.0444335938,7.2937011719,1.0223388672,46.3409423828
1.6127009392,-0.7680664062,0.2387695312,-0.0444335938,7.2937011719,1.0223388672,46.3409423828
1.6154890060,-0.7880859375,0.2460937500,-0.0356445312,8.1024169922,0.0762939453,47.1191406250
1.6187930107,-0.7880859375,0.2460937500,-0.0356445312,8.1024169922,0.0762939453,47.1191406250
1.6213660240,-0.7880859375,0.2460937500,-0.0356445312,9.6740722656,-0.4730224609,47.7752685547
1.6239299774,-0.7880859375,0.2460937500,-0.0356445312,9.6740722656,-0.4730224609,47.7752685547
1.6264901161,-0.8027343750,0.2490234375,-0.0463867188,10.0555419922,-1.2512207031,47.8515625000
1.6292169094,-0.8027343750,0.2490234375,-0.0463867188,10.0555419922,-1.2512207031,47.8515625000
1.6317880154,-0.8027343750,0.2490234375,-0.0463867188,10.0555419922,-1.9226074219,48.1719970703
1.6343610287,-0.8027343750,0.2490234375,-0.0463867188,10.0555419922,-1.9226074219,48.1719970703
1.6369349957,-0.8046875000,0.2490234375,-0.0463867188,10.7116699219,-2.4566650391,49.1027832031
1.6396570206,-0.8046875000,0.2490234375,-0.0463867188,10.7116699219,-2.4566650391,49.1027832031
1.6422250271,-0.8046875000,0.2490234375,-0.0463867188,10.5743408203,-2.8228759766,49.8809814453
1.6447949409,-0.8046875000,0.2490234375,-0.0502929688,10.5743408203,-2.8228759766,49.8809814453
1.6473650932,-0.8076171875,0.2631835938,-0.0502929688,10.1013183594,-3.4942626953,50.2319335938
1.6501789093,-0.8076171875,0.2631835938,-0.0502929688,10.1013183594,-3.4942626953,50.2319335938
1.6527531147,-0.8076171875,0.2631835938,-0.0502929688,10.1470947266,-3.6621093750,50.2319335938
1.6554360390,-0.8076171875,0.2382812500,-0.0703125000,10.1470947266,-3.6621093750,50.2319335938
1.6580090523,-0.8002929688,0.2382812500,-0.0703125000,9.8266601562,-2.6397705078,50.7202148438
1.6606779099,-0.8002929688,0.2382812500,-0.0703125000,9.8266601562,-2.6397705078,50.7202148438
1.6632449627,-0.8002929688,0.2382812500,-0.0703125000,9.8266601562,-2.1209716797,51.8646240234
1.6658110619,-0.7890625000,0.2441406250,-0.0722656250,9.2468261719,-2.1209716797,51.8646240234
1.6684219837,-0.7890625000,0.2441406250,-0.0722656250,9.2468261719,-1.4648437500,52.0172119141
1.6710739136,-0.7890625000,0.2441406250,-0.0722656250,8.2397460938,-1.4648437500,52.0172119141
1.6736431122,-0.7890625000,0.2441406250,-0.0722656250,8.2397460938,-1.4648437500,52.3376464844
1.6762170792,-0.7783203125,0.2753906250,-0.0644531250,6.9580078125,-0.7629394531,52.3376464844
1.6789829731,-0.7783203125,0.2753906250,-0.0644531250,6.9580078125,-0.7629394531,52.9022216797
1.6815531254,-0.7783203125,0.2753906250,-0.0644531250,5.4473876953,-0.5645751953,52.9022216797
1.6841230392,-0.7783203125,0.2753906250,-0.0644531250,5.4473876953,-0.5645751953,52.9022216797
1.6866819859,-0.7661132812,0.3129882812,-0.0297851562,4.0588378906,-0.4577636719,52.9937744141
1.6892600060,-0.7661132812,0.3129882812,-0.0297851562,4.0588378906,-0.4577636719,52.9937744141
1.6918289661,-0.7661132812,0.3129882812,-0.0297851562,2.3803710938,-0.2593994141,52.8869628906
1.6943910122,-0.7661132812,0.3129882812,-0.0297851562,2.3803710938,-0.2593994141,52.8869628906
1.6969590187,-0.7641601562,0.3256835938,-0.0146484375,-0.3356933594,0.0762939453,51.6510009766
1.6996901035,-0.7641601562,0.3256835938,-0.0146484375,-0.3356933594,0.0762939453,51.6510009766
1.7023930550,-0.7641601562,0.3256835938,-0.0146484375,-2.4871826172,0.1983642578,50.7659912109
1.7051420212,-0.7641601562,0.3256835938,-0.0146484375,-2.4871826172,0.1983642578,50.7659912109
1.7078189850,-0.7670898438,0.3212890625,-0.0102539062,-4.6997070312,0.0152587891,50.6286621094
1.7104020119,-0.7670898438,0.3212890625,-0.0102539062,-4.6997070312,0.0152587891,50.6286621094
1.7135450840,-0.7670898438,0.3212890625,-0.0102539062,-5.7220458984,-0.6256103516,50.3540039062
1.7161159515,-0.6420898438,0.3354492188,-0.0034179688,-5.7220458984,-0.6256103516,50.3540039062
1.7188990116,-0.7485351562,0.3354492188,-0.0034179688,-5.0659179688,-0.7171630859,49.6368408203
1.7214710712,-0.7485351562,0.3354492188,-0.0034179688,-5.0659179688,-0.7171630859,49.6368408203
1.7240390778,-0.7485351562,0.3354492188,-0.0034179688,-3.7231445312,-0.1068115234,49.7283935547
1.7266149521,-0.7338867188,0.3173828125,0.0161132812,-3.7231445312,-0.1068115234,49.7283935547
1.7292389870,-0.7338867188,0.3173828125,0.0161132812,-2.3651123047,0.7934570312,49.2401123047
1.7318019867,-0.7338867188,0.3173828125,0.0161132812,-2.3651123047,0.7934570312,49.2401123047
1.7343769073,-0.7338867188,0.3173828125,0.0161132812,-0.1983642578,1.0986328125,48.9959716797
1.7369470596,-0.7167968750,0.3413085938,0.0131835938,-0.1983642578,1.0986328125,48.9959716797
1.7395200729,-0.7167968750,0.3413085938,0.0131835938,2.4871826172,0.9460449219,49.0417480469
1.7420880795,-0.7167968750,0.3413085938,0.0131835938,2.4871826172,0.9460449219,49.0417480469
1.7446589470,-0.7167968750,0.3413085938,0.0131835938,2.4871826172,0.9765625000,48.8281250000
1.7472310066,-0.7124023438,0.3413085938,0.0361328125,4.3182373047,0.9765625000,48.8281250000
1.7498259544,-0.7124023438,0.3413085938,0.0361328125,4.3182373047,0.9765625000,48.8891601562
1.7523920536,-0.7124023438,0.3413085938,0.0361328125,5.7678222656,1.2969970703,48.8891601562
1.7549569607,-0.7124023438,0.3413085938,0.0361328125,5.7678222656,1.2969970703,48.8891601562
1.7575199604,-0.7231445312,0.3378906250,0.0605468750,6.5002441406,1.4801025391,48.7365722656
1.7601261139,-0.7231445312,0.3378906250,0.0605468750,6.5002441406,1.4801025391,48.7365722656
1.7626919746,-0.7231445312,0.3378906250,0.0605468750,6.2255859375,1.3580322266,47.8210449219
1.7652590275,-0.7231445312,0.3378906250,0.0605468750,6.2255859375,1.3580322266,47.8210449219
1.7679800987,-0.7231445312,0.2744140625,0.0883789062,5.9509277344,0.9002685547,46.6766357422
1.7705459595,-0.7231445312,0.2744140625,0.0883789062,5.9509277344,0.9002685547,46.6766357422
1.7731130123,-0.7231445312,0.2744140625,0.0883789062,7.3394775391,0.5493164062,44.2199707031
1.7756841183,-0.7231445312,0.2744140625,0.0883789062,7.3394775391,0.5493164062,44.2199707031
1.7783000469,-0.6884765625,0.1298828125,0.0869140625,9.5672607422,0.4272460938,41.6564941406
1.7808659077,-0.6884765625,0.1298828125,0.0869140625,9.5672607422,0.4272460938,41.6564941406
1.7835350037,-0.6884765625,0.1298828125,0.0869140625,12.5732421875,0.1068115234,38.3453369141
1.7861020565,-0.6884765625,0.1298828125,0.0644531250,12.5732421875,0.1068115234,38.3453369141
1.7887439728,-0.6660156250,0.0288085938,0.0644531250,15.7623291016,-0.4577636719,35.4766845703
1.7914509773,-0.6660156250,0.0288085938,0.0644531250,15.7623291016,-0.4577636719,35.4766845703
1.7941589355,-0.6660156250,0.0288085938,0.0644531250,19.0277099609,-1.4495849609,31.6925048828
1.7968730927,-0.6660156250,0.0097656250,0.0668945312,19.0277099609,-1.4495849609,31.6925048828
1.7995910645,-0.6562500000,0.0097656250,0.0668945312,23.0712890625,-2.3040771484,28.0609130859
1.8023071289,-0.6562500000,0.0097656250,0.0668945312,23.0712890625,-2.3040771484,28.0609130859
1.8050150871,-0.6562500000,0.0097656250,0.0668945312,28.8543701172,-2.2583007812,26.1230468750
1.8079869747,-0.6621093750,0.0639648438,0.0405273438,28.8543701172,-2.2583007812,26.1230468750
1.8106520176,-0.6621093750,0.0639648438,0.0405273438,34.7595214844,-2.9907226562,22.2778320312
1.8133671284,-0.6621093750,0.0639648438,0.0405273438,34.7595214844,-2.9907226562,22.2778320312
1.8161549568,-0.6621093750,0.0639648438,0.0405273438,38.6047363281,-4.1198730469,15.7318115234
1.8188090324,-0.6772460938,0.0034179688,0.0288085938,38.6047363281,-4.1198730469,15.7318115234
1.8213770390,-0.6772460938,0.0034179688,0.0288085938,40.4815673828,-4.4708251953,10.0250244141
1.8239469528,-0.6772460938,0.0034179688,0.0288085938,40.4815673828,-4.4708251953,10.0250244141
1.8265199661,-0.6772460938,0.0034179688,0.0058593750,40.4815673828,-4.9591064453,4.5776367188
1.8291001320,-0.6679687500,-0.0488281250,0.0058593750,40.2679443359,-4.9591064453,4.5776367188
1.8316681385,-0.6679687500,-0.0488281250,0.0058593750,40.2679443359,-4.9591064453,-0.2136230469
1.8342370987,-0.6679687500,-0.0488281250,0.0058593750,38.2843017578,-6.3171386719,-0.2136230469
1.8368000984,-0.6679687500,-0.0488281250,-0.0014648438,38.2843017578,-6.3171386719,-4.6386718750
1.8394069672,-0.6484375000,-0.0649414062,-0.0014648438,35.5987548828,-7.1868896484,-4.6386718750
1.8419759274,-0.6484375000,-0.0649414062,-0.0014648438,35.5987548828,-7.1868896484,-8.5449218750
1.8445470333,-0.6484375000,-0.0649414062,-0.0014648438,32.1502685547,-7.7056884766,-9.0332031250
1.8472290039,-0.6484375000,-0.0610351562,-0.0136718750,32.1502685547,-7.7056884766,-9.0332031250
1.8498280048,-0.6269531250,-0.0610351562,-0.0136718750,28.4729003906,-7.8125000000,-13.7786865234
1.8523991108,-0.6269531250,-0.0610351562,-0.0136718750,28.4729003906,-7.8125000000,-13.7786865234
1.8549659252,-0.6269531250,-0.0610351562,-0.0136718750,23.9105224609,-8.3923339844,-18.4783935547
1.8575351238,-0.6181640625,-0.0742187500,-0.0268554688,23.9105224609,-8.3923339844,-18.4783935547
1.8602700233,-0.6181640625,-0.0742187500,-0.0268554688,19.0582275391,-8.7432861328,-23.3459472656
1.8628380299,-0.6181640625,-0.0742187500,-0.0268554688,19.0582275391,-8.7432861328,-23.3459472656
1.8654091358,-0.6181640625,-0.0742187500,-0.0268554688,13.5192871094,-8.9263916016,-27.6794433594
1.8681309223,-0.6250000000,-0.0776367188,-0.0336914062,13.5192871094,-8.9263916016,-27.6794433594
1.8707060814,-0.6250000000,-0.0776367188,-0.0336914062,7.1868896484,-8.9111328125,-32.2570800781
1.8732759953,-0.6250000000,-0.0776367188,-0.0336914062,7.1868896484,-8.9111328125,-32.2570800781
1.8758389950,-0.6250000000,-0.0776367188,-0.0336914062,0.7476806641,-8.7738037109,-36.7279052734
1.8784670830,-0.6406250000,-0.0664062500,-0.0405273438,0.7476806641,-8.7738037109,-36.7279052734
1.8810279369,-0.6406250000,-0.0664062500,-0.0405273438,-5.2490234375,-8.5449218750,-41.0308837891
1.8835899830,-0.6406250000,-0.0664062500,-0.0405273438,-5.2490234375,-8.5449218750,-41.0308837891
1.8861589432,-0.6406250000,-0.0664062500,-0.0405273438,-5.2490234375,-8.3923339844,-45.5322265625
1.8888490200,-0.6479492188,-0.0302734375,-0.0351562500,-11.7034912109,-8.3923339844,-45.5322265625
1.8914229870,-0.6479492188,-0.0302734375,-0.0351562500,-11.7034912109,-8.3923339844,-49.3011474609
1.8939931393,-0.6479492188,-0.0302734375,-0.0351562500,-17.4255371094,-7.9498291016,-49.3011474609
1.8965630531,-0.6479492188,-0.0302734375,-0.0351562500,-17.4255371094,-7.9498291016,-53.2531738281
1.8991429806,-0.6533203125,0.0014648438,-0.0366210938,-21.7895507812,-7.9345703125,-53.2531738281
1.9017150402,-0.6533203125,0.0014648438,-0.0366210938,-21.7895507812,-7.9345703125,-53.2531738281
1.9042799473,-0.6533203125,0.0014648438,-0.0366210938,-25.9857177734,-8.0108642578,-57.1136474609
1.9068529606,-0.6533203125,0.0014648438,-0.0366210938,-25.9857177734,-8.0108642578,-57.1136474609
1.9096200466,-0.6625976562,0.0224609375,-0.0366210938,-29.1748046875,-7.8277587891,-61.2335205078
1.9121940136,-0.6625976562,0.0224609375,-0.0366210938,-29.1748046875,-7.8277587891,-61.2335205078
1.9147739410,-0.6625976562,0.0224609375,-0.0366210938,-31.1431884766,-7.0190429688,-65.4144287109
1.9173450470,-0.6625976562,0.0224609375,-0.0488281250,-31.1431884766,-7.0190429688,-65.4144287109
1.9200940132,-0.6733398438,0.0351562500,-0.0488281250,-33.6761474609,-6.5307617188,-69.9768066406
1.9226651192,-0.6733398438,0.0351562500,-0.0488281250,-33.6761474609,-6.5307617188,-69.9768066406
1.9254131317,-0.6733398438,0.0351562500,-0.0488281250,-35.5072021484,-6.4392089844,-73.9288330078
1.9290471077,-0.6972656250,0.0434570312,-0.0380859375,-35.5072021484,-6.4392089844,-77.8350830078
1.9316179752,-0.6972656250,0.0434570312,-0.0380859375,-36.8499755859,-6.1492919922,-77.7282714844
1.9341919422,-0.6972656250,0.0434570312,-0.0380859375,-36.8499755859,-6.1492919922,-77.7282714844
1.9367599487,-0.6972656250,0.0434570312,-0.0380859375,-38.2843017578,-5.8593750000,-81.3140869141
1.9393310547,-0.7128906250,0.0639648438,-0.0419921875,-38.2843017578,-5.8593750000,-81.3140869141
1.9419090748,-0.7128906250,0.0639648438,-0.0419921875,-38.7420654297,-5.6152343750,-84.8236083984
1.9444859028,-0.7128906250,0.0639648438,-0.0419921875,-38.7420654297,-5.6152343750,-84.8236083984
1.9470579624,-0.7128906250,0.0639648438,-0.0419921875,-39.1998291016,-5.4931640625,-88.3483886719
1.9496381283,-0.7216796875,0.0786132812,-0.0327148438,-39.1998291016,-5.4931640625,-88.3483886719
1.9522039890,-0.7216796875,0.0786132812,-0.0327148438,-39.1235351562,-4.9591064453,-91.5679931641
1.9547760487,-0.7216796875,0.0786132812,-0.0327148438,-39.1235351562,-4.9591064453,-91.5679931641
1.9573469162,-0.7216796875,0.0786132812,-0.0327148438,-38.8183593750,-4.4708251953,-94.2687988281
1.9599609375,-0.7363281250,0.0893554688,-0.0341796875,-38.8183593750,-4.4708251953,-94.2687988281
1.9625320435,-0.7363281250,0.0893554688,-0.0341796875,-38.8183593750,-3.9978027344,-97.3968505859
1.9651000500,-0.7363281250,0.0893554688,-0.0341796875,-38.1927490234,-3.9978027344,-97.3968505859
1.9676871300,-0.7363281250,0.0893554688,-0.0341796875,-38.1927490234,-0.0915527344,-99.9755859375
1.9702579975,-0.7436523438,0.1186523438,-0.0341796875,-37.5061035156,-3.8299560547,-99.9755859375
1.9729421139,-0.7436523438,0.1186523438,-0.0341796875,-37.5061035156,-3.8299560547,-102.9052734375
1.9755179882,-0.7436523438,0.1186523438,-0.0341796875,-36.3616943359,-3.0212402344,-102.9052734375
1.9782309532,-0.7436523438,0.2436523438,-0.0356445312,-36.3616943359,-3.0212402344,-104.6600341797
1.9807999134,-0.7480468750,0.1459960938,-0.0356445312,-34.8510742188,-2.2430419922,-104.6600341797
1.9833769798,-0.7480468750,0.1459960938,-0.0356445312,-34.8510742188,-2.2430419922,-104.6600341797
1.9859440327,-0.7480468750,0.1459960938,-0.0356445312,-33.7829589844,-1.0375976562,-106.9946289062
1.9887139797,-0.8730468750,0.1645507812,-0.0229492188,-33.7829589844,-1.0375976562,-106.9946289062
1.9912841320,-0.7646484375,0.1645507812,-0.0229492188,-33.5540771484,0.0915527344,-108.2763671875
1.9938480854,-0.7646484375,0.1645507812,-0.0229492188,-33.5540771484,0.0915527344,-108.2763671875
1.9964189529,-0.7646484375,0.1645507812,-0.0229492188,-32.1502685547,0.9155273438,-110.0616455078
1.9990510941,-0.7729492188,0.1811523438,-0.0327148438,-32.1502685547,0.9155273438,-110.0616455078
2.0016260147,-0.7729492188,0.1811523438,-0.0327148438,-30.0750732422,1.6632080078,-112.6098632812
2.0042040348,-0.7729492188,0.1811523438,-0.0327148438,-30.0750732422,1.6632080078,-112.6098632812
2.0067739487,-0.7729492188,0.1811523438,-0.0327148438,-28.5186767578,2.0294189453,-114.5172119141
2.0094089508,-0.7949218750,0.1835937500,-0.0244140625,-28.5186767578,2.0294189453,-114.5172119141
2.0119750500,-0.7949218750,0.1835937500,-0.0244140625,-28.1066894531,2.8381347656,-115.8294677734
2.0146760941,-0.7949218750,0.1835937500,-0.0244140625,-28.1066894531,2.8381347656,-115.8294677734
2.0172469616,-0.7949218750,0.1835937500,-0.0244140625,-27.4963378906,2.8839111328,-116.9738769531
2.0199649334,-0.8081054688,0.1865234375,-0.0307617188,-27.4963378906,2.8839111328,-116.9738769531
2.0225369930,-0.8081054688,0.1865234375,-0.0307617188,-26.4434814453,3.1127929688,-118.1182861328
2.0254929066,-0.8081054688,0.1865234375,-0.0307617188,-26.4434814453,3.1127929688,-118.1182861328
2.0281131268,-0.8081054688,0.1865234375,-0.0307617188,-25.1464843750,3.3264160156,-119.1406250000
2.0306859016,-0.8149414062,0.1982421875,-0.0327148438,-25.1464843750,3.3264160156,-119.1406250000
2.0332589149,-0.8149414062,0.1982421875,-0.0327148438,-25.1464843750,3.6926269531,-120.4528808594
2.0359370708,-0.8149414062,0.1982421875,-0.0327148438,-23.8494873047,3.6926269531,-120.4528808594
2.0385990143,-0.8149414062,0.1982421875,-0.0410156250,-23.8494873047,3.6468505859,-121.5057373047
2.0411760807,-0.8193359375,0.1782226562,-0.0410156250,-22.2778320312,3.6468505859,-121.5057373047
2.0437500477,-0.8193359375,0.1782226562,-0.0410156250,-22.2778320312,3.6468505859,-122.1160888672
2.0463180542,-0.8193359375,0.1782226562,-0.0410156250,-22.1099853516,3.6621093750,-122.1160888672
2.0488939285,-0.8193359375,0.1782226562,-0.0385742188,-22.1099853516,3.6621093750,-122.1160888672
2.0514750481,-0.8247070312,0.1752929688,-0.0385742188,-22.2625732422,3.6010742188,-123.0773925781
2.0540480614,-0.8247070312,0.1752929688,-0.0385742188,-22.2625732422,3.6010742188,-123.0773925781
2.0566201210,-0.8247070312,0.1752929688,-0.0385742188,-22.1862792969,3.4179687500,-124.1149902344
2.0592410564,-0.8247070312,0.1552734375,-0.0312500000,-22.1862792969,3.4179687500,-124.1149902344
2.0618119240,-0.8276367188,0.1552734375,-0.0312500000,-22.4609375000,3.3874511719,-124.5117187500
2.0643920898,-0.8276367188,0.1552734375,-0.0312500000,-22.4609375000,3.3874511719,-124.5117187500
2.0669600964,-0.8276367188,0.1552734375,-0.0312500000,-22.5677490234,3.4942626953,-125.2288818359
2.0697269440,-0.8359375000,0.1567382812,-0.0356445312,-22.5677490234,3.4942626953,-125.2288818359
2.0723030567,-0.8359375000,0.1567382812,-0.0356445312,-23.3612060547,4.1351318359,-125.7629394531
2.0748720169,-0.8359375000,0.1567382812,-0.0356445312,-23.3612060547,4.1351318359,-125.7629394531
2.0774400234,-0.8359375000,0.1567382812,-0.0356445312,-25.8178710938,4.4708251953,-125.8697509766
2.0815539360,-0.8339843750,0.1660156250,-0.0351562500,-25.8178710938,4.4708251953,-125.6256103516
2.0845429897,-0.8339843750,0.1660156250,-0.0351562500,-29.0985107422,4.9591064453,-125.6256103516
2.0872459412,-0.8339843750,0.1660156250,-0.0351562500,-29.0985107422,4.9591064453,-124.8626708984
2.0899491310,-0.8173828125,0.1997070312,-0.0312500000,-33.3251953125,5.7525634766,-124.8626708984
2.0926439762,-0.8173828125,0.1997070312,-0.0312500000,-33.3251953125,5.7525634766,-124.0386962891
2.0953450203,-0.8173828125,0.1997070312,-0.0312500000,-38.8183593750,6.9885253906,-124.0386962891
2.0980870724,-0.8173828125,0.1997070312,-0.0312500000,-38.8183593750,6.9885253906,-122.8027343750
2.1009290218,-0.8256835938,0.2534179688,-0.0273437500,-42.1905517578,7.7362060547,-122.8027343750
2.1036250591,-0.8256835938,0.2534179688,-0.0273437500,-42.1905517578,11.6424560547,-120.6054687500
2.1063210964,-0.8256835938,0.2534179688,-0.0273437500,-43.2739257812,8.0718994141,-120.6054687500
2.1090250015,-0.8256835938,0.2534179688,-0.0273437500,-43.2739257812,8.0718994141,-119.3542480469
2.1117179394,-0.8349609375,0.3027343750,-0.0053710938,-43.7469482422,8.0871582031,-119.3542480469
2.1144421101,-0.8349609375,0.3027343750,-0.0053710938,-43.7469482422,8.0871582031,-118.8507080078
2.1170220375,-0.8349609375,0.3027343750,-0.0053710938,-42.9077148438,7.5378417969,-118.8507080078
2.1198370457,-0.8349609375,0.2856445312,0.0014648438,-42.9077148438,7.5378417969,-118.2708740234
2.1225080490,-0.8486328125,0.2856445312,0.0014648438,-42.0989990234,7.8125000000,-118.2708740234
2.1253490448,-0.8486328125,0.2856445312,0.0014648438,-42.0989990234,7.8125000000,-117.9962158203
2.1281089783,-0.8486328125,0.2856445312,0.0014648438,-41.6259765625,7.7056884766,-117.9962158203
2.1306951046,-0.8623046875,0.2241210938,-0.0131835938,-41.6259765625,7.7056884766,-117.6147460938
2.1332669258,-0.8623046875,0.2241210938,-0.0131835938,-41.9616699219,7.7209472656,-117.6147460938
2.1358349323,-0.8623046875,0.2241210938,-0.0131835938,-41.9616699219,7.7209472656,-113.7084960938
2.1384589672,-0.8623046875,0.2241210938,-0.0131835938,-43.0145263672,7.6751708984,-116.3177490234
2.1410291195,-0.8657226562,0.1879882812,-0.0126953125,-43.0145263672,7.6751708984,-116.3177490234
2.1436090469,-0.8657226562,0.1879882812,-0.0126953125,-43.8537597656,8.2855224609,-114.9139404297
2.1461811066,-0.8657226562,0.1879882812,-0.0126953125,-43.8537597656,8.2855224609,-114.9139404297
2.1487591267,-0.8657226562,0.1879882812,-0.0126953125,-44.2047119141,8.6212158203,-112.7319335938
2.1513340473,-0.8583984375,0.1762695312,-0.0190429688,-44.2047119141,8.6212158203,-112.7319335938
2.1539030075,-0.8583984375,0.1762695312,-0.0190429688,-44.4946289062,9.4146728516,-110.4431152344
2.1564750671,-0.8583984375,0.1762695312,-0.0190429688,-44.4946289062,9.4146728516,-110.4431152344
2.1590759754,-0.8583984375,0.1762695312,-0.0190429688,-45.0286865234,10.2996826172,-108.2763671875
2.1616430283,-0.8696289062,0.1879882812,-0.0166015625,-45.0286865234,10.2996826172,-108.2763671875
2.1643280983,-0.8696289062,0.1879882812,-0.0166015625,-44.1589355469,10.6353759766,-105.9417724609
2.1669011116,-0.8696289062,0.1879882812,-0.0166015625,-44.1589355469,10.6353759766,-105.9417724609
2.1695599556,-0.8696289062,0.1879882812,-0.0166015625,-41.7022705078,10.8642578125,-103.4545898438
2.1721401215,-0.8583984375,0.2221679688,-0.0107421875,-41.7022705078,10.8642578125,-103.4545898438
2.1747119427,-0.8583984375,0.2221679688,-0.0107421875,-41.7022705078,11.2609863281,-100.5859375000
2.1772820950,-0.8583984375,0.2221679688,-0.0107421875,-38.9404296875,11.2609863281,-100.5859375000
2.1800000668,-0.8583984375,0.2221679688,0.0161132812,-38.9404296875,15.1672363281,-98.5107421875
2.1825721264,-0.8398437500,0.2504882812,0.0161132812,-36.5905761719,11.7340087891,-98.5107421875
2.1851499081,-0.8398437500,0.2504882812,0.0161132812,-36.5905761719,11.7340087891,-95.9625244141
2.1877279282,-0.8398437500,0.2504882812,0.0161132812,-34.2712402344,12.1917724609,-95.9625244141
2.1904249191,-0.8398437500,0.2524414062,0.0107421875,-34.2712402344,12.1917724609,-92.7124023438
2.1931250095,-0.8081054688,0.2524414062,0.0107421875,-32.2570800781,12.5274658203,-92.7124023438
2.1958160400,-0.8081054688,0.2524414062,0.0107421875,-32.2570800781,12.5274658203,-89.9505615234
2.1985259056,-0.8081054688,0.2524414062,0.0107421875,-30.2734375000,12.2375488281,-89.9505615234
2.2012269497,-0.7802734375,0.2524414062,0.0146484375,-30.2734375000,12.2375488281,-86.0443115234
2.2039170265,-0.7802734375,0.2524414062,0.0146484375,-28.3813476562,12.2070312500,-86.8072509766
2.2066140175,-0.7802734375,0.2524414062,0.0146484375,-28.3813476562,12.2070312500,-82.9010009766
2.2093179226,-0.7802734375,0.2524414062,0.0146484375,-26.9165039062,12.2070312500,-83.5571289062
2.2120139599,-0.7675781250,0.2373046875,0.0288085938,-26.9165039062,12.2070312500,-79.6508789062
2.2147190571,-0.7675781250,0.2373046875,0.0288085938,-25.1007080078,11.6424560547,-80.2154541016
2.2174179554,-0.7675781250,0.2373046875,0.0288085938,-25.1007080078,11.6424560547,-76.3092041016
2.2201299667,-0.7675781250,0.2373046875,0.0288085938,-23.5137939453,10.6811523438,-77.4230957031
2.2228269577,-0.7441406250,0.2373046875,0.0244140625,-23.5137939453,10.6811523438,-77.4230957031
2.2255239487,-0.7441406250,0.2373046875,0.0244140625,-22.0031738281,9.9029541016,-74.3713378906
2.2283499241,-0.7441406250,0.2373046875,0.0244140625,-22.0031738281,9.9029541016,-70.4650878906
2.2310559750,-0.7441406250,0.2387695312,0.0288085938,-20.2178955078,8.9111328125,-70.8618164062
2.2337770462,-0.7358398438,0.2387695312,0.0288085938,-20.2178955078,8.9111328125,-66.9555664062
2.2365269661,-0.7358398438,0.2387695312,0.0288085938,-18.6614990234,8.5601806641,-67.7490234375
2.2395241261,-0.7358398438,0.2387695312,0.0288085938,-18.6614990234,8.5601806641,-64.1174316406
2.2422399521,-0.7333984375,0.2275390625,0.0263671875,-17.7764892578,7.5836181641,-64.1174316406
2.2449450493,-0.7333984375,0.2275390625,0.0263671875,-17.7764892578,7.5836181641,-60.8215332031
2.2476649284,-0.7333984375,0.2275390625,0.0263671875,-17.8070068359,6.4544677734,-60.8215332031
2.2503781319,-0.7333984375,0.2275390625,0.0263671875,-17.8070068359,6.4544677734,-57.2357177734
2.2530851364,-0.7299804688,0.2070312500,0.0170898438,-17.7154541016,5.6457519531,-57.2357177734
2.2557899952,-0.7299804688,0.2070312500,0.0170898438,-17.7154541016,5.6457519531,-53.1921386719
2.2585179806,-0.7299804688,0.2070312500,0.0170898438,-18.6767578125,4.5471191406,-53.1921386719
2.2612209320,-0.7299804688,0.1958007812,0.0107421875,-18.6767578125,4.5471191406,-49.4079589844
2.2639319897,-0.7065429688,0.1958007812,0.0107421875,-20.0500488281,3.7384033203,-49.4079589844
2.2666430473,-0.7065429688,0.1958007812,0.0107421875,-20.0500488281,3.7384033203,-45.4559326172
2.2692849636,-0.7065429688,0.1958007812,0.0107421875,-20.3247070312,2.8228759766,-45.4559326172
2.2718610764,-0.6938476562,0.2148437500,0.0009765625,-20.3247070312,2.8228759766,-45.4559326172
2.2744340897,-0.6938476562,0.2148437500,0.0009765625,-20.6146240234,2.2735595703,-41.1834716797
2.2770090103,-0.6938476562,0.2148437500,0.0009765625,-20.6146240234,2.2735595703,-41.1834716797
2.2796380520,-0.6938476562,0.2148437500,0.0009765625,-20.9350585938,1.9226074219,-36.9415283203
2.2822151184,-0.6914062500,0.2485351562,0.0073242188,-20.9350585938,1.9226074219,-36.9415283203
2.2847979069,-0.6914062500,0.2485351562,0.0073242188,-20.7977294922,1.8463134766,-31.9519042969
2.2873799801,-0.6914062500,0.2485351562,0.0073242188,-20.7977294922,1.8463134766,-31.9519042969
2.2901110649,-0.6914062500,0.2485351562,0.0073242188,-19.0277099609,1.3885498047,-26.9012451172
2.2928040028,-0.6757812500,0.2734375000,0.0004882812,-19.0277099609,1.3885498047,-26.9012451172
2.2953779697,-0.6757812500,0.2734375000,0.0004882812,-16.8914794922,0.8850097656,-22.1099853516
2.2980349064,-0.6757812500,0.2734375000,0.0004882812,-16.8914794922,0.8850097656,-22.1099853516
2.3007540703,-0.6757812500,0.2734375000,0.0004882812,-15.1977539062,0.0762939453,-17.7307128906
2.3034629822,-0.6772460938,0.2739257812,0.0063476562,-15.1977539062,0.0762939453,-17.7307128906
2.3061790466,-0.6772460938,0.2739257812,0.0063476562,-13.5803222656,-0.3051757812,-13.4735107422
2.3088989258,-0.6772460938,0.2739257812,0.0063476562,-13.5803222656,-0.3051757812,-13.4735107422
2.3116049767,-0.6772460938,0.2578125000,0.0107421875,-12.1459960938,-0.9765625000,-9.4604492188
2.3143119812,-0.6708984375,0.2578125000,0.0107421875,-12.1459960938,-0.9765625000,-9.4604492188
2.3170170784,-0.6708984375,0.2578125000,0.0107421875,-11.7950439453,-1.4190673828,-5.1269531250
2.3196339607,-0.6708984375,0.2578125000,0.0107421875,-11.7950439453,-1.4190673828,-5.1269531250
2.3222069740,-0.6796875000,0.2514648438,0.0283203125,-11.1999511719,-1.8768310547,-0.2899169922
2.3247771263,-0.6796875000,0.2514648438,0.0283203125,-11.1999511719,-1.8768310547,-0.2899169922
2.3273539543,-0.6796875000,0.2514648438,0.0283203125,-10.4827880859,-2.0294189453,4.4403076172
2.3300950527,-0.6796875000,0.2514648438,0.0283203125,-10.4827880859,-2.0294189453,4.4403076172
2.3327970505,-0.6840820312,0.2490234375,0.0180664062,-8.8195800781,-2.8076171875,9.0179443359
2.3355031013,-0.6840820312,0.2490234375,0.0180664062,-8.8195800781,-2.8076171875,9.0179443359
2.3382089138,-0.6840820312,0.2490234375,0.0180664062,-7.1258544922,-3.0364990234,13.6260986328
2.3409121037,-0.6840820312,0.2490234375,0.0180664062,-7.1258544922,-3.0364990234,13.6260986328
2.3436219692,-0.6865234375,0.2465820312,0.0205078125,-5.7220458984,-3.4332275391,18.3258056641
2.3463261127,-0.6865234375,0.2465820312,0.0205078125,-5.7220458984,-3.4332275391,18.3258056641
2.3490750790,-0.6865234375,0.2465820312,0.0205078125,-4.1809082031,-3.7078857422,22.6898193359
2.3517780304,-0.6865234375,0.2465820312,0.0166015625,-4.1809082031,-3.7078857422,22.6898193359
2.3547489643,-0.6782226562,0.2329101562,0.0166015625,-2.5024414062,-3.4942626953,26.2145996094
2.3579559326,-0.6782226562,0.2329101562,0.0166015625,-2.5024414062,-3.4942626953,26.2145996094
2.3606729507,-0.6782226562,0.2329101562,0.0166015625,-1.0375976562,-3.6621093750,29.5715332031
2.3633821011,-0.6733398438,0.2221679688,0.0229492188,-1.0375976562,-3.6621093750,29.5715332031
2.3660869598,-0.6733398438,0.2221679688,0.0229492188,0.0915527344,-4.5166015625,32.7606201172
2.3687379360,-0.6733398438,0.2221679688,0.0229492188,0.0915527344,-4.5166015625,32.7606201172
2.3713150024,-0.6733398438,0.2221679688,0.0229492188,1.4801025391,-4.9743652344,35.5377197266
2.3738870621,-0.6850585938,0.2041015625,0.0380859375,1.4801025391,-4.9743652344,35.5377197266
2.3764560223,-0.6850585938,0.2041015625,0.0380859375,2.8228759766,-5.7830810547,38.7573242188
2.3791289330,-0.6850585938,0.2041015625,0.0380859375,2.8228759766,-5.7830810547,38.7573242188
2.3818349838,-0.6850585938,0.2041015625,0.0346679688,4.6386718750,-6.5155029297,41.1376953125
2.3845410347,-0.6875000000,0.1953125000,0.0346679688,4.6386718750,-6.5155029297,41.1376953125
2.3872480392,-0.6875000000,0.1953125000,0.0346679688,5.8288574219,-6.8969726562,42.8619384766
2.3898489475,-0.6875000000,0.1953125000,0.0346679688,5.8288574219,-6.8969726562,42.8619384766
2.3924250603,-0.6875000000,0.1840820312,0.0351562500,5.8288574219,-7.4157714844,44.9218750000
2.3949990273,-0.6884765625,0.1840820312,0.0351562500,7.2631835938,-7.4157714844,44.9218750000
2.3976049423,-0.6884765625,0.1840820312,0.0351562500,7.2631835938,-11.3220214844,47.1038818359
2.4001789093,-0.6884765625,0.1840820312,0.0351562500,8.6517333984,-8.1176757812,47.1038818359
2.4027581215,-0.6884765625,0.1113281250,0.0317382812,8.6517333984,-8.1176757812,47.1649169922
2.4053359032,-0.6855468750,0.1113281250,0.0317382812,9.2315673828,-9.7961425781,47.1649169922
2.4080190659,-0.6855468750,0.1113281250,0.0317382812,9.2315673828,-9.7961425781,35.4461669922
2.4105920792,-0.6855468750,0.1113281250,0.0317382812,12.4053955078,-10.1013183594,36.4379882812
2.4131810665,-0.8208007812,-0.2158203125,-0.0976562500,12.4053955078,-10.1013183594,36.4379882812
2.4157629013,-0.8208007812,-0.2158203125,-0.0976562500,12.4816894531,-3.5095214844,32.4401855469
2.4184291363,-0.8208007812,-0.2158203125,-0.0976562500,12.4816894531,-3.5095214844,32.4401855469
2.4211049080,-0.8208007812,-0.2158203125,-0.0976562500,10.4827880859,-0.0457763672,31.7382812500
2.4236791134,-0.7758789062,-0.5161132812,-0.1215820312,10.4827880859,-0.0457763672,31.7382812500
2.4262580872,-0.7758789062,-0.5161132812,-0.1215820312,6.4544677734,-0.6713867188,26.5808105469
2.4289410114,-0.7758789062,-0.5161132812,-0.1215820312,6.4544677734,-0.6713867188,26.5808105469
2.4316439629,-0.7758789062,-0.5161132812,-0.1215820312,-2.2430419922,-3.7078857422,23.9410400391
2.4343509674,-0.8046875000,-0.5839843750,-0.0097656250,-2.2430419922,-3.7078857422,23.9410400391
2.4370510578,-0.8046875000,-0.5839843750,-0.0097656250,-9.5367431641,-7.7514648438,25.1922607422
2.4397749901,-0.8046875000,-0.5839843750,-0.0097656250,-9.5367431641,-7.7514648438,25.1922607422
2.4424769878,-0.8046875000,-0.5839843750,-0.0244140625,-10.7421875000,-9.1400146484,28.0303955078
2.4451839924,-0.8212890625,-0.3310546875,-0.0244140625,-10.7421875000,-9.1400146484,28.0303955078
2.4479060173,-0.8212890625,-0.3310546875,-0.0244140625,-12.4664306641,-8.8348388672,31.4788818359
2.4506130219,-0.8212890625,-0.3310546875,-0.0244140625,-12.4664306641,-8.8348388672,31.4788818359
2.4533190727,-0.8212890625,-0.0288085938,-0.0566406250,-15.9454345703,-7.4462890625,34.9884033203
2.4560289383,-0.8349609375,-0.0288085938,-0.0566406250,-15.9454345703,-7.4462890625,34.9884033203
2.4587409496,-0.8349609375,-0.0288085938,-0.0566406250,-18.1274414062,-6.8054199219,38.6657714844
2.4614510536,-0.8349609375,-0.0288085938,-0.0566406250,-18.1274414062,-6.8054199219,38.6657714844
2.4641559124,-0.8320312500,0.1166992188,-0.0395507812,-19.9584960938,-7.2937011719,42.3126220703
2.4668600559,-0.8320312500,0.1166992188,-0.0395507812,-19.9584960938,-7.2937011719,42.3126220703
2.4694900513,-0.8320312500,0.1166992188,-0.0395507812,-22.1099853516,-8.7280273438,46.1730957031
2.4720649719,-0.8320312500,0.1166992188,-0.0395507812,-22.1099853516,-8.7280273438,46.1730957031
2.4747159481,-0.8671875000,0.0683593750,0.0034179688,-23.8037109375,-10.4675292969,49.7131347656
2.4772949219,-0.8671875000,0.0683593750,0.0034179688,-23.8037109375,-10.4675292969,49.7131347656
2.4801731110,-0.8671875000,0.0683593750,0.0034179688,-24.1241455078,-12.4053955078,52.9022216797
2.4828720093,-0.8671875000,0.0683593750,-0.0048828125,-24.1241455078,-12.4053955078,52.9022216797
2.4855611324,-0.8876953125,0.0000000000,-0.0048828125,-23.0102539062,-13.5955810547,55.2673339844
2.4884159565,-0.8876953125,0.0000000000,-0.0048828125,-23.0102539062,-13.5955810547,55.2673339844
2.4911139011,-0.8876953125,0.0000000000,-0.0048828125,-20.9808349609,-13.8397216797,57.9071044922
2.4938049316,-0.8759765625,-0.0048828125,-0.0468750000,-20.9808349609,-13.8397216797,57.9071044922
2.4965031147,-0.8759765625,-0.0048828125,-0.0468750000,-17.8680419922,-13.4887695312,60.1806640625
2.4991829395,-0.8759765625,-0.0048828125,-0.0468750000,-17.8680419922,-13.4887695312,60.1806640625
2.5019009113,-0.8759765625,-0.0048828125,-0.0468750000,-15.5639648438,-14.1448974609,62.0727539062
2.5046160221,-0.8232421875,0.0224609375,-0.0922851562,-15.5639648438,-14.1448974609,62.0727539062
2.5073280334,-0.8232421875,0.0224609375,-0.0922851562,-15.6555175781,-14.4653320312,63.0645751953
2.5099611282,-0.8232421875,0.0224609375,-0.0922851562,-15.6555175781,-14.4653320312,63.0645751953
2.5125389099,-0.8232421875,0.0224609375,-0.0922851562,-15.4724121094,-15.3350830078,64.0563964844
2.5151159763,-0.7558593750,0.0458984375,-0.0502929688,-15.4724121094,-15.3350830078,64.0563964844
2.5176959038,-0.7558593750,0.0458984375,-0.0502929688,-15.4724121094,-16.5557861328,64.5294189453
2.5202789307,-0.7558593750,0.0458984375,-0.0502929688,-15.1367187500,-16.5557861328,64.5294189453
2.5228579044,-0.7558593750,0.0458984375,-0.0502929688,-15.1367187500,-16.5557861328,63.7817382812
2.5254380703,-0.7119140625,0.0473632812,-0.0092773438,-14.9841308594,-18.3258056641,63.7817382812
2.5281901360,-0.7119140625,0.0473632812,-0.0092773438,-14.9841308594,-18.3258056641,62.4389648438
2.5307700634,-0.7119140625,0.0473632812,-0.0092773438,-14.1448974609,-19.0124511719,62.4389648438
2.5333590508,-0.7119140625,0.0473632812,-0.0117187500,-14.1448974609,-19.0124511719,61.6302490234
2.5359380245,-0.7172851562,0.0483398438,-0.0117187500,-11.8408203125,-18.9056396484,61.6302490234
2.5386509895,-0.7172851562,0.0483398438,-0.0117187500,-11.8408203125,-18.9056396484,61.6302490234
2.5413599014,-0.7172851562,0.0483398438,-0.0117187500,-10.6811523438,-18.9208984375,60.1196289062
2.5440621376,-0.7172851562,0.0566406250,-0.0146484375,-10.6811523438,-18.9208984375,60.1196289062
2.5467729568,-0.7294921875,0.0566406250,-0.0146484375,-10.3607177734,-18.5089111328,59.5245361328
2.5494959354,-0.7294921875,0.0566406250,-0.0146484375,-10.3607177734,-18.5089111328,59.5245361328
2.5523099899,-0.7294921875,0.0566406250,-0.0146484375,-9.8724365234,-18.6767578125,59.3109130859
2.5550251007,-0.7368164062,0.0781250000,-0.0302734375,-9.8724365234,-18.6767578125,59.3109130859
2.5577259064,-0.7368164062,0.0781250000,-0.0302734375,-9.5062255859,-19.1192626953,59.1278076172
2.5604419708,-0.7368164062,0.0781250000,-0.0302734375,-9.5062255859,-19.1192626953,55.2215576172
2.5631470680,-0.7368164062,0.0781250000,-0.0302734375,-9.4299316406,-19.5922851562,58.4564208984
2.5658519268,-0.7441406250,0.1083984375,0.0029296875,-9.4299316406,-19.5922851562,58.4564208984
2.5685341358,-0.7441406250,0.1083984375,0.0029296875,-8.6975097656,-20.0958251953,58.5327148438
2.5711100101,-0.7441406250,0.1083984375,0.0029296875,-8.6975097656,-20.0958251953,58.5327148438
2.5736830235,-0.7441406250,0.1083984375,0.0283203125,-6.1035156250,-21.2707519531,59.8754882812
2.5762629509,-0.7802734375,0.2700195312,0.0283203125,-6.1035156250,-21.2707519531,59.8754882812
2.5789339542,-0.7802734375,0.2700195312,0.0283203125,-1.2969970703,-21.8811035156,63.7969970703
2.5816469193,-0.7802734375,0.2700195312,0.0283203125,-1.2969970703,-21.8811035156,63.7969970703
2.5843460560,-0.7802734375,0.2495117188,0.0205078125,1.7242431641,-22.4304199219,64.6972656250
2.5870530605,-0.7905273438,0.2495117188,0.0205078125,1.7242431641,-22.4304199219,64.6972656250
2.5897750854,-0.7905273438,0.2495117188,0.0205078125,4.3640136719,-22.2930908203,60.2416992188
2.5924761295,-0.7905273438,0.2495117188,0.0205078125,4.3640136719,-22.2930908203,60.2416992188
2.5953030586,-0.7314453125,0.0966796875,-0.0083007812,5.5236816406,-21.8505859375,56.1676025391
2.5981280804,-0.7314453125,0.0966796875,-0.0083007812,5.5236816406,-21.8505859375,56.1676025391
2.6008510590,-0.7314453125,0.0966796875,-0.0083007812,4.1809082031,-21.4233398438,54.4586181641
2.6035659313,-0.7314453125,0.0966796875,-0.0083007812,4.1809082031,-21.4233398438,54.4586181641
2.6062691212,-0.7260742188,0.0605468750,-0.0405273438,-2.7465820312,-21.2097167969,54.1992187500
2.6089849472,-0.7260742188,0.0605468750,-0.0405273438,-2.7465820312,-21.2097167969,54.1992187500
2.6116960049,-0.7260742188,0.0605468750,-0.0405273438,-8.3465576172,-21.4996337891,53.4515380859
2.6144020557,-0.7260742188,0.0605468750,-0.0112304688,-8.3465576172,-21.4996337891,53.4515380859
2.6172139645,-0.7211914062,0.1049804688,-0.0112304688,-7.2784423828,-20.7672119141,52.9785156250
2.6198220253,-0.7211914062,0.1049804688,-0.0112304688,-7.2784423828,-20.7672119141,52.9785156250
2.6224040985,-0.7211914062,0.1049804688,-0.0112304688,-5.1879882812,-19.3786621094,51.7730712891
2.6261649132,-0.7363281250,0.1528320312,0.0219726562,-5.1879882812,-19.3786621094,49.9725341797
2.6287560463,-0.7363281250,0.1528320312,0.0219726562,-4.3487548828,-19.0429687500,49.9725341797
2.6313309669,-0.7363281250,0.1528320312,0.0219726562,-4.3487548828,-19.0429687500,49.9725341797
2.6338999271,-0.7363281250,0.1528320312,0.0219726562,-1.7089843750,-19.1650390625,48.7823486328
2.6364679337,-0.7358398438,0.1440429688,0.0629882812,-1.7089843750,-19.1650390625,48.7823486328
2.6391110420,-0.7358398438,0.1440429688,0.0629882812,3.0212402344,-19.9737548828,47.0123291016
2.6416809559,-0.7358398438,0.1440429688,0.0629882812,3.0212402344,-19.9737548828,47.0123291016
2.6442589760,-0.7358398438,0.1440429688,0.0629882812,8.3007812500,-20.0195312500,44.8913574219
2.6468300819,-0.7397460938,0.1152343750,0.0327148438,8.3007812500,-20.0195312500,44.8913574219
2.6494491100,-0.7397460938,0.1152343750,0.0327148438,11.7034912109,-19.0887451172,43.0145263672
2.6520259380,-0.7397460938,0.1152343750,0.0327148438,11.7034912109,-19.0887451172,43.0145263672
2.6546010971,-0.7397460938,0.1152343750,0.0141601562,12.8021240234,-18.5546875000,41.1224365234
2.6571779251,-0.7387695312,0.1342773438,0.0141601562,12.8021240234,-18.5546875000,41.1224365234
2.6598141193,-0.7387695312,0.1342773438,0.0141601562,11.9476318359,-17.4255371094,38.8336181641
2.6623890400,-0.7387695312,0.1342773438,0.0141601562,11.9476318359,-17.4255371094,38.8336181641
2.6649661064,-0.7387695312,0.1293945312,-0.0009765625,8.8043212891,-17.0288085938,37.1704101562
2.6675391197,-0.7226562500,0.1293945312,-0.0009765625,8.8043212891,-17.0288085938,37.1704101562
2.6702809334,-0.7226562500,0.1293945312,-0.0009765625,4.9743652344,-16.1285400391,35.4003906250
2.6728589535,-0.7226562500,0.1293945312,-0.0009765625,4.9743652344,-16.1285400391,35.4003906250
2.6754269600,-0.7226562500,0.1347656250,0.0249023438,4.9743652344,-14.8010253906,34.3475341797
2.6781909466,-0.7236328125,0.1347656250,0.0249023438,1.7547607422,-14.8010253906,34.3475341797
2.6808869839,-0.7236328125,0.1347656250,0.0249023438,1.7547607422,-13.7023925781,33.3862304688
2.6834619045,-0.7236328125,0.1347656250,0.0249023438,0.7781982422,-13.7023925781,33.3862304688
2.6860370636,-0.7187500000,0.1298828125,0.0327148438,0.7781982422,-13.7023925781,31.4788818359
2.6886579990,-0.7187500000,0.1298828125,0.0327148438,0.3356933594,-12.6037597656,31.4788818359
2.6912291050,-0.7187500000,0.1298828125,0.0327148438,0.3356933594,-12.6037597656,30.3344726562
2.6938021183,-0.7187500000,0.1298828125,0.0327148438,-1.0681152344,-11.4898681641,30.3344726562
2.6963710785,-0.7153320312,0.1381835938,0.0327148438,-1.0681152344,-11.4898681641,30.3344726562
2.6990199089,-0.7153320312,0.1381835938,0.0327148438,-3.7231445312,-11.8408203125,29.1900634766
2.7017340660,-0.7153320312,0.1381835938,0.0327148438,-3.7231445312,-11.8408203125,29.1900634766
2.7044420242,-0.7153320312,0.1381835938,0.0327148438,-5.7678222656,-12.6037597656,27.7557373047
2.7071530819,-0.7216796875,0.1523437500,0.0302734375,-5.7678222656,-12.6037597656,27.7557373047
2.7099020481,-0.7216796875,0.1523437500,0.0302734375,-5.5236816406,-13.3209228516,26.4739990234
2.7126100063,-0.7216796875,0.1523437500,0.0302734375,-5.5236816406,-13.3209228516,26.4739990234
2.7153189182,-0.7216796875,0.1523437500,0.0195312500,-4.5318603516,-13.6108398438,25.1922607422
2.7180271149,-0.7241210938,0.1455078125,0.0195312500,-4.5318603516,-13.6108398438,25.1922607422
2.7207369804,-0.7241210938,0.1455078125,0.0195312500,-3.8757324219,-13.5345458984,23.9257812500
2.7234511375,-0.7241210938,0.1455078125,0.0195312500,-3.8757324219,-13.5345458984,23.9257812500
2.7261550426,-0.7324218750,0.1264648438,0.0122070312,-4.1656494141,-13.2751464844,23.1170654297
2.7289450169,-0.7324218750,0.1264648438,0.0122070312,-4.1656494141,-13.2751464844,23.1170654297
2.7316529751,-0.7324218750,0.1264648438,0.0122070312,-4.5623779297,-13.0157470703,22.0947265625
2.7345130444,-0.7324218750,0.1264648438,0.0122070312,-4.5623779297,-13.0157470703,22.0947265625
2.7380211353,-0.7368164062,0.1401367188,0.0205078125,-4.8370361328,-12.6342773438,20.9655761719
2.7405989170,-0.7368164062,0.1401367188,0.0205078125,-4.8370361328,-12.6342773438,19.6838378906
2.7431809902,-0.7368164062,0.1401367188,0.0205078125,-5.0048828125,-12.1459960938,19.6838378906
2.7458689213,-0.7368164062,0.1279296875,0.0136718750,-5.0048828125,-12.1459960938,19.3328857422
2.7485160828,-0.7353515625,0.1279296875,0.0136718750,-4.8370361328,-11.7340087891,19.3328857422
2.7510900497,-0.7353515625,0.1279296875,0.0136718750,-4.8370361328,-11.7340087891,18.5546875000
2.7536599636,-0.7353515625,0.1279296875,0.0136718750,-4.1503906250,-10.3302001953,18.5546875000
2.7562320232,-0.7353515625,0.1010742188,0.0327148438,-4.1503906250,-10.3302001953,18.5546875000
2.7588500977,-0.7387695312,0.1010742188,0.0327148438,-3.0670166016,-9.9029541016,18.5241699219
2.7614140511,-0.7387695312,0.1010742188,0.0327148438,-3.0670166016,-9.9029541016,18.5241699219
2.7639839649,-0.7387695312,0.1010742188,0.0327148438,-2.3956298828,-9.5672607422,18.6614990234
2.7665500641,-0.7368164062,0.1308593750,0.0473632812,-2.3956298828,-9.5672607422,18.6614990234
2.7691280842,-0.7368164062,0.1308593750,0.0473632812,-1.4038085938,-9.1400146484,18.6462402344
2.7716989517,-0.7368164062,0.1308593750,0.0473632812,-1.4038085938,-9.1400146484,18.6462402344
2.7742640972,-0.7368164062,0.1308593750,0.0473632812,0.0305175781,-9.0789794922,18.3105468750
2.7768371105,-0.7319335938,0.1381835938,0.0488281250,0.0305175781,-9.0789794922,18.3105468750
2.7794449329,-0.7319335938,0.1381835938,0.0488281250,0.0305175781,-8.8653564453,17.3339843750
2.7820129395,-0.7319335938,0.1381835938,0.0488281250,0.0305175781,-8.8653564453,17.3339843750
2.7845830917,-0.7319335938,0.1381835938,0.0488281250,0.8087158203,-8.3465576172,17.0440673828
2.7871489525,-0.7377929688,0.1362304688,0.0620117188,0.8087158203,-8.3465576172,17.0440673828
2.7899041176,-0.7377929688,0.1362304688,0.0620117188,0.8087158203,-8.0108642578,16.9830322266
2.7924821377,-0.7377929688,0.1362304688,0.0620117188,1.1444091797,-8.0108642578,16.9830322266
2.7950510979,-0.7377929688,0.1362304688,0.0620117188,1.1444091797,-4.1046142578,16.2963867188
2.7977089882,-0.7202148438,0.1601562500,0.0585937500,-0.0915527344,-7.6599121094,16.2963867188
2.8004119396,-0.7202148438,0.1601562500,0.0585937500,-0.0915527344,-7.6599121094,15.5487060547
2.8031151295,-0.7202148438,0.1601562500,0.0585937500,-0.8087158203,-6.8359375000,15.5487060547
2.8058240414,-0.7202148438,0.1601562500,0.0605468750,-0.8087158203,-6.8359375000,15.0146484375
2.8086459637,-0.7226562500,0.1582031250,0.0605468750,-0.0762939453,-6.5612792969,15.0146484375
2.8113479614,-0.7226562500,0.1582031250,0.0605468750,-0.0762939453,-6.5612792969,14.1448974609
2.8140571117,-0.7226562500,0.1582031250,0.0605468750,1.3580322266,-6.6528320312,14.1448974609
2.8167619705,-0.7226562500,0.1562500000,0.0473632812,1.3580322266,-6.6528320312,13.6871337891
2.8194189072,-0.7202148438,0.1562500000,0.0473632812,2.8839111328,-6.4544677734,13.6871337891
2.8219900131,-0.7202148438,0.1562500000,0.0473632812,2.8839111328,-6.4544677734,13.1530761719
2.8245620728,-0.7202148438,0.1562500000,0.0473632812,3.9978027344,-6.5002441406,13.1530761719
2.8271319866,-0.7299804688,0.1430664062,0.0371093750,3.9978027344,-6.5002441406,13.1530761719
2.8298850060,-0.7299804688,0.1430664062,0.0371093750,5.0048828125,-6.6833496094,12.5274658203
2.8324630260,-0.7299804688,0.1430664062,0.0371093750,5.0048828125,-6.6833496094,12.5274658203
2.8350350857,-0.7299804688,0.1430664062,0.0371093750,4.9438476562,-6.2561035156,12.8173828125
2.8377521038,-0.7216796875,0.1474609375,0.0161132812,4.9438476562,-6.2561035156,12.8173828125
2.8404130936,-0.7216796875,0.1474609375,0.0161132812,4.6081542969,-6.3476562500,12.9394531250
2.8440871239,-0.7216796875,0.1474609375,0.0161132812,4.6081542969,-6.3476562500,12.8021240234
2.8466620445,-0.7216796875,0.1474609375,0.0341796875,3.5400390625,-6.1645507812,12.8021240234
2.8492739201,-0.7260742188,0.1416015625,0.0341796875,3.5400390625,-6.1645507812,12.9394531250
2.8518400192,-0.7260742188,0.1416015625,0.0341796875,2.2888183594,-5.4779052734,12.9394531250
2.8544111252,-0.7260742188,0.1416015625,0.0341796875,2.2888183594,-5.4779052734,12.9394531250
2.8569710255,-0.7260742188,0.1523437500,0.0449218750,2.3040771484,-5.4931640625,13.1988525391
2.8595890999,-0.7221679688,0.1523437500,0.0449218750,2.3040771484,-5.4931640625,13.1988525391
2.8621580601,-0.7221679688,0.1523437500,0.0449218750,2.3651123047,-6.0119628906,13.4582519531
2.8647239208,-0.7221679688,0.1523437500,0.0449218750,2.3651123047,-6.0119628906,13.4582519531
2.8672881126,-0.7221679688,0.1665039062,0.0493164062,3.0975341797,-6.6375732422,13.5345458984
2.8698661327,-0.7148437500,0.1665039062,0.0493164062,3.0975341797,-6.6375732422,13.5345458984
2.8725490570,-0.7148437500,0.1665039062,0.0493164062,4.9591064453,-6.8664550781,13.2141113281
2.8751149178,-0.7148437500,0.1665039062,0.0493164062,4.9591064453,-6.8664550781,13.2141113281
2.8776791096,-0.7324218750,0.1401367188,0.0419921875,7.5073242188,-6.9580078125,12.9241943359
2.8802490234,-0.7324218750,0.1401367188,0.0419921875,7.5073242188,-6.9580078125,12.9241943359
2.8828210831,-0.7324218750,0.1401367188,0.0419921875,9.1094970703,-6.7291259766,12.7868652344
2.8853859901,-0.7324218750,0.1401367188,0.0419921875,9.1094970703,-6.7291259766,12.7868652344
2.8880460262,-0.7304687500,0.1376953125,0.0493164062,10.1013183594,-6.4849853516,12.9852294922
2.8906250000,-0.7304687500,0.1376953125,0.0493164062,10.1013183594,-6.4849853516,12.9852294922
2.8931989670,-0.7304687500,0.1376953125,0.0493164062,10.1013183594,-6.0577392578,13.4735107422
2.8957769871,-0.7304687500,0.1376953125,0.0493164062,10.1013183594,-6.0577392578,13.4735107422
2.8984980583,-0.7338867188,0.1401367188,0.0712890625,10.1013183594,-5.8288574219,13.9923095703
2.9012110233,-0.7338867188,0.1401367188,0.0712890625,9.7351074219,-5.8288574219,13.9923095703
2.9039139748,-0.7338867188,0.1401367188,0.0712890625,9.7351074219,-5.1727294922,14.4958496094
2.9066150188,-0.7338867188,0.1401367188,0.0712890625,9.3383789062,-5.1727294922,14.4958496094
2.9092550278,-0.7187500000,0.1420898438,0.0498046875,9.3383789062,-5.1727294922,15.0909423828
2.9118280411,-0.7187500000,0.1420898438,0.0498046875,9.6588134766,-4.2572021484,15.0909423828
2.9144010544,-0.7187500000,0.1420898438,0.0498046875,9.6588134766,-4.2572021484,16.2963867188
2.9169731140,-0.7187500000,0.1420898438,0.0454101562,8.4381103516,-3.2501220703,16.2963867188
2.9196999073,-0.7285156250,0.1513671875,0.0454101562,8.4381103516,-3.2501220703,16.2963867188
2.9223999977,-0.7285156250,0.1513671875,0.0454101562,7.3699951172,-2.1362304688,16.7388916016
2.9250991344,-0.7285156250,0.1513671875,0.0454101562,7.3699951172,-2.1362304688,16.7388916016
2.9278519154,-0.7285156250,0.1445312500,0.0498046875,6.3629150391,-1.9531250000,17.4255371094
2.9305551052,-0.7236328125,0.1445312500,0.0498046875,6.3629150391,-1.9531250000,17.4255371094
2.9332559109,-0.7236328125,0.1445312500,0.0498046875,5.9967041016,-1.4343261719,18.3410644531
2.9360709190,-0.7236328125,0.1445312500,0.0498046875,5.9967041016,-1.4343261719,19.5465087891
2.9387869835,-0.7255859375,0.1601562500,0.0507812500,5.6457519531,-0.9002685547,19.5465087891
2.9414911270,-0.7255859375,0.1601562500,0.0507812500,5.6457519531,-0.9002685547,19.5465087891
2.9441981316,-0.7255859375,0.1601562500,0.0507812500,5.4016113281,-0.6866455078,20.7061767578
2.9468970299,-0.7255859375,0.1601562500,0.0507812500,5.4016113281,-0.6866455078,20.7061767578
2.9496140480,-0.7158203125,0.1718750000,0.0424804688,5.3710937500,-0.9155273438,21.2249755859
2.9523100853,-0.7158203125,0.1718750000,0.0424804688,5.3710937500,-0.9155273438,21.9421386719
2.9552171230,-0.7158203125,0.1718750000,0.0424804688,5.4168701172,-0.9002685547,21.9421386719
2.9583010674,-0.7187500000,0.1787109375,0.0434570312,5.4168701172,-0.9002685547,22.1862792969
2.9608759880,-0.7187500000,0.1787109375,0.0434570312,5.7678222656,-0.6256103516,22.1862792969
2.9634449482,-0.7187500000,0.1787109375,0.0434570312,5.7678222656,-0.6256103516,22.4761962891
2.9660129547,-0.7187500000,0.1787109375,0.0434570312,6.0882568359,-0.8087158203,22.4761962891
2.9686870575,-0.7119140625,0.1801757812,0.0375976562,6.0882568359,-0.8087158203,22.4761962891
2.9713909626,-0.7119140625,0.1801757812,0.0375976562,6.3018798828,-1.6021728516,22.9644775391
2.9740939140,-0.7119140625,0.1801757812,0.0375976562,6.3018798828,-1.6021728516,26.8707275391
2.9767930508,-0.7119140625,0.1801757812,0.0375976562,6.5002441406,-1.9073486328,23.4985351562
2.9795079231,-0.7114257812,0.1889648438,0.0400390625,6.5002441406,-1.9073486328,23.4985351562
2.9822111130,-0.7114257812,0.1889648438,0.0400390625,6.8054199219,-1.6326904297,23.7884521484
2.9849140644,-0.7114257812,0.1889648438,0.0400390625,6.8054199219,-1.6326904297,23.7884521484
2.9876229763,-0.7114257812,0.1889648438,0.0400390625,7.1563720703,-1.8463134766,24.1241455078
2.9901931286,-0.7221679688,0.1611328125,0.0478515625,7.1563720703,-1.8463134766,24.1241455078
2.9927599430,-0.7221679688,0.1611328125,0.0478515625,7.5378417969,-2.0599365234,24.7344970703
2.9953320026,-0.7221679688,0.1611328125,0.0478515625,7.5378417969,-2.0599365234,24.7344970703
2.9979159832,-0.7221679688,0.1611328125,0.0566406250,8.1176757812,-2.2583007812,25.6958007812
3.0005989075,-0.7329101562,0.1484375000,0.0566406250,8.1176757812,-2.2583007812,25.6958007812
3.0031759739,-0.7329101562,0.1484375000,0.0566406250,8.7432861328,-3.0822753906,26.2298583984
3.0057461262,-0.7329101562,0.1484375000,0.0566406250,8.7432861328,-3.0822753906,26.2298583984
3.0084481239,-0.7329101562,0.1728515625,0.0507812500,9.1705322266,-3.7384033203,26.9622802734
3.0110249519,-0.7377929688,0.1728515625,0.0507812500,9.1705322266,-3.7384033203,26.9622802734
3.0135929585,-0.7377929688,0.1728515625,0.0507812500,9.9487304688,-3.4942626953,27.2827148438
3.0161619186,-0.7377929688,0.1728515625,0.0507812500,9.9487304688,-3.4942626953,27.2827148438
3.0188739300,-0.7363281250,0.1958007812,0.0415039062,10.4827880859,-3.7078857422,27.5115966797
3.0215840340,-0.7363281250,0.1958007812,0.0415039062,10.4827880859,-3.7078857422,27.5115966797
3.0242891312,-0.7363281250,0.1958007812,0.0415039062,10.9405517578,-3.6926269531,27.5573730469
3.0269911289,-0.7363281250,0.1958007812,0.0415039062,10.9405517578,-3.6926269531,27.5573730469
3.0296089649,-0.7192382812,0.1923828125,0.0385742188,11.4440917969,-3.1585693359,27.2827148438
3.0321810246,-0.7192382812,0.1923828125,0.0385742188,11.4440917969,-3.1585693359,27.2827148438
3.0347490311,-0.7192382812,0.1923828125,0.0385742188,11.4440917969,-2.8533935547,27.1606445312
3.0374329090,-0.7192382812,0.1923828125,0.0385742188,11.5356445312,-2.8533935547,27.1606445312
3.0401520729,-0.7143554688,0.2089843750,0.0371093750,11.5356445312,-2.7160644531,27.1301269531
3.0427269936,-0.7143554688,0.2089843750,0.0371093750,11.1389160156,-2.7160644531,27.1301269531
3.0456280708,-0.7143554688,0.2089843750,0.0371093750,11.1389160156,-3.0364990234,26.9622802734
3.0482780933,-0.7143554688,0.2089843750,0.0351562500,11.2609863281,-3.0364990234,26.9622802734
3.0508549213,-0.7104492188,0.2119140625,0.0351562500,11.2609863281,-3.0364990234,26.9317626953
3.0534279346,-0.7104492188,0.2119140625,0.0351562500,11.2762451172,-3.4332275391,26.9317626953
3.0559949875,-0.7104492188,0.2119140625,0.0351562500,11.2762451172,-3.4332275391,26.9317626953
3.0585739613,-0.7104492188,0.2119140625,0.0327148438,10.6353759766,-3.0670166016,26.9317626953
3.0611469746,-0.7211914062,0.2211914062,0.0327148438,10.6353759766,-3.0670166016,26.9317626953
3.0638170242,-0.7211914062,0.2211914062,0.0327148438,10.6048583984,-2.8991699219,26.9622802734
3.0663919449,-0.7211914062,0.2211914062,0.0327148438,10.6048583984,-2.8991699219,26.9622802734
3.0690319538,-0.7211914062,0.2084960938,0.0532226562,10.8184814453,-3.2501220703,27.0385742188
3.0716009140,-0.7285156250,0.2084960938,0.0532226562,10.8184814453,-3.2501220703,27.0385742188
3.0741660595,-0.7285156250,0.2084960938,0.0532226562,11.4288330078,-3.0212402344,26.5808105469
3.0767369270,-0.7285156250,0.2084960938,0.0532226562,11.4288330078,-3.0212402344,26.5808105469
3.0793209076,-0.7285156250,0.2211914062,0.0478515625,12.2985839844,-3.0517578125,26.1535644531
3.0818929672,-0.7158203125,0.2211914062,0.0478515625,12.2985839844,-3.0517578125,26.1535644531
3.0844709873,-0.7158203125,0.2211914062,0.0478515625,12.8479003906,-3.3264160156,26.0467529297
3.0870471001,-0.7158203125,0.2211914062,0.0478515625,12.8479003906,-3.3264160156,26.0467529297
3.0897419453,-0.7031250000,0.2343750000,0.0532226562,13.4124755859,-3.4027099609,26.3061523438
3.0923159122,-0.7031250000,0.2343750000,0.0532226562,13.4124755859,-3.4027099609,26.3061523438
3.0948879719,-0.7031250000,0.2343750000,0.0532226562,13.8092041016,-3.0670166016,26.5960693359
3.0974650383,-0.7031250000,0.2343750000,0.0532226562,13.8092041016,-3.0670166016,26.5960693359
3.1002500057,-0.6982421875,0.2285156250,0.0498046875,13.5192871094,-2.8686523438,26.7944335938
3.1029579639,-0.6982421875,0.2285156250,0.0498046875,13.5192871094,-2.8686523438,26.7944335938
3.1056580544,-0.6982421875,0.2285156250,0.0498046875,13.9770507812,-3.9062500000,27.7709960938
3.1083869934,-0.6982421875,0.2285156250,0.0498046875,13.9770507812,-3.9062500000,27.7709960938
3.1110930443,-0.7089843750,0.2153320312,0.0541992188,13.9770507812,-3.3569335938,28.4271240234
3.1137940884,-0.7089843750,0.2153320312,0.0541992188,13.1683349609,-3.3569335938,28.4271240234
3.1165039539,-0.7089843750,0.2153320312,0.0541992188,13.1683349609,-2.5482177734,28.9001464844
3.1192150116,-0.7089843750,0.2153320312,0.0625000000,12.7716064453,-2.5482177734,28.9001464844
3.1219251156,-0.7182617188,0.2202148438,0.0625000000,12.7716064453,-2.5634765625,29.5715332031
3.1246290207,-0.7182617188,0.2202148438,0.0625000000,12.5274658203,-2.5634765625,29.5715332031
3.1274330616,-0.7182617188,0.2202148438,0.0625000000,11.6271972656,-2.5482177734,30.5175781250
3.1301529408,-0.7099609375,0.2236328125,0.0473632812,11.6271972656,-2.5482177734,30.5175781250
3.1328561306,-0.7099609375,0.2236328125,0.0473632812,11.6271972656,-2.8839111328,31.2957763672
3.1355631351,-0.7099609375,0.2236328125,0.0473632812,10.6811523438,-2.8839111328,31.2957763672
3.1382761002,-0.7099609375,0.2236328125,0.0473632812,10.6811523438,-3.1890869141,31.7993164062
3.1409859657,-0.7138671875,0.2373046875,0.0434570312,10.7879638672,-3.1890869141,31.7993164062
3.1436960697,-0.7138671875,0.2373046875,0.0434570312,10.7879638672,-2.8228759766,32.3333740234
3.1463990211,-0.7138671875,0.2373046875,0.0434570312,10.8032226562,-2.8228759766,32.3333740234
3.1490459442,-0.7138671875,0.2373046875,0.0434570312,10.8032226562,-2.5177001953,32.4249267578
3.1516211033,-0.7094726562,0.2460937500,0.0444335938,10.8489990234,-2.5177001953,32.4249267578
3.1542999744,-0.7094726562,0.2460937500,0.0444335938,10.8489990234,-2.5177001953,32.2113037109
3.1568999290,-0.7094726562,0.2460937500,0.0444335938,11.3677978516,-2.5939941406,32.2113037109
3.1597650051,-0.7094726562,0.2563476562,0.0488281250,11.3677978516,-2.7160644531,32.4554443359
3.1624391079,-0.7045898438,0.2563476562,0.0488281250,11.2609863281,-2.7160644531,32.4554443359
3.1651511192,-0.7045898438,0.2563476562,0.0488281250,11.2609863281,-2.7160644531,32.5927734375
3.1679029465,-0.7045898438,0.2563476562,0.0488281250,10.9710693359,-2.3040771484,32.5927734375
3.1706120968,-0.7011718750,0.2636718750,0.0454101562,10.9710693359,-2.3040771484,32.5775146484
3.1733200550,-0.7011718750,0.2636718750,0.0454101562,11.1999511719,-2.7313232422,32.5775146484
3.1760249138,-0.7011718750,0.2636718750,0.0454101562,11.1999511719,-2.7313232422,32.3638916016
3.1787450314,-0.7011718750,0.2636718750,0.0454101562,11.4746093750,-2.3651123047,32.3638916016
3.1814579964,-0.6782226562,0.2666015625,0.0571289062,11.4746093750,-2.3651123047,31.8908691406
3.1841690540,-0.6782226562,0.2666015625,0.0571289062,11.3830566406,-2.5634765625,31.8908691406
3.1868770123,-0.6782226562,0.2666015625,0.0571289062,11.3830566406,-2.5634765625,31.6619873047
3.1895010471,-0.6782226562,0.2666015625,0.0571289062,11.4288330078,-3.0822753906,31.6619873047
3.1920809746,-0.6884765625,0.2783203125,0.0649414062,11.4288330078,-3.0822753906,32.0587158203
3.1947610378,-0.6884765625,0.2783203125,0.0649414062,12.4969482422,-2.6092529297,32.0587158203
3.1973350048,-0.6884765625,0.2783203125,0.0649414062,12.4969482422,-2.6092529297,32.0587158203
3.1999540329,-0.6884765625,0.2783203125,0.0463867188,12.8479003906,-2.7465820312,31.5246582031
3.2025279999,-0.6938476562,0.2734375000,0.0463867188,12.8479003906,-2.7465820312,31.5246582031
3.2050991058,-0.6938476562,0.2734375000,0.0463867188,13.0004882812,-3.0364990234,31.6162109375
3.2077350616,-0.6938476562,0.2734375000,0.0463867188,13.0004882812,-3.0364990234,31.6162109375
3.2103309631,-0.6938476562,0.2851562500,0.0385742188,13.8702392578,-3.1127929688,31.6314697266
3.2129049301,-0.7011718750,0.2851562500,0.0385742188,13.8702392578,-3.1127929688,31.6314697266
3.2154800892,-0.7011718750,0.2851562500,0.0385742188,13.8549804688,-3.6621093750,30.9295654297
3.2182121277,-0.7011718750,0.2851562500,0.0385742188,13.8549804688,-3.6621093750,30.9295654297
3.2209191322,-0.7050781250,0.2871093750,0.0332031250,14.6484375000,-3.5858154297,30.5328369141
3.2236230373,-0.7050781250,0.2871093750,0.0332031250,14.6484375000,-3.5858154297,30.5328369141
3.2263290882,-0.7050781250,0.2871093750,0.0332031250,14.5568847656,-3.6468505859,30.4718017578
3.2290780544,-0.7050781250,0.2871093750,0.0332031250,14.5568847656,-3.6468505859,30.4718017578
3.2317841053,-0.7119140625,0.2812500000,0.0175781250,14.6331787109,-3.9825439453,30.3497314453
3.2344899178,-0.7119140625,0.2812500000,0.0175781250,14.6331787109,-3.9825439453,30.3497314453
3.2371959686,-0.7119140625,0.2812500000,0.0175781250,15.1214599609,-3.7689208984,30.5023193359
3.2399129868,-0.7119140625,0.2812500000,0.0175781250,15.1214599609,-3.7689208984,30.5023193359
3.2426171303,-0.7148437500,0.2812500000,0.0190429688,14.9230957031,-3.7994384766,30.7006835938
3.2453179359,-0.7148437500,0.2812500000,0.0190429688,14.9230957031,-3.7994384766,30.7006835938
3.2480099201,-0.7148437500,0.2812500000,0.0190429688,14.0838623047,-3.7689208984,30.7312011719
3.2505791187,-0.7148437500,0.2812500000,0.0195312500,14.0838623047,-3.7689208984,30.7312011719
3.2531490326,-0.7128906250,0.2929687500,0.0195312500,14.4805908203,-3.4942626953,30.7312011719
3.2557249069,-0.7128906250,0.2929687500,0.0195312500,14.4805908203,-3.4942626953,30.7312011719
3.2585089207,-0.7128906250,0.2929687500,0.0195312500,14.6026611328,-3.9672851562,31.3873291016
3.2610850334,-0.7128906250,0.2983398438,0.0190429688,14.6026611328,-3.9672851562,31.3873291016
3.2636620998,-0.7124023438,0.2983398438,0.0190429688,14.9078369141,-3.9062500000,31.6467285156
3.2662339211,-0.7124023438,0.2983398438,0.0190429688,14.9078369141,-3.9062500000,31.6467285156
3.2689719200,-0.7124023438,0.2983398438,0.0190429688,15.2435302734,-3.6621093750,31.6162109375
3.2716689110,-0.7143554688,0.3129882812,0.0283203125,15.2435302734,-3.6621093750,31.6162109375
3.2744739056,-0.7143554688,0.3129882812,0.0283203125,16.7846679688,-3.9672851562,31.6925048828
3.2771799564,-0.7143554688,0.3129882812,0.0283203125,16.7846679688,-3.9672851562,31.6925048828
3.2800440788,-0.7143554688,0.3129882812,0.0283203125,18.4326171875,-4.0435791016,32.3638916016
3.2827410698,-0.7207031250,0.3203125000,0.0205078125,18.4326171875,-4.0435791016,32.3638916016
3.2854321003,-0.7207031250,0.3203125000,0.0205078125,19.3939208984,-4.4097900391,32.5317382812
3.2881159782,-0.7207031250,0.3203125000,0.0205078125,19.3939208984,-4.4097900391,32.5317382812
3.2907190323,-0.7207031250,0.3203125000,0.0078125000,23.3001708984,-4.8828125000,33.1726074219
3.2932949066,-0.7182617188,0.3232421875,0.0078125000,20.3704833984,-4.8828125000,33.1726074219
3.2958700657,-0.7182617188,0.3232421875,0.0078125000,20.3704833984,-4.8828125000,33.8745117188
3.2985329628,-0.7182617188,0.3232421875,0.0078125000,21.2707519531,-5.9661865234,33.8745117188
3.3012480736,-0.7182617188,0.3271484375,0.0073242188,21.2707519531,-5.9661865234,34.3017578125
3.3039541245,-0.7119140625,0.3271484375,0.0073242188,23.1628417969,-6.7291259766,34.3017578125
3.3066620827,-0.7119140625,0.3271484375,0.0073242188,23.1628417969,-6.7291259766,34.6374511719
3.3093020916,-0.7119140625,0.3271484375,0.0073242188,24.3377685547,-7.8125000000,34.6374511719
3.3118770123,-0.7446289062,0.3120117188,-0.0112304688,24.3377685547,-7.8125000000,33.8745117188
3.3144531250,-0.7446289062,0.3120117188,-0.0112304688,26.1535644531,-6.5460205078,33.8745117188
3.3170299530,-0.7446289062,0.3120117188,-0.0112304688,26.1535644531,-6.5460205078,33.8745117188
3.3196280003,-0.7446289062,0.3120117188,-0.0112304688,25.2685546875,-5.3710937500,34.0118408203
3.3223159313,-0.7553710938,0.2763671875,-0.0068359375,25.2685546875,-5.3710937500,34.0118408203
3.3248889446,-0.7553710938,0.2763671875,-0.0068359375,22.7966308594,-4.2419433594,35.3240966797
3.3274610043,-0.7553710938,0.2763671875,-0.0068359375,22.7966308594,-4.2419433594,35.3240966797
3.3301279545,-0.7553710938,0.2763671875,-0.0068359375,21.6217041016,-2.5787353516,35.8428955078
3.3327050209,-0.7456054688,0.2924804688,0.0175781250,21.6217041016,-2.5787353516,35.8428955078
3.3352780342,-0.7456054688,0.2924804688,0.0175781250,19.3481445312,-1.5563964844,36.8499755859
3.3379900455,-0.7456054688,0.2924804688,0.0175781250,19.3481445312,-1.5563964844,36.8499755859
