# time_stamp before, Acceleration x, Acceleration y, Acceleration z, Gyro x, Gyro y, Gyro z
0.0000000000,-0.7377929688,0.0610351562,0.0156250000,0.0305175781,-0.0762939453,0.1220703125
0.0026810169,-0.7377929688,0.0610351562,0.0156250000,-3.8757324219,-0.1983642578,0.0762939453
0.0053610802,-0.7353515625,0.0551757812,0.0249023438,-0.2288818359,-0.1983642578,0.0762939453
0.0080449581,-0.7353515625,0.0551757812,0.0249023438,-0.2288818359,-0.0457763672,-0.0152587891
0.0107250214,-0.7353515625,0.0551757812,0.0249023438,-0.5035400391,-0.0457763672,-0.0152587891
0.0136110783,-0.7353515625,0.0551757812,0.0141601562,0.2136230469,-0.4425048828,0.0915527344
0.0163090229,-0.7353515625,0.0639648438,0.0141601562,0.2136230469,-0.4425048828,0.0915527344
0.0190141201,-0.7353515625,0.0639648438,0.0141601562,-3.6926269531,-0.3204345703,0.4577636719
0.0216960907,-0.7353515625,0.0639648438,0.0141601562,-0.5340576172,-0.3204345703,0.4577636719
0.0243721008,-0.7353515625,0.0595703125,0.0175781250,-0.5340576172,-0.1983642578,0.3967285156
0.0271539688,-0.7304687500,0.0595703125,0.0175781250,-0.7476806641,-0.1983642578,0.3967285156
0.0297150612,-0.7304687500,0.0595703125,0.0175781250,-0.7476806641,-0.1220703125,0.3509521484
0.0322749615,-0.7304687500,0.0595703125,0.0175781250,-0.4882812500,-0.1220703125,0.3509521484
0.0348441601,-0.7363281250,0.0634765625,0.0117187500,-0.4882812500,-0.1220703125,0.2441406250
0.0374410152,-0.7363281250,0.0634765625,0.0117187500,-0.1678466797,-0.3204345703,0.2441406250
0.0401501656,-0.7363281250,0.0634765625,0.0117187500,-0.1678466797,-0.3204345703,0.0457763672
0.0428531170,-0.7363281250,0.0634765625,0.0117187500,-0.2593994141,-0.3204345703,0.0457763672
0.0455541611,-0.7299804688,0.0634765625,0.0190429688,-0.2593994141,-0.3204345703,0.1678466797
0.0481970310,-0.7299804688,0.0634765625,0.0190429688,-0.2899169922,-0.6256103516,0.1678466797
0.0507671833,-0.7299804688,0.0634765625,0.0190429688,-0.2899169922,-0.6256103516,0.1678466797
0.0534901619,-0.7299804688,0.0634765625,0.0190429688,-0.1678466797,-0.5493164062,0.2899169922
0.0560660362,-0.7373046875,0.0585937500,0.0170898438,-0.1678466797,-0.5493164062,0.2899169922
0.0588061810,-0.7373046875,0.0585937500,0.0170898438,-0.5340576172,-0.3814697266,0.1068115234
0.0613780022,-0.7373046875,0.0585937500,0.0170898438,-0.5340576172,-0.3814697266,0.1068115234
0.0639441013,-0.7373046875,0.0585937500,0.0170898438,-0.5950927734,-0.1678466797,0.2593994141
0.0665111542,-0.7338867188,0.0605468750,0.0122070312,-0.5950927734,-0.1678466797,0.2593994141
0.0692451000,-0.7338867188,0.0605468750,0.0122070312,-0.6256103516,0.0000000000,0.3967285156
0.0719540119,-0.7338867188,0.0605468750,0.0122070312,-0.6256103516,0.0000000000,0.3967285156
0.0746459961,-0.7338867188,0.0634765625,0.0180664062,-0.5645751953,-0.0610351562,0.2441406250
0.0773451328,-0.7333984375,0.0634765625,0.0180664062,-0.5645751953,-0.0610351562,0.2441406250
0.0799131393,-0.7333984375,0.0634765625,0.0180664062,-0.4425048828,0.1220703125,0.1983642578
0.0824861526,-0.7333984375,0.0634765625,0.0180664062,-0.4425048828,0.1220703125,0.1983642578
0.0850491524,-0.7333984375,0.0556640625,0.0175781250,-0.4882812500,-0.0152587891,0.0152587891
0.0876569748,-0.7319335938,0.0556640625,0.0175781250,-0.4882812500,-0.0152587891,0.0152587891
0.0903601646,-0.7319335938,0.0556640625,0.0175781250,-0.7171630859,-0.0152587891,0.1220703125
0.0930581093,-0.7319335938,0.0556640625,0.0175781250,-0.7171630859,-0.0152587891,0.1220703125
0.0957520008,-0.7382812500,0.0571289062,0.0166015625,-0.1831054688,-0.1678466797,0.2899169922
0.0984590054,-0.7382812500,0.0571289062,0.0166015625,-0.1831054688,-0.1678466797,0.2899169922
0.1011569500,-0.7382812500,0.0571289062,0.0166015625,-0.0610351562,-0.5645751953,-0.2746582031
0.1038560867,-0.7382812500,0.0571289062,0.0166015625,-0.0610351562,-0.5645751953,-0.2746582031
0.1065511703,-0.7333984375,0.0615234375,0.0131835938,-0.1373291016,-0.3814697266,0.0610351562
0.1092500687,-0.7333984375,0.0615234375,0.0131835938,-0.1373291016,-0.3814697266,0.0610351562
0.1119520664,-0.7333984375,0.0615234375,0.0131835938,0.1678466797,-0.8087158203,0.0762939453
0.1146450043,-0.7333984375,0.0615234375,0.0195312500,0.1678466797,-0.8087158203,0.0762939453
0.1174581051,-0.7324218750,0.0527343750,0.0195312500,-0.1678466797,-0.4425048828,-0.1525878906
0.1201610565,-0.7324218750,0.0527343750,0.0195312500,-0.1678466797,-0.4425048828,-0.1525878906
0.1228721142,-0.7324218750,0.0527343750,0.0195312500,-0.7476806641,-0.2899169922,0.0000000000
0.1256201267,-0.7373046875,0.0625000000,0.0214843750,-0.7476806641,-0.2899169922,0.0000000000
0.1282601357,-0.7373046875,0.0625000000,0.0214843750,-0.6103515625,0.0152587891,-0.0152587891
0.1308240891,-0.7373046875,0.0625000000,0.0214843750,-0.6103515625,0.0152587891,-0.0152587891
0.1333899498,-0.7373046875,0.0625000000,0.0214843750,-0.6103515625,-0.1678466797,-0.2441406250
0.1359550953,-0.7382812500,0.0615234375,0.0190429688,-0.6256103516,-0.1678466797,-0.2441406250
0.1386239529,-0.7382812500,0.0615234375,0.0190429688,3.2806396484,-0.6561279297,-0.4272460938
0.1413199902,-0.7382812500,0.0615234375,0.0190429688,0.2136230469,-0.6561279297,-0.4272460938
0.1440169811,-0.7382812500,0.0615234375,0.0190429688,0.2136230469,-0.4730224609,-0.3509521484
0.1467039585,-0.7368164062,0.0576171875,0.0156250000,0.1220703125,-0.4730224609,-0.3509521484
0.1494100094,-0.7368164062,0.0576171875,0.0156250000,0.1220703125,-0.1831054688,-0.2593994141
0.1521060467,-0.7368164062,0.0576171875,0.0156250000,-0.0610351562,-0.1831054688,-0.2593994141
0.1548061371,-0.7368164062,0.0576171875,0.0156250000,-0.0610351562,-0.5187988281,-0.3509521484
0.1575150490,-0.7377929688,0.0561523438,0.0244140625,-0.3967285156,-0.5187988281,-0.3509521484
0.1600770950,-0.7377929688,0.0561523438,0.0244140625,-0.3967285156,-0.5187988281,-0.1983642578
0.1626410484,-0.7377929688,0.0561523438,0.0244140625,-0.1373291016,-0.2746582031,-0.1983642578
0.1652071476,-0.7377929688,0.0561523438,0.0283203125,-0.1373291016,-0.2746582031,-0.2136230469
0.1678891182,-0.7407226562,0.0561523438,0.0283203125,-0.4425048828,-0.1831054688,-0.2136230469
0.1704599857,-0.7407226562,0.0561523438,0.0283203125,-0.4425048828,-0.1831054688,-0.2136230469
0.1730241776,-0.7407226562,0.0561523438,0.0283203125,-0.2288818359,-0.1373291016,-0.4425048828
0.1755909920,-0.7407226562,0.0561523438,0.0185546875,-0.2288818359,-0.1373291016,-0.4425048828
0.1782779694,-0.7319335938,0.0561523438,0.0185546875,-0.1373291016,-0.1831054688,-0.1678466797
0.1809501648,-0.7319335938,0.0561523438,0.0185546875,-0.1373291016,-0.1831054688,-0.1678466797
0.1835210323,-0.7319335938,0.0561523438,0.0185546875,-0.4577636719,0.1373291016,-0.1373291016
0.1860811710,-0.7319335938,0.0629882812,0.0146484375,-0.4577636719,0.1373291016,-0.1373291016
0.1888010502,-0.7309570312,0.0629882812,0.0146484375,-0.2441406250,-0.2441406250,-0.0152587891
0.1915011406,-0.7309570312,0.0629882812,0.0146484375,-0.2441406250,-0.2441406250,-0.0152587891
0.1941990852,-0.7309570312,0.0629882812,0.0146484375,-0.0152587891,-0.4577636719,0.0305175781
0.1969029903,-0.7402343750,0.0610351562,0.0297851562,-0.0152587891,-0.4577636719,0.0305175781
0.1995999813,-0.7402343750,0.0610351562,0.0297851562,0.2136230469,-0.2746582031,-0.4882812500
0.2023019791,-0.7402343750,0.0610351562,0.0297851562,0.2136230469,-0.2746582031,-0.4882812500
0.2049989700,-0.7402343750,0.0610351562,0.0297851562,0.6103515625,-0.4730224609,-0.6256103516
0.2077541351,-0.7387695312,0.0615234375,0.0141601562,0.6103515625,-0.4730224609,-0.6256103516
0.2104520798,-0.7387695312,0.0615234375,0.0141601562,0.1525878906,-0.0762939453,-0.0762939453
0.2131450176,-0.7387695312,0.0615234375,0.0141601562,0.1525878906,-0.0762939453,-0.0762939453
0.2158420086,-0.7387695312,0.0615234375,0.0258789062,0.5645751953,-0.3814697266,-0.3051757812
0.2185521126,-0.7446289062,0.0644531250,0.0258789062,0.5645751953,-0.3814697266,-0.3051757812
0.2211720943,-0.7446289062,0.0644531250,0.0258789062,0.1525878906,-0.4119873047,-0.6103515625
0.2237470150,-0.7446289062,0.0644531250,0.0258789062,0.1525878906,-0.4119873047,-0.6103515625
0.2263131142,-0.7446289062,0.0644531250,0.0190429688,0.2746582031,-0.5340576172,-0.3509521484
0.2289669514,-0.7343750000,0.0644531250,0.0190429688,0.2746582031,-0.5340576172,-0.3509521484
0.2315320969,-0.7343750000,0.0644531250,0.0190429688,1.1291503906,-0.8239746094,-0.5340576172
0.2340910435,-0.7343750000,0.0644531250,0.0190429688,1.1291503906,-0.8239746094,-0.5340576172
0.2370631695,-0.7329101562,0.0639648438,0.0122070312,0.2441406250,-0.6713867188,-0.2288818359
0.2397730350,-0.7329101562,0.0639648438,0.0122070312,0.2441406250,-0.6713867188,-0.2288818359
0.2424759865,-0.7329101562,0.0639648438,0.0122070312,0.1373291016,-0.6866455078,-0.3204345703
0.2452809811,-0.7329101562,0.0639648438,0.0122070312,0.1373291016,-0.6866455078,-0.3204345703
0.2479970455,-0.7377929688,0.0600585938,0.0151367188,0.0305175781,-0.7324218750,-0.2899169922
0.2506980896,-0.7377929688,0.0600585938,0.0151367188,0.0305175781,-0.7324218750,-0.2899169922
0.2534010410,-0.7377929688,0.0600585938,0.0151367188,-0.2899169922,-0.3356933594,0.0000000000
0.2560989857,-0.7377929688,0.0600585938,0.0205078125,-0.2899169922,-0.3356933594,0.0000000000
0.2588071823,-0.7416992188,0.0600585938,0.0205078125,-0.4425048828,-0.1068115234,-0.2899169922
0.2615120411,-0.7416992188,0.0600585938,0.0205078125,-0.4425048828,-0.1068115234,-0.2899169922
0.2642130852,-0.7416992188,0.0600585938,0.0205078125,-0.2593994141,-0.1678466797,-0.1983642578
0.2669250965,-0.7416992188,0.0585937500,0.0190429688,-0.2593994141,-0.1678466797,-0.1983642578
0.2694890499,-0.7407226562,0.0585937500,0.0190429688,-0.2593994141,0.0000000000,-0.0457763672
0.2720520496,-0.7407226562,0.0585937500,0.0190429688,-0.5340576172,0.0000000000,-0.0457763672
0.2752130032,-0.7407226562,0.0585937500,0.0190429688,-0.2899169922,0.0000000000,-0.3662109375
0.2778661251,-0.7377929688,0.0585937500,0.0214843750,-0.2899169922,0.0000000000,-0.3662109375
0.2804319859,-0.7377929688,0.0585937500,0.0214843750,0.4119873047,-0.2593994141,-0.5035400391
0.2829949856,-0.7377929688,0.0585937500,0.0214843750,0.4119873047,-0.2593994141,-0.5035400391
0.2855541706,-0.7377929688,0.0585937500,0.0214843750,0.4119873047,-0.5187988281,-0.2136230469
0.2881200314,-0.7314453125,0.0625000000,0.0190429688,0.2441406250,-0.5187988281,-0.2136230469
0.2906820774,-0.7314453125,0.0625000000,0.0190429688,0.2441406250,-0.5187988281,-0.1831054688
0.2932431698,-0.7314453125,0.0625000000,0.0190429688,-0.1068115234,-0.3356933594,-0.1831054688
0.2958049774,-0.7314453125,0.0625000000,0.0190429688,-0.1068115234,-0.3356933594,-0.1831054688
0.2983729839,-0.7397460938,0.0605468750,0.0214843750,0.2593994141,-0.6866455078,-0.3356933594
0.3009381294,-0.7397460938,0.0605468750,0.0214843750,0.2593994141,-0.6866455078,-0.3356933594
0.3034989834,-0.7397460938,0.0605468750,0.0214843750,0.4119873047,-0.7019042969,-0.5645751953
0.3060619831,-0.7397460938,0.0605468750,0.0214843750,0.4119873047,-0.7019042969,-0.5645751953
0.3087890148,-0.7353515625,0.0625000000,0.0209960938,0.1831054688,-0.3967285156,-0.2593994141
0.3113560677,-0.7353515625,0.0625000000,0.0209960938,0.1831054688,-0.3967285156,-0.2593994141
0.3139159679,-0.7353515625,0.0625000000,0.0209960938,-0.1525878906,-0.6408691406,-0.1678466797
0.3164811134,-0.7353515625,0.0625000000,0.0209960938,-0.1525878906,-0.6408691406,-0.1678466797
0.3191821575,-0.7343750000,0.0625000000,0.0122070312,0.1983642578,-0.5798339844,-0.0305175781
0.3217461109,-0.7343750000,0.0625000000,0.0122070312,0.1983642578,-0.5798339844,-0.0305175781
0.3243069649,-0.7343750000,0.0625000000,0.0122070312,-0.7171630859,-0.3662109375,-0.0457763672
0.3269660473,-0.7343750000,0.0625000000,0.0063476562,-0.7171630859,-0.3662109375,-0.0457763672
0.3295350075,-0.7373046875,0.0551757812,0.0063476562,0.0457763672,-0.4272460938,-0.2288818359
0.3320980072,-0.7373046875,0.0551757812,0.0063476562,0.0457763672,-0.4272460938,-0.2288818359
0.3346610069,-0.7373046875,0.0551757812,0.0063476562,-3.8604736328,-0.2288818359,0.0152587891
0.3372299671,-0.7373046875,0.0551757812,0.0166015625,-0.3662109375,-0.2288818359,0.0152587891
0.3397951126,-0.7377929688,0.0585937500,0.0166015625,-0.3662109375,-0.2288818359,-0.0915527344
0.3423571587,-0.7377929688,0.0585937500,0.0166015625,-0.3204345703,-0.1220703125,-0.0915527344
0.3449189663,-0.7377929688,0.0585937500,0.0166015625,-0.3204345703,-0.1220703125,0.1068115234
0.3475611210,-0.7377929688,0.0595703125,0.0249023438,-0.1678466797,-0.2441406250,0.1068115234
0.3502631187,-0.7412109375,0.0595703125,0.0249023438,-0.1678466797,-0.2441406250,0.0305175781
0.3529579639,-0.7412109375,0.0595703125,0.0249023438,0.0152587891,-0.5187988281,0.0305175781
0.3556511402,-0.7412109375,0.0595703125,0.0249023438,0.0152587891,-0.5187988281,0.0305175781
0.3582999706,-0.7314453125,0.0571289062,0.0102539062,-0.2288818359,-0.2441406250,0.0610351562
0.3608679771,-0.7314453125,0.0571289062,0.0102539062,-0.2288818359,-0.2441406250,0.0610351562
0.3634359837,-0.7314453125,0.0571289062,0.0102539062,-0.4730224609,-0.3356933594,0.0457763672
0.3660011292,-0.7314453125,0.0571289062,0.0102539062,-0.4730224609,-0.3356933594,0.0457763672
0.3686671257,-0.7397460938,0.0620117188,0.0258789062,-0.4730224609,-0.2441406250,0.0762939453
0.3714661598,-0.7397460938,0.0620117188,0.0258789062,-0.4730224609,-0.2441406250,0.0762939453
0.3741710186,-0.7397460938,0.0620117188,0.0258789062,-0.0762939453,-0.0152587891,0.1373291016
0.3768739700,-0.7397460938,0.0620117188,0.0258789062,-0.0762939453,-0.0152587891,0.1373291016
0.3795740604,-0.7402343750,0.0581054688,0.0141601562,0.3356933594,-0.3967285156,0.4577636719
0.3822729588,-0.7402343750,0.0581054688,0.0141601562,0.3356933594,-0.3967285156,0.4577636719
0.3850560188,-0.7402343750,0.0581054688,0.0141601562,0.3662109375,-0.5035400391,0.1220703125
0.3880770206,-0.7402343750,0.0581054688,0.0185546875,0.3662109375,-0.5035400391,0.1220703125
0.3907811642,-0.7363281250,0.0581054688,0.0185546875,-0.3204345703,-0.3814697266,0.0915527344
0.3934800625,-0.7363281250,0.0581054688,0.0185546875,-0.3204345703,-0.3814697266,0.0915527344
0.3961789608,-0.7363281250,0.0581054688,0.0185546875,-0.4882812500,-0.3356933594,-0.1220703125
0.3989210129,-0.7329101562,0.0595703125,0.0161132812,-0.4882812500,-0.3356933594,-0.1220703125
0.4016211033,-0.7329101562,0.0595703125,0.0161132812,-0.5950927734,-0.1373291016,-0.0762939453
0.4043159485,-0.7329101562,0.0595703125,0.0161132812,-0.5950927734,-0.1373291016,-0.0762939453
0.4070620537,-0.7329101562,0.0595703125,0.0161132812,-0.6103515625,-0.1068115234,0.2288818359
0.4096269608,-0.7329101562,0.0581054688,0.0175781250,-0.6103515625,-0.1068115234,0.2288818359
0.4121921062,-0.7329101562,0.0581054688,0.0175781250,-0.2441406250,-0.3356933594,0.0457763672
0.4147610664,-0.7329101562,0.0581054688,0.0175781250,-0.2441406250,-0.3356933594,0.0457763672
0.4173581600,-0.7329101562,0.0581054688,0.0175781250,-0.0915527344,-0.4272460938,-0.0305175781
0.4199249744,-0.7333984375,0.0644531250,0.0151367188,-0.0915527344,-0.4272460938,-0.0305175781
0.4224920273,-0.7333984375,0.0644531250,0.0151367188,-0.5035400391,-0.0152587891,0.0000000000
0.4250600338,-0.7333984375,0.0644531250,0.0151367188,-0.5035400391,-0.0152587891,0.0000000000
0.4276349545,-0.7333984375,0.0644531250,0.0151367188,-0.4882812500,-0.0915527344,-0.0762939453
0.4302060604,-0.7358398438,0.0605468750,0.0214843750,-0.4882812500,-0.0915527344,-0.0762939453
0.4327690601,-0.7358398438,0.0605468750,0.0214843750,-0.4882812500,0.1220703125,0.0915527344
0.4353411198,-0.7358398438,0.0605468750,0.0214843750,-0.4577636719,0.1220703125,0.0915527344
0.4381439686,-0.7358398438,0.0605468750,0.0092773438,-0.4577636719,-0.1068115234,0.0915527344
0.4407141209,-0.7343750000,0.0673828125,0.0092773438,-0.7934570312,-0.1068115234,0.0915527344
0.4432830811,-0.7343750000,0.0673828125,0.0092773438,-0.7934570312,-0.1068115234,0.1220703125
0.4458560944,-0.7343750000,0.0673828125,0.0092773438,-0.5187988281,-0.2899169922,0.1220703125
0.4486570358,-0.7343750000,0.0595703125,0.0302734375,-0.5187988281,3.6163330078,0.0305175781
0.4513590336,-0.7416992188,0.0595703125,0.0302734375,-0.8544921875,0.0305175781,0.0305175781
0.4540569782,-0.7416992188,0.0595703125,0.0302734375,-0.8544921875,-3.8757324219,0.1068115234
0.4567611217,-0.7416992188,0.0595703125,0.0302734375,-0.6408691406,-0.0762939453,0.1068115234
0.4593260288,-0.7358398438,0.0629882812,0.0122070312,-0.6408691406,-0.0762939453,0.0610351562
0.4618999958,-0.7358398438,0.0629882812,0.0122070312,-0.1220703125,-0.3356933594,0.0610351562
0.4644689560,-0.7358398438,0.0629882812,0.0122070312,-0.1220703125,-0.3356933594,0.0610351562
0.4671039581,-0.7358398438,0.0629882812,0.0122070312,-0.9307861328,0.0610351562,-0.0762939453
0.4698021412,-0.7368164062,0.0522460938,0.0131835938,-0.9307861328,0.0610351562,-0.0762939453
0.4725050926,-0.7368164062,0.0522460938,0.0131835938,-0.7019042969,0.0000000000,0.2136230469
0.4752039909,-0.7368164062,0.0522460938,0.0131835938,-0.7019042969,0.0000000000,0.2136230469
0.4779419899,-0.7368164062,0.0522460938,0.0131835938,-0.2136230469,0.3051757812,0.4730224609
0.4806439877,-0.7382812500,0.0659179688,0.0131835938,-0.2136230469,0.3051757812,0.4730224609
0.4833431244,-0.7382812500,0.0659179688,0.0131835938,-0.5187988281,-0.1525878906,0.3967285156
0.4860401154,-0.7382812500,0.0659179688,0.0131835938,-0.5187988281,-0.1525878906,0.3967285156
0.4887499809,-0.7382812500,0.0659179688,0.0092773438,-0.7171630859,-0.2899169922,0.2746582031
0.4914481640,-0.7363281250,0.0634765625,0.0092773438,-0.7171630859,-0.2899169922,0.2746582031
0.4941501617,-0.7363281250,0.0634765625,0.0092773438,-0.7476806641,-0.0762939453,0.0152587891
0.4968621731,-0.7363281250,0.0634765625,0.0092773438,-0.7476806641,-0.0762939453,0.0152587891
0.4994320869,-0.7348632812,0.0595703125,0.0214843750,-1.0681152344,-0.0762939453,0.0305175781
0.5021021366,-0.7348632812,0.0595703125,0.0214843750,-1.0681152344,-0.0762939453,0.0305175781
0.5047781467,-0.7348632812,0.0595703125,0.0214843750,-1.1291503906,-0.2441406250,0.0915527344
0.5076000690,-0.7348632812,0.0595703125,0.0214843750,-1.1291503906,-0.2441406250,0.0915527344
0.5103061199,-0.7333984375,0.0556640625,0.0175781250,-1.5869140625,-0.1831054688,0.3814697266
0.5130059719,-0.7333984375,0.0556640625,0.0175781250,-1.5869140625,-0.1831054688,0.3814697266
0.5157001019,-0.7333984375,0.0556640625,0.0175781250,-1.5258789062,0.0457763672,-0.0152587891
0.5184130669,-0.7333984375,0.0556640625,0.0175781250,-1.5258789062,0.0457763672,-0.0152587891
0.5211100578,-0.7397460938,0.0620117188,0.0297851562,-0.8392333984,0.0000000000,-0.0915527344
0.5238130093,-0.7397460938,0.0620117188,0.0297851562,-0.8392333984,0.0000000000,-0.0915527344
0.5265159607,-0.7397460938,0.0620117188,0.0297851562,-1.0833740234,-0.2746582031,-0.1068115234
0.5292251110,-0.7397460938,0.0620117188,0.0307617188,-1.0833740234,-0.2746582031,-0.1068115234
0.5319249630,-0.7382812500,0.0659179688,0.0307617188,-0.7934570312,-0.3662109375,-0.0152587891
0.5346281528,-0.7382812500,0.0659179688,0.0307617188,-0.7934570312,-0.3662109375,-0.0152587891
0.5373201370,-0.7382812500,0.0659179688,0.0307617188,-0.7019042969,-0.2136230469,0.0915527344
0.5398840904,-0.7377929688,0.0664062500,0.0175781250,-0.7019042969,-0.2136230469,0.0915527344
0.5424499512,-0.7377929688,0.0664062500,0.0175781250,-0.4882812500,0.0610351562,-0.3967285156
0.5450129509,-0.7377929688,0.0664062500,0.0175781250,-0.4882812500,0.0610351562,-0.3967285156
0.5475871563,-0.7377929688,0.0664062500,0.0175781250,-0.2746582031,-0.0305175781,-0.2441406250
0.5501520634,-0.7319335938,0.0644531250,0.0180664062,-0.2746582031,-0.0305175781,-0.2441406250
0.5527181625,-0.7319335938,0.0644531250,0.0180664062,-0.3509521484,-0.3356933594,0.0152587891
0.5552899837,-0.7319335938,0.0644531250,0.0180664062,-0.3509521484,-0.3356933594,0.0152587891
0.5580070019,-0.7319335938,0.0644531250,0.0180664062,-0.3509521484,-0.1220703125,-0.0457763672
0.5605771542,-0.7382812500,0.0664062500,0.0229492188,-0.3051757812,-0.1220703125,-0.0457763672
0.5631470680,-0.7382812500,0.0664062500,0.0229492188,-0.3051757812,3.7841796875,-0.0152587891
0.5658149719,-0.7382812500,0.0664062500,0.0229492188,-0.1678466797,0.0305175781,-0.0152587891
0.5684921741,-0.7382812500,0.0664062500,0.0229492188,-0.1678466797,0.0305175781,-0.0915527344
0.5711920261,-0.7280273438,0.0673828125,0.0068359375,0.0152587891,0.1678466797,-0.0915527344
0.5738949776,-0.7280273438,0.0673828125,0.0068359375,0.0152587891,-3.7384033203,-0.2899169922
0.5766010284,-0.7280273438,0.0673828125,0.0068359375,0.8392333984,-0.3662109375,-0.2899169922
0.5793461800,-0.7280273438,0.0673828125,0.0205078125,0.8392333984,-0.3662109375,-0.1831054688
0.5820531845,-0.7368164062,0.0659179688,0.0205078125,0.4425048828,-0.3204345703,-0.1831054688
0.5847551823,-0.7368164062,0.0659179688,0.0205078125,0.4425048828,-0.3204345703,-0.3204345703
0.5874581337,-0.7368164062,0.0659179688,0.0205078125,0.2593994141,-0.2899169922,-0.3204345703
0.5901551247,-0.7368164062,0.0620117188,0.0249023438,0.2593994141,-0.2899169922,-0.4882812500
0.5928521156,-0.7407226562,0.0620117188,0.0249023438,-0.0915527344,-0.3967285156,-0.4882812500
0.5955560207,-0.7407226562,0.0620117188,0.0249023438,-0.0915527344,-0.3967285156,-0.4882812500
0.5982661247,-0.7407226562,0.0620117188,0.0249023438,-0.2746582031,-0.4577636719,-0.4882812500
0.6009640694,-0.7382812500,0.0605468750,0.0131835938,-0.2746582031,-0.4577636719,-0.4425048828
0.6036691666,-0.7382812500,0.0605468750,0.0131835938,-0.0457763672,-0.0915527344,-0.4425048828
0.6063680649,-0.7382812500,0.0605468750,0.0131835938,-0.0457763672,-0.0915527344,-0.1678466797
0.6090810299,-0.7382812500,0.0605468750,0.0131835938,-0.1525878906,0.0305175781,-0.1678466797
0.6117839813,-0.7426757812,0.0698242188,0.0190429688,-0.1525878906,0.0305175781,-0.6103515625
0.6144850254,-0.7426757812,0.0698242188,0.0190429688,-0.2899169922,-0.5187988281,-0.6103515625
0.6171910763,-0.7426757812,0.0698242188,0.0190429688,-0.2899169922,-0.5187988281,-0.8544921875
0.6198861599,-0.7426757812,0.0698242188,0.0224609375,-0.3356933594,-0.0610351562,-0.8544921875
0.6225891113,-0.7402343750,0.0585937500,0.0224609375,-0.3356933594,-0.0610351562,-0.5950927734
0.6253609657,-0.7402343750,0.0585937500,0.0224609375,-0.3967285156,0.6103515625,-0.5950927734
0.6282100677,-0.7402343750,0.0585937500,0.0224609375,-0.3967285156,0.6103515625,-0.5187988281
0.6310219765,-0.7392578125,0.0532226562,0.0283203125,-0.2136230469,0.6866455078,-0.5187988281
0.6337220669,-0.7392578125,0.0532226562,0.0283203125,-0.2136230469,0.6866455078,-0.4577636719
0.6364171505,-0.7392578125,0.0532226562,0.0283203125,-0.2746582031,0.6561279297,-0.4577636719
0.6391639709,-0.7392578125,0.0532226562,0.0283203125,-0.2746582031,0.6561279297,-0.2136230469
0.6418631077,-0.7421875000,0.0493164062,0.0239257812,-0.7019042969,0.4730224609,-0.2136230469
0.6445660591,-0.7421875000,0.0493164062,0.0239257812,-0.7019042969,0.4730224609,0.0915527344
0.6472539902,-0.7421875000,0.0493164062,0.0239257812,-0.6256103516,0.9307861328,0.0915527344
0.6498191357,-0.7421875000,0.0493164062,0.0239257812,-0.6256103516,0.9307861328,-0.1678466797
0.6523849964,-0.7338867188,0.0541992188,0.0268554688,-0.5493164062,0.7324218750,-0.1678466797
0.6549489498,-0.7338867188,0.0541992188,0.0268554688,-0.5493164062,0.7324218750,-0.1678466797
0.6575529575,-0.7338867188,0.0541992188,0.0268554688,-0.3051757812,0.3814697266,-0.1831054688
0.6601171494,-0.7338867188,0.0541992188,0.0268554688,-0.3051757812,0.3814697266,-0.1831054688
0.6626861095,-0.7363281250,0.0507812500,0.0166015625,-0.5645751953,0.3051757812,0.0915527344
0.6652510166,-0.7363281250,0.0507812500,0.0166015625,-0.5645751953,0.3051757812,0.0915527344
0.6678261757,-0.7363281250,0.0507812500,0.0166015625,-0.6866455078,0.2593994141,0.4882812500
0.6703929901,-0.7363281250,0.0507812500,0.0219726562,-0.6866455078,0.2593994141,0.4882812500
0.6729590893,-0.7299804688,0.0517578125,0.0219726562,-0.3967285156,0.0762939453,0.9613037109
0.6755220890,-0.7299804688,0.0517578125,0.0219726562,-0.3967285156,0.0762939453,0.9613037109
0.6782281399,-0.7299804688,0.0517578125,0.0219726562,-0.4577636719,0.0457763672,0.9765625000
0.6807980537,-0.7299804688,0.0541992188,0.0185546875,-0.4577636719,0.0457763672,0.9765625000
0.6833720207,-0.7270507812,0.0541992188,0.0185546875,-0.5187988281,0.0762939453,1.4190673828
0.6859400272,-0.7270507812,0.0541992188,0.0185546875,-0.5187988281,0.0762939453,1.4190673828
0.6886880398,-0.7270507812,0.0541992188,0.0185546875,-0.7019042969,0.1068115234,1.5869140625
0.6913850307,-0.7177734375,0.0517578125,0.0107421875,-0.7019042969,0.1068115234,1.5869140625
0.6941881180,-0.7177734375,0.0517578125,0.0107421875,-0.3051757812,0.2593994141,1.8005371094
0.6968951225,-0.7177734375,0.0517578125,0.0107421875,-0.3051757812,0.2593994141,1.8005371094
0.6994631290,-0.7177734375,0.0517578125,0.0107421875,-0.3051757812,0.1220703125,2.2735595703
0.7020251751,-0.7319335938,0.0483398438,0.0087890625,-0.2441406250,0.1220703125,2.2735595703
0.7045960426,-0.7319335938,0.0483398438,0.0087890625,-0.2441406250,0.1220703125,2.7923583984
0.7071809769,-0.7319335938,0.0483398438,0.0087890625,-0.5798339844,0.5035400391,2.7923583984
0.7098751068,-0.7319335938,0.0483398438,0.0087890625,-0.5798339844,0.5035400391,2.9754638672
0.7125699520,-0.7231445312,0.0610351562,0.0146484375,-0.0305175781,0.2746582031,2.9754638672
0.7152631283,-0.7231445312,0.0610351562,0.0146484375,-0.0305175781,0.2746582031,3.0517578125
0.7179720402,-0.7231445312,0.0610351562,0.0146484375,-0.1068115234,0.1525878906,3.0517578125
0.7206690311,-0.7231445312,0.0610351562,0.0146484375,-0.1068115234,0.1525878906,3.2653808594
0.7233710289,-0.7456054688,0.0541992188,0.0107421875,-0.1525878906,0.2746582031,3.2653808594
0.7260701656,-0.7456054688,0.0541992188,0.0107421875,-0.1525878906,0.2746582031,3.3111572266
0.7287781239,-0.7456054688,0.0541992188,0.0107421875,-0.0305175781,0.0152587891,3.3111572266
0.7314770222,-0.7456054688,0.0449218750,0.0083007812,-0.0305175781,0.0152587891,3.0364990234
0.7341749668,-0.7626953125,0.0449218750,0.0083007812,0.0610351562,0.1525878906,3.0364990234
0.7368831635,-0.7626953125,0.0449218750,0.0083007812,0.0610351562,0.1525878906,3.8757324219
0.7395770550,-0.7626953125,0.0449218750,0.0083007812,-0.2593994141,-0.1678466797,3.8757324219
0.7422730923,-0.7402343750,0.0532226562,0.0195312500,-0.2593994141,-0.1678466797,4.0893554688
0.7451939583,-0.7402343750,0.0532226562,0.0195312500,-1.4190673828,-0.2288818359,4.0893554688
0.7482781410,-0.7402343750,0.0532226562,0.0195312500,-1.4190673828,0.3204345703,4.1198730469
0.7508490086,-0.7402343750,0.0532226562,0.0195312500,-1.9836425781,0.3204345703,4.1198730469
0.7534141541,-0.7387695312,0.0576171875,0.0078125000,-1.9836425781,0.3204345703,4.3792724609
0.7559821606,-0.7387695312,0.0576171875,0.0078125000,-2.5939941406,0.2288818359,4.3792724609
0.7586650848,-0.7387695312,0.0576171875,0.0078125000,-2.5939941406,0.2288818359,4.2877197266
0.7612371445,-0.7387695312,0.0576171875,0.0180664062,-2.8076171875,0.1068115234,4.2877197266
0.7638061047,-0.7329101562,0.0654296875,0.0180664062,-2.8076171875,0.1068115234,4.2877197266
0.7663741112,-0.7329101562,0.0654296875,0.0180664062,-3.1280517578,0.1831054688,4.1656494141
0.7690629959,-0.7329101562,0.0654296875,0.0180664062,-3.1280517578,0.1831054688,4.1656494141
0.7717590332,-0.7329101562,0.0922851562,0.0180664062,-2.7923583984,0.4119873047,3.9367675781
0.7744519711,-0.7226562500,0.0922851562,0.0180664062,-2.7923583984,0.4119873047,3.9367675781
0.7771561146,-0.7226562500,0.0922851562,0.0180664062,-1.9531250000,0.6408691406,3.4484863281
0.7797260284,-0.7226562500,0.0922851562,0.0180664062,-1.9531250000,0.6408691406,3.4484863281
0.7822921276,-0.7358398438,0.0874023438,0.0346679688,-1.1291503906,0.3662109375,3.1738281250
0.7848591805,-0.7358398438,0.0874023438,0.0346679688,-1.1291503906,0.3662109375,3.1738281250
0.7874331474,-0.7358398438,0.0874023438,0.0346679688,-0.6866455078,0.5645751953,2.0751953125
0.7899980545,-0.7358398438,0.0874023438,0.0346679688,-0.6866455078,0.5645751953,2.0751953125
0.7925651073,-0.7631835938,0.0942382812,0.0258789062,-0.5950927734,0.6561279297,1.2359619141
0.7951300144,-0.7631835938,0.0942382812,0.0258789062,-0.5950927734,0.6561279297,1.2359619141
0.7978589535,-0.7631835938,0.0942382812,0.0258789062,-0.6103515625,0.7171630859,0.7781982422
0.8004291058,-0.7631835938,0.0942382812,0.0258789062,-0.6103515625,0.7171630859,0.7781982422
0.8029940128,-0.7412109375,0.0913085938,0.0229492188,3.2958984375,0.6408691406,0.7171630859
0.8055620193,-0.7412109375,0.0913085938,0.0229492188,0.1678466797,0.6408691406,0.7171630859
0.8082730770,-0.7412109375,0.0913085938,0.0229492188,-3.7384033203,0.8850097656,0.4882812500
0.8109710217,-0.7412109375,0.0913085938,0.0229492188,-0.0152587891,0.8850097656,0.4882812500
0.8136730194,-0.7294921875,0.0649414062,0.0141601562,3.8909912109,1.0833740234,0.0457763672
0.8163630962,-0.7294921875,0.0649414062,0.0141601562,0.1220703125,1.0833740234,0.0457763672
0.8190701008,-0.7294921875,0.0649414062,0.0141601562,0.1220703125,0.8392333984,0.3967285156
0.8218729496,-0.7294921875,0.0649414062,0.0141601562,0.6408691406,0.8392333984,0.3967285156
0.8245680332,-0.7392578125,0.0576171875,0.0141601562,0.6408691406,0.7781982422,0.7324218750
0.8272640705,-0.7392578125,0.0576171875,0.0141601562,0.4577636719,0.7781982422,0.7324218750
0.8299620152,-0.7392578125,0.0576171875,0.0141601562,0.4577636719,0.7019042969,1.2359619141
0.8326580524,-0.7392578125,0.0478515625,0.0336914062,0.3356933594,0.7019042969,1.2359619141
0.8353550434,-0.7309570312,0.0478515625,0.0336914062,0.3356933594,1.0070800781,1.9683837891
0.8380579948,-0.7309570312,0.0478515625,0.0336914062,0.1525878906,1.0070800781,1.9683837891
0.8407540321,-0.7309570312,0.0478515625,0.0336914062,0.1525878906,1.0681152344,2.7618408203
0.8434541225,-0.7397460938,0.0327148438,0.0126953125,0.0762939453,1.0681152344,2.7618408203
0.8461501598,-0.7397460938,0.0327148438,0.0126953125,0.0762939453,1.4648437500,4.0588378906
0.8488590717,-0.7397460938,0.0327148438,0.0126953125,0.1525878906,1.4648437500,4.0588378906
0.8515591621,-0.7397460938,0.0327148438,0.0126953125,0.1525878906,1.4648437500,5.2337646484
0.8542549610,-0.7500000000,0.0405273438,0.0209960938,0.3204345703,1.6937255859,5.2337646484
0.8569600582,-0.7500000000,0.0405273438,0.0209960938,0.3204345703,1.6937255859,6.3323974609
0.8596661091,-0.7500000000,0.0405273438,0.0209960938,0.5187988281,1.6937255859,6.3323974609
0.8623650074,-0.7500000000,0.0405273438,0.0151367188,0.5187988281,1.6937255859,7.5531005859
0.8650729656,-0.7373046875,0.0468750000,0.0151367188,0.3662109375,1.6784667969,7.5531005859
0.8678469658,-0.7373046875,0.0468750000,0.0151367188,0.3662109375,1.6784667969,8.9874267578
0.8705580235,-0.7373046875,0.0468750000,0.0151367188,0.6408691406,1.9836425781,8.9874267578
0.8732590675,-0.7324218750,0.0224609375,0.0229492188,0.6408691406,1.9836425781,10.8032226562
0.8759591579,-0.7324218750,0.0224609375,0.0229492188,0.8239746094,1.9531250000,10.8032226562
0.8786690235,-0.7324218750,0.0224609375,0.0229492188,0.8239746094,1.9531250000,13.4429931641
0.8813710213,-0.7324218750,0.0224609375,0.0229492188,-0.0305175781,1.4801025391,13.4429931641
0.8840739727,-0.7436523438,-0.0327148438,0.0263671875,-0.0305175781,1.4801025391,16.3421630859
0.8868930340,-0.7436523438,-0.0327148438,0.0263671875,-2.1362304688,1.5869140625,16.3421630859
0.8906240463,-0.7436523438,-0.0327148438,0.0263671875,-4.1809082031,1.3427734375,19.8669433594
0.8931889534,-0.8686523438,-0.0664062500,0.0170898438,-4.1809082031,1.3427734375,19.8669433594
0.8957550526,-0.7622070312,-0.0664062500,0.0170898438,-6.0882568359,1.2969970703,23.9868164062
0.8984701633,-0.7622070312,-0.0664062500,0.0170898438,-6.0882568359,1.2969970703,23.9868164062
0.9010350704,-0.7622070312,-0.0664062500,0.0170898438,-8.4075927734,1.4953613281,29.1748046875
0.9035940170,-0.7822265625,-0.0639648438,0.0117187500,-8.4075927734,1.4953613281,29.1748046875
0.9061610699,-0.7822265625,-0.0639648438,0.0117187500,-8.4075927734,2.0904541016,34.5764160156
0.9087400436,-0.7822265625,-0.0639648438,0.0117187500,-9.6130371094,2.0904541016,34.5764160156
0.9113070965,-0.7822265625,-0.0639648438,0.0117187500,-9.6130371094,2.0904541016,40.4968261719
0.9138729572,-0.8046875000,-0.0644531250,-0.0180664062,-9.0026855469,2.1667480469,40.4968261719
0.9164381027,-0.8046875000,-0.0644531250,-0.0180664062,-9.0026855469,2.1667480469,48.3093261719
0.9190499783,-0.8046875000,-0.0644531250,-0.0180664062,-7.6141357422,2.1514892578,47.1801757812
0.9216201305,-0.8046875000,-0.0644531250,-0.0180664062,-7.6141357422,2.1514892578,47.1801757812
0.9241850376,-0.7939453125,-0.0683593750,-0.0541992188,-5.6762695312,1.9226074219,53.8024902344
0.9267590046,-0.7939453125,-0.0683593750,-0.0541992188,-5.6762695312,1.9226074219,53.8024902344
0.9293260574,-0.7939453125,-0.0683593750,-0.0541992188,-3.7078857422,1.6937255859,60.9436035156
0.9318940639,-0.7939453125,-0.0683593750,-0.0541992188,-3.7078857422,1.6937255859,60.9436035156
0.9344611168,-0.7763671875,-0.0644531250,-0.0869140625,-2.9602050781,0.0000000000,68.3898925781
0.9372210503,-0.7763671875,-0.0644531250,-0.0869140625,-2.9602050781,0.0000000000,68.3898925781
0.9397981167,-0.7763671875,-0.0644531250,-0.0869140625,-2.5787353516,-2.2888183594,73.5626220703
0.9423689842,-0.7763671875,-0.0644531250,-0.0869140625,-2.5787353516,-2.2888183594,73.5626220703
0.9449450970,-0.7573242188,-0.0146484375,-0.0927734375,-3.1127929688,-4.4403076172,78.4454345703
0.9476821423,-0.7573242188,-0.0146484375,-0.0927734375,-3.1127929688,-4.4403076172,78.4454345703
0.9505021572,-0.7573242188,-0.0146484375,-0.0927734375,-4.0740966797,-6.8511962891,83.4197998047
0.9532070160,-0.7573242188,-0.0146484375,-0.0986328125,-4.0740966797,-6.8511962891,83.4197998047
0.9559111595,-0.7631835938,0.0219726562,-0.0986328125,-5.0354003906,-8.4686279297,87.9974365234
0.9585511684,-0.7631835938,0.0219726562,-0.0986328125,-5.0354003906,-8.4686279297,87.9974365234
0.9611220360,-0.7631835938,0.0219726562,-0.0986328125,-7.7362060547,-10.2691650391,91.8579101562
0.9636960030,-0.7631835938,0.0131835938,-0.0869140625,-7.7362060547,-10.2691650391,91.8579101562
0.9662749767,-0.7646484375,0.0131835938,-0.0869140625,-11.3372802734,-11.4440917969,94.5892333984
0.9689950943,-0.7646484375,0.0131835938,-0.0869140625,-11.3372802734,-11.4440917969,94.5892333984
0.9716999531,-0.7646484375,0.0131835938,-0.0869140625,-15.5334472656,-13.1988525391,96.0540771484
0.9744069576,-0.7241210938,0.0537109375,-0.0668945312,-15.5334472656,-13.1988525391,96.0540771484
0.9771649837,-0.7241210938,0.0537109375,-0.0668945312,-19.9737548828,-13.9465332031,95.9930419922
0.9798741341,-0.7241210938,0.0537109375,-0.0668945312,-19.9737548828,-13.9465332031,95.9930419922
0.9825811386,-0.7241210938,0.0537109375,-0.0668945312,-19.9737548828,-14.9841308594,95.1995849609
0.9852859974,-0.6269531250,0.1328125000,-0.0249023438,-22.7966308594,-14.9841308594,95.1995849609
0.9879591465,-0.6269531250,0.1328125000,-0.0249023438,-26.7028808594,-15.5029296875,93.5821533203
0.9905591011,-0.6269531250,0.1328125000,-0.0249023438,-23.7121582031,-15.5029296875,93.5821533203
0.9931371212,-0.6269531250,0.1328125000,-0.0249023438,-23.7121582031,-15.5029296875,91.9189453125
0.9957079887,-0.5712890625,0.1665039062,-0.0097656250,-23.2696533203,-14.8468017578,91.9189453125
0.9983880520,-0.5712890625,0.1665039062,-0.0097656250,-23.2696533203,-14.8468017578,90.3625488281
1.0010910034,-0.5712890625,0.1665039062,-0.0097656250,-23.8952636719,-13.4887695312,90.3625488281
1.0039191246,-0.5712890625,0.1665039062,0.0180664062,-23.8952636719,-13.4887695312,88.8671875000
1.0070731640,-0.5102539062,0.1352539062,0.0180664062,-26.0620117188,-12.8173828125,88.8671875000
1.0097770691,-0.5102539062,0.1352539062,0.0180664062,-29.9682617188,-13.5040283203,88.5314941406
1.0124750137,-0.5102539062,0.1352539062,0.0180664062,-30.3192138672,-13.5040283203,88.5314941406
1.0152800083,-0.4511718750,0.1865234375,0.1074218750,-34.7290039062,-15.5639648438,88.3178710938
1.0179960728,-0.4511718750,0.1865234375,0.1074218750,-34.7290039062,-15.5639648438,88.3178710938
1.0206940174,-0.4511718750,0.1865234375,0.1074218750,-38.1622314453,-18.2800292969,87.7685546875
1.0233941078,-0.4511718750,0.1865234375,0.1074218750,-38.1622314453,-18.2800292969,87.7685546875
1.0260910988,-0.5288085938,0.2416992188,0.1889648438,-42.0684814453,-19.1955566406,87.4786376953
1.0287799835,-0.5288085938,0.2416992188,0.1889648438,-39.1235351562,-19.1955566406,87.4786376953
1.0314540863,-0.5288085938,0.2416992188,0.1889648438,-35.2172851562,-19.0124511719,87.1734619141
1.0341310501,-0.5288085938,0.2416992188,0.2031250000,-37.8875732422,-19.0124511719,87.1734619141
1.0367970467,-0.6171875000,0.2192382812,0.2031250000,-37.8875732422,-19.6075439453,86.9598388672
1.0394771099,-0.6171875000,0.2192382812,0.2031250000,-36.7584228516,-19.6075439453,86.9598388672
1.0420501232,-0.6171875000,0.2192382812,0.2031250000,-36.7584228516,-19.6075439453,87.0513916016
1.0446231365,-0.6171875000,0.2641601562,0.1660156250,-34.6527099609,-20.4772949219,87.0513916016
1.0472061634,-0.6870117188,0.2641601562,0.1660156250,-34.6527099609,-20.4772949219,87.1276855469
1.0497910976,-0.6870117188,0.2641601562,0.1660156250,-30.4870605469,-21.1944580078,87.1276855469
1.0523669720,-0.6870117188,0.2641601562,0.1660156250,-30.4870605469,-21.1944580078,87.1276855469
1.0549440384,-0.8120117188,0.3081054688,0.0576171875,-23.1933593750,-20.3857421875,86.3494873047
1.0576710701,-0.7524414062,0.3081054688,0.0576171875,-23.1933593750,-20.3857421875,86.3494873047
1.0602531433,-0.7524414062,0.3081054688,0.0576171875,-13.3819580078,-18.8903808594,85.8154296875
1.0628330708,-0.7524414062,0.3081054688,0.0576171875,-13.3819580078,-18.8903808594,85.8154296875
1.0654079914,-0.8041992188,0.2231445312,-0.0239257812,-4.8217773438,-18.2800292969,85.8306884766
1.0681490898,-0.8041992188,0.2231445312,-0.0239257812,-4.8217773438,-18.2800292969,85.8306884766
1.0708601475,-0.8041992188,0.2231445312,-0.0239257812,-0.9918212891,-17.4560546875,86.5020751953
1.0735590458,-0.8041992188,0.2231445312,-0.0239257812,-0.9918212891,-17.4560546875,86.5020751953
1.0762650967,-0.7558593750,-0.0014648438,-0.0839843750,-0.6561279297,-18.5089111328,87.3107910156
1.0790820122,-0.7558593750,-0.0014648438,-0.0839843750,-0.6561279297,-18.5089111328,87.3107910156
1.0817880630,-0.7558593750,-0.0014648438,-0.0839843750,-5.2185058594,-20.7519531250,87.7990722656
1.0844891071,-0.7558593750,-0.0014648438,-0.0502929688,-5.2185058594,-20.7519531250,87.7990722656
1.0871989727,-0.6523437500,0.0244140625,-0.0502929688,-13.6260986328,-24.2919921875,88.5009765625
1.0897750854,-0.6523437500,0.0244140625,-0.0502929688,-13.6260986328,-24.2919921875,88.5009765625
1.0923531055,-0.6523437500,0.0244140625,-0.0502929688,-22.7203369141,-27.4963378906,89.5538330078
1.0949261189,-0.6523437500,0.2695312500,0.0322265625,-22.7203369141,-27.4963378906,89.5538330078
1.0975730419,-0.6787109375,0.2695312500,0.0322265625,-28.3508300781,-28.7017822266,90.5151367188
1.1002850533,-0.6787109375,0.2695312500,0.0322265625,-28.3508300781,-28.7017822266,90.5151367188
1.1029920578,-0.6787109375,0.2695312500,0.0322265625,-30.0598144531,-28.5034179688,89.5233154297
1.1056950092,-0.6718750000,0.4179687500,0.0795898438,-30.0598144531,-28.5034179688,89.5233154297
1.1084201336,-0.6718750000,0.4179687500,0.0795898438,-28.5644531250,-28.7322998047,86.7462158203
1.1111290455,-0.6718750000,0.4179687500,0.0795898438,-28.5644531250,-28.7322998047,86.7462158203
1.1138350964,-0.6718750000,0.4179687500,0.0795898438,-24.5513916016,-28.7933349609,84.3811035156
1.1165411472,-0.6342773438,0.3789062500,0.1064453125,-24.5513916016,-28.7933349609,84.3811035156
1.1192660332,-0.6342773438,0.3789062500,0.1064453125,-20.2026367188,-27.6031494141,82.7789306641
1.1219751835,-0.6342773438,0.3789062500,0.1064453125,-20.2026367188,-27.6031494141,82.7789306641
1.1248991489,-0.6342773438,0.3789062500,0.1562500000,-17.0440673828,-27.4047851562,81.5124511719
1.1280241013,-0.5883789062,0.3208007812,0.1562500000,-17.0440673828,-27.4047851562,81.5124511719
1.1307351589,-0.5883789062,0.3208007812,0.1562500000,-14.6789550781,-27.8167724609,79.9865722656
1.1334440708,-0.5883789062,0.3208007812,0.1562500000,-14.6789550781,-27.8167724609,79.9865722656
1.1361541748,-0.6523437500,0.4833984375,0.2260742188,-13.6718750000,-27.5573730469,77.5756835938
1.1387670040,-0.6523437500,0.4833984375,0.2260742188,-13.6718750000,-27.5573730469,77.5756835938
1.1413409710,-0.6523437500,0.4833984375,0.2260742188,-9.4909667969,-27.3437500000,74.2950439453
1.1439201832,-0.6523437500,0.4833984375,0.2260742188,-9.4909667969,-27.3437500000,74.2950439453
1.1466009617,-0.6171875000,0.4912109375,0.1010742188,-2.3956298828,-27.9846191406,72.0977783203
1.1493489742,-0.6171875000,0.4912109375,0.1010742188,-2.3956298828,-27.9846191406,72.0977783203
1.1520559788,-0.6171875000,0.4912109375,0.1010742188,7.0343017578,-27.9541015625,69.5037841797
1.1547620296,-0.6171875000,0.4912109375,0.1010742188,7.0343017578,-27.9541015625,69.5037841797
1.1574511528,-0.6572265625,0.5146484375,0.0776367188,12.6190185547,-26.5808105469,65.9332275391
1.1600279808,-0.6572265625,0.5146484375,0.0776367188,12.6190185547,-26.5808105469,65.9332275391
1.1626060009,-0.6572265625,0.5146484375,0.0776367188,14.0533447266,-26.0162353516,62.8662109375
1.1651799679,-0.6572265625,0.5146484375,-0.0502929688,14.0533447266,-26.0162353516,62.8662109375
1.1677689552,-0.7529296875,0.4482421875,-0.0502929688,16.8304443359,-25.5889892578,61.7218017578
1.1703419685,-0.7529296875,0.4482421875,-0.0502929688,16.8304443359,-25.5889892578,61.7218017578
1.1729199886,-0.7529296875,0.4482421875,-0.0502929688,16.8304443359,-24.9938964844,62.6525878906
1.1755001545,-0.7529296875,0.4482421875,-0.0322265625,16.8304443359,-24.9938964844,62.6525878906
1.1782319546,-0.6879882812,0.3110351562,-0.0322265625,16.8304443359,-21.0876464844,63.2476806641
1.1808121204,-0.6879882812,0.3110351562,-0.0322265625,12.3748779297,-23.0102539062,63.2476806641
1.1833910942,-0.6879882812,0.3110351562,-0.0322265625,12.3748779297,-23.0102539062,62.2253417969
1.1859650612,-0.6879882812,0.3710937500,0.1103515625,4.0740966797,-21.5454101562,62.2253417969
1.1887149811,-0.7036132812,0.3710937500,0.1103515625,4.0740966797,-21.5454101562,60.8673095703
1.1914250851,-0.7036132812,0.3710937500,0.1103515625,0.0762939453,-20.3399658203,60.8673095703
1.1941311359,-0.7036132812,0.3710937500,0.1103515625,0.0762939453,-20.3399658203,59.7839355469
1.1968450546,-0.5927734375,0.3906250000,0.0922851562,1.8615722656,-21.2402343750,59.7839355469
1.1995520592,-0.5927734375,0.3906250000,0.0922851562,1.8615722656,-21.2402343750,59.0820312500
1.2022590637,-0.5927734375,0.3906250000,0.0922851562,5.8593750000,-22.0336914062,59.0820312500
1.2049610615,-0.5927734375,0.3906250000,0.0922851562,5.8593750000,-22.0336914062,58.3190917969
1.2076771259,-0.5810546875,0.3862304688,0.1445312500,9.1705322266,-20.8435058594,58.3190917969
1.2104899883,-0.5810546875,0.3862304688,0.1445312500,9.1705322266,-20.8435058594,56.0150146484
1.2131969929,-0.5810546875,0.3862304688,0.1445312500,9.0332031250,-19.0734863281,56.0150146484
1.2158970833,-0.5810546875,0.3862304688,0.0996093750,9.0332031250,-19.0734863281,53.7872314453
1.2186160088,-0.6621093750,0.4794921875,0.0996093750,7.3852539062,-18.9971923828,53.7872314453
1.2213170528,-0.6621093750,0.4794921875,0.0996093750,7.3852539062,-18.9971923828,52.2460937500
1.2240240574,-0.6621093750,0.4794921875,0.0996093750,9.9182128906,-18.5546875000,52.2460937500
1.2267260551,-0.5722656250,0.5253906250,0.0727539062,9.9182128906,-18.5546875000,51.3305664062
1.2294371128,-0.5722656250,0.5253906250,0.0727539062,14.6179199219,-17.8375244141,51.3305664062
1.2321469784,-0.5722656250,0.5253906250,0.0727539062,14.6179199219,-17.8375244141,49.7283935547
1.2348611355,-0.5722656250,0.5253906250,0.0727539062,18.7072753906,-16.9677734375,49.7283935547
1.2375869751,-0.6279296875,0.5117187500,0.0942382812,18.7072753906,-16.9677734375,47.1801757812
1.2402930260,-0.6279296875,0.5117187500,0.0942382812,19.3176269531,-15.3808593750,47.1801757812
1.2430660725,-0.6279296875,0.5117187500,0.0942382812,19.3176269531,-15.3808593750,45.0744628906
1.2458090782,-0.6279296875,0.5117187500,0.0942382812,21.1944580078,-13.7786865234,45.0744628906
1.2489609718,-0.6406250000,0.4682617188,0.0913085938,21.1944580078,-13.7786865234,43.0603027344
1.2516691685,-0.6406250000,0.4682617188,0.0913085938,22.2778320312,-12.3138427734,43.0603027344
1.2543790340,-0.6406250000,0.4682617188,0.0913085938,22.2778320312,-8.4075927734,40.6188964844
1.2571260929,-0.6113281250,0.4541015625,0.1035156250,21.8200683594,-10.0402832031,40.6188964844
1.2598330975,-0.6113281250,0.4541015625,0.1035156250,21.8200683594,-10.0402832031,37.6586914062
1.2625429630,-0.6113281250,0.4541015625,0.1035156250,19.9890136719,-8.0413818359,37.6586914062
1.2652499676,-0.6113281250,0.4541015625,0.1035156250,19.9890136719,-4.1351318359,34.1949462891
1.2679631710,-0.5859375000,0.5346679688,0.0917968750,18.5089111328,-7.2479248047,34.1949462891
1.2706689835,-0.5859375000,0.5346679688,0.0917968750,18.5089111328,-11.1541748047,30.0140380859
1.2733790874,-0.5859375000,0.5346679688,0.0917968750,18.6004638672,-8.5144042969,30.0140380859
1.2761940956,-0.5859375000,0.5346679688,0.0917968750,18.6004638672,-8.5144042969,26.2908935547
1.2788481712,-0.5390625000,0.5747070312,0.0683593750,19.1802978516,-10.0860595703,26.2908935547
1.2814290524,-0.5390625000,0.5747070312,0.0683593750,19.1802978516,-10.0860595703,22.5067138672
1.2840020657,-0.5390625000,0.5747070312,0.0683593750,19.6533203125,-12.4664306641,22.5067138672
1.2865781784,-0.5390625000,0.5747070312,0.0815429688,19.6533203125,-12.4664306641,18.6004638672
1.2891671658,-0.5273437500,0.5742187500,0.0815429688,19.1345214844,-14.1906738281,18.3868408203
1.2917430401,-0.5273437500,0.5742187500,0.0815429688,19.1345214844,-14.1906738281,18.3868408203
1.2943201065,-0.5273437500,0.5742187500,0.0815429688,16.5100097656,-16.2506103516,13.5955810547
1.2969760895,-0.5273437500,0.5810546875,0.0869140625,16.5100097656,-16.2506103516,13.5955810547
1.2995631695,-0.4990234375,0.5810546875,0.0869140625,15.3350830078,-17.8985595703,9.2468261719
1.3021399975,-0.4990234375,0.5810546875,0.0869140625,15.3350830078,-17.8985595703,9.2468261719
1.3047130108,-0.4990234375,0.5810546875,0.0869140625,15.5487060547,-19.2260742188,5.0506591797
1.3074581623,-0.6240234375,0.6176757812,0.1030273438,15.5487060547,-19.2260742188,5.0506591797
1.3101651669,-0.5429687500,0.6176757812,0.1030273438,15.7470703125,-18.9361572266,0.8697509766
1.3128731251,-0.5429687500,0.6176757812,0.1030273438,15.7470703125,-18.9361572266,0.8697509766
1.3155870438,-0.5429687500,0.6176757812,0.1030273438,17.4560546875,-17.4560546875,-3.2958984375
1.3183410168,-0.5942382812,0.5893554688,0.0986328125,17.4560546875,-17.4560546875,-3.2958984375
1.3210480213,-0.5942382812,0.5893554688,0.0986328125,19.4549560547,-16.3726806641,-8.1634521484
1.3237531185,-0.5942382812,0.5893554688,0.0986328125,19.4549560547,-16.3726806641,-8.1634521484
1.3264591694,-0.5942382812,0.5893554688,0.0986328125,22.3999023438,-14.9230957031,-12.5732421875
1.3290691376,-0.6752929688,0.5693359375,0.1362304688,22.3999023438,-14.9230957031,-12.5732421875
1.3316481113,-0.6752929688,0.5693359375,0.1362304688,28.6102294922,-11.8560791016,-17.3034667969
1.3342251778,-0.6752929688,0.5693359375,0.1362304688,28.6102294922,-11.8560791016,-17.3034667969
1.3368511200,-0.6752929688,0.5693359375,0.1870117188,33.6151123047,-8.3923339844,-23.1170654297
1.3396601677,-0.7441406250,0.6523437500,0.1870117188,33.6151123047,-8.3923339844,-23.1170654297
1.3423609734,-0.7441406250,0.6523437500,0.1870117188,40.5120849609,-4.4250488281,-29.4189453125
1.3450691700,-0.7441406250,0.6523437500,0.1870117188,40.5120849609,-4.4250488281,-29.4189453125
1.3477871418,-0.7441406250,0.6015625000,0.2495117188,49.3469238281,1.5716552734,-35.4003906250
1.3504970074,-0.7324218750,0.6015625000,0.2495117188,49.3469238281,1.5716552734,-35.4003906250
1.3532011509,-0.7324218750,0.6015625000,0.2495117188,60.0128173828,6.2255859375,-39.2456054688
1.3559081554,-0.7324218750,0.6015625000,0.2495117188,60.0128173828,6.2255859375,-39.2456054688
1.3585510254,-0.6704101562,0.4838867188,0.3168945312,72.3266601562,7.0037841797,-41.8853759766
1.3611261845,-0.6704101562,0.4838867188,0.3168945312,72.3266601562,7.0037841797,-41.8853759766
1.3638150692,-0.6704101562,0.4838867188,0.3168945312,76.5075683594,5.6152343750,-45.3338623047
1.3664040565,-0.6704101562,0.4838867188,0.3168945312,76.5075683594,5.6152343750,-45.3338623047
1.3694341183,-0.6474609375,0.5244140625,0.3032226562,76.6754150391,5.0506591797,-50.2777099609
1.3720099926,-0.6474609375,0.5244140625,0.3032226562,76.6754150391,5.0506591797,-50.2777099609
1.3745830059,-0.6474609375,0.5244140625,0.3032226562,72.7691650391,5.4931640625,-55.8319091797
1.3771829605,-0.6474609375,0.5244140625,0.1782226562,74.0356445312,5.4931640625,-55.8319091797
1.3798880577,-0.6518554688,0.6191406250,0.2368164062,70.1293945312,6.1340332031,-62.7136230469
1.3825919628,-0.6518554688,0.6191406250,0.2368164062,69.5037841797,6.1340332031,-62.7136230469
1.3852989674,-0.6518554688,0.6191406250,0.2368164062,69.5037841797,7.9803466797,-70.0225830078
1.3880171776,-0.6518554688,0.6420898438,0.1396484375,66.8640136719,7.9803466797,-70.0225830078
1.3907289505,-0.6967773438,0.6420898438,0.1396484375,62.9577636719,10.7574462891,-77.5756835938
1.3934381008,-0.6967773438,0.6420898438,0.1396484375,63.9495849609,10.7574462891,-77.5756835938
1.3961491585,-0.6967773438,0.6420898438,0.1396484375,60.0433349609,15.8386230469,-86.1663818359
1.3987619877,-0.8037109375,0.7641601562,0.0629882812,58.9752197266,15.8386230469,-86.1663818359
1.4016070366,-0.8037109375,0.7641601562,0.0629882812,55.4656982422,21.9116210938,-96.7407226562
1.4048891068,-0.8037109375,0.7641601562,0.0629882812,55.4656982422,21.9116210938,-96.7407226562
1.4075620174,-0.8037109375,0.7641601562,0.0629882812,52.6275634766,29.1442871094,-108.3984375000
1.4101340771,-0.9599609375,0.8569335938,0.0014648438,52.6275634766,29.1442871094,-108.3984375000
1.4127099514,-0.9599609375,0.8569335938,0.0014648438,49.0264892578,36.9720458984,-121.8109130859
1.4152810574,-0.9599609375,0.8569335938,0.0014648438,49.0264892578,36.9720458984,-121.8109130859
1.4179091454,-0.9599609375,0.8569335938,0.0058593750,49.0264892578,44.9066162109,-138.0004882812
1.4204850197,-1.1386718750,0.8906250000,0.0058593750,43.5028076172,44.9066162109,-138.0004882812
1.4230580330,-1.1386718750,0.8906250000,0.0058593750,43.5028076172,44.9066162109,-155.4412841797
1.4256379604,-1.1386718750,0.8906250000,0.0058593750,36.2396240234,52.7191162109,-155.4412841797
1.4282701015,-1.1386718750,0.9272460938,-0.0341796875,36.2396240234,52.7191162109,-172.7142333984
1.4308440685,-1.4199218750,0.9272460938,-0.0341796875,30.5938720703,60.0128173828,-172.7142333984
1.4334220886,-1.4199218750,0.9272460938,-0.0341796875,30.5938720703,60.0128173828,-172.7142333984
1.4359941483,-1.4199218750,0.9272460938,-0.0341796875,28.0914306641,67.4743652344,-192.7185058594
1.4385781288,-1.4199218750,0.9882812500,-0.0112304688,28.0914306641,67.4743652344,-192.7185058594
1.4411580563,-1.8569335938,0.9882812500,-0.0112304688,27.4658203125,74.3255615234,-216.3238525391
1.4437301159,-1.8569335938,0.9882812500,-0.0112304688,27.4658203125,74.3255615234,-216.3238525391
1.4463040829,-1.8569335938,0.9882812500,-0.0112304688,27.5115966797,79.8645019531,-240.3869628906
1.4490129948,-2.5327148438,0.8754882812,0.1015625000,27.5115966797,79.8645019531,-240.3869628906
1.4515900612,-2.5327148438,0.8754882812,0.1015625000,27.2216796875,81.4208984375,-265.7775878906
1.4541690350,-2.5327148438,0.8754882812,0.1015625000,27.2216796875,81.4208984375,-265.7775878906
1.4567551613,-2.5327148438,0.8754882812,0.1015625000,25.5126953125,77.8656005859,-294.0521240234
1.4596161842,-3.2778320312,0.2573242188,0.2622070312,25.5126953125,77.8656005859,-294.0521240234
1.4623291492,-3.2778320312,0.2573242188,0.2622070312,25.6042480469,71.7010498047,-327.3468017578
1.4650349617,-3.2778320312,0.2573242188,0.2622070312,25.6042480469,71.7010498047,-327.3468017578
1.4678330421,-3.2778320312,0.2573242188,0.2622070312,26.5960693359,67.7795410156,-366.5161132812
1.4704110622,-3.5292968750,-0.8476562500,0.5166015625,26.5960693359,67.7795410156,-366.5161132812
1.4729850292,-3.5292968750,-0.8476562500,0.5166015625,27.8625488281,56.4270019531,-409.2407226562
1.4755611420,-3.5292968750,-0.8476562500,0.5166015625,27.8625488281,56.4270019531,-409.2407226562
1.4782111645,-3.5292968750,-0.8476562500,0.3916015625,40.2526855469,42.1905517578,-444.6563720703
1.4809150696,-3.4780273438,-1.3330078125,0.4375000000,40.2526855469,42.1905517578,-444.6563720703
1.4836220741,-3.4780273438,-1.3330078125,0.4375000000,29.4952392578,25.4364013672,-460.1135253906
1.4863271713,-3.4780273438,-1.3330078125,0.4375000000,29.4952392578,25.4364013672,-460.1135253906
1.4890470505,-3.4780273438,-0.2138671875,0.7055664062,-20.4162597656,3.8299560547,-431.3659667969
1.4917521477,-3.6347656250,-0.2138671875,0.7055664062,-20.4162597656,3.8299560547,-431.3659667969
1.4944541454,-3.6347656250,-0.2138671875,0.7055664062,-37.1704101562,3.3416748047,-342.5292968750
1.4971740246,-3.6347656250,-0.2138671875,0.7055664062,-37.1704101562,3.3416748047,-342.5292968750
1.4998860359,-1.8647460938,4.3906250000,1.2548828125,-11.6882324219,75.6530761719,-223.2208251953
1.5025961399,-1.8647460938,4.3906250000,1.2548828125,-11.6882324219,75.6530761719,-223.2208251953
1.5053000450,-1.8647460938,4.3906250000,1.2548828125,-14.9841308594,87.5701904297,-114.4714355469
1.5080189705,-1.8647460938,4.3906250000,1.2548828125,-14.9841308594,87.5701904297,-114.4714355469
1.5107231140,2.4062500000,4.8017578125,1.0771484375,62.6831054688,-25.5279541016,-13.9160156250
1.5136201382,2.4062500000,4.8017578125,1.0771484375,62.6831054688,-25.5279541016,-13.9160156250
1.5166721344,2.4062500000,4.8017578125,1.0771484375,122.2991943359,-69.7021484375,90.7440185547
1.5192770958,2.4062500000,-0.8579101562,0.3461914062,122.2991943359,-69.7021484375,90.7440185547
1.5218560696,-0.6767578125,-0.8579101562,0.3461914062,121.9177246094,-31.6009521484,176.0559082031
1.5244350433,-0.6767578125,-0.8579101562,0.3461914062,121.9177246094,-31.6009521484,176.0559082031
1.5270841122,-0.6767578125,-0.8579101562,0.3461914062,125.5798339844,-22.4761962891,233.2763671875
1.5297880173,-1.2734375000,-0.0849609375,-0.6494140625,125.5798339844,-22.4761962891,233.2763671875
1.5326039791,-1.2734375000,-0.0849609375,-0.6494140625,67.8863525391,-17.2424316406,277.4047851562
1.5353171825,-1.2734375000,-0.0849609375,-0.6494140625,67.8863525391,-17.2424316406,277.4047851562
1.5380361080,-1.2734375000,-0.0849609375,-0.6494140625,-10.4522705078,-13.2751464844,308.7768554688
1.5407471657,-0.7661132812,0.6630859375,-0.0488281250,-10.4522705078,-13.2751464844,308.7768554688
1.5434560776,-0.7661132812,0.6630859375,-0.0488281250,-62.2711181641,-24.4598388672,312.7593994141
1.5461690426,-0.7661132812,0.6630859375,-0.0488281250,-62.2711181641,-24.4598388672,312.7593994141
1.5487840176,-0.7661132812,0.6630859375,-0.2988281250,-89.6148681641,-35.5224609375,301.2847900391
1.5513660908,-0.9487304688,-0.5532226562,-0.3613281250,-87.6922607422,-35.5224609375,301.2847900391
1.5539481640,-0.9487304688,-0.5532226562,-0.3613281250,-87.6922607422,-34.7595214844,283.8592529297
1.5565211773,-0.9487304688,-0.5532226562,-0.3613281250,-95.8404541016,-34.7595214844,283.8592529297
1.5591921806,-0.9487304688,-0.5532226562,-0.8686523438,-95.8404541016,-30.8532714844,262.5732421875
1.5617740154,-0.9809570312,-1.1123046875,-0.8686523438,-107.5134277344,-30.1055908203,262.5732421875
1.5643520355,-0.9809570312,-1.1123046875,-0.8686523438,-107.5134277344,-30.1055908203,240.5242919922
1.5670311451,-0.9809570312,-1.1123046875,-0.8686523438,-125.5340576172,-28.0914306641,240.5242919922
1.5697581768,-0.9809570312,-0.4379882812,-0.6923828125,-125.5340576172,-28.0914306641,219.8638916016
1.5724689960,-0.4760742188,-0.4379882812,-0.6923828125,-133.4991455078,-28.0761718750,219.8638916016
1.5751721859,-0.4760742188,-0.4379882812,-0.6923828125,-133.4991455078,-28.0761718750,199.9511718750
1.5779311657,-0.4760742188,-0.4379882812,-0.6923828125,-123.1689453125,-32.1197509766,199.9511718750
1.5806391239,-0.0854492188,-0.2207031250,-0.6206054688,-123.1689453125,-32.1197509766,179.4738769531
1.5833489895,-0.0854492188,-0.2207031250,-0.6206054688,-98.6022949219,-35.7818603516,179.4738769531
1.5860590935,-0.0854492188,-0.2207031250,-0.6206054688,-98.6022949219,-35.7818603516,154.1595458984
1.5887751579,-0.0854492188,-0.2207031250,-0.6206054688,-70.4193115234,-27.1148681641,154.1595458984
1.5914831161,-0.1621093750,-1.1264648438,-0.6850585938,-70.4193115234,-27.1148681641,121.2921142578
1.5941941738,-0.1621093750,-1.1264648438,-0.6850585938,-55.2673339844,-6.8511962891,121.2921142578
1.5970520973,-0.1621093750,-1.1264648438,-0.6850585938,-55.2673339844,-6.8511962891,84.4879150391
1.5996291637,-0.1621093750,-1.1264648438,-0.5854492188,-63.9648437500,11.9171142578,84.4879150391
1.6022040844,0.1337890625,-1.6826171875,-0.5854492188,-63.9648437500,11.9171142578,84.4879150391
1.6047790051,0.1337890625,-1.6826171875,-0.5854492188,-91.8884277344,21.4538574219,47.7600097656
1.6073851585,0.1337890625,-1.6826171875,-0.5854492188,-91.8884277344,21.4538574219,47.7600097656
1.6099610329,0.1337890625,-1.4326171875,-0.4750976562,-123.4436035156,25.3906250000,12.1307373047
1.6125340462,0.6962890625,-1.3984375000,-0.4750976562,-123.4436035156,25.3906250000,12.1307373047
1.6151130199,0.6962890625,-1.3984375000,-0.4750976562,-145.3094482422,27.1759033203,-20.7366943359
1.6177539825,0.6962890625,-1.3984375000,-0.4750976562,-145.3094482422,27.1759033203,-20.7366943359
1.6203279495,0.6962890625,-0.5737304688,-0.1054687500,-152.2674560547,25.2380371094,-51.6510009766
1.6229040623,0.7939453125,-0.5737304688,-0.1054687500,-152.2674560547,25.2380371094,-51.6510009766
1.6255970001,0.7939453125,-0.5737304688,-0.1054687500,-142.7459716797,21.7437744141,-77.6214599609
1.6285500526,0.7939453125,-0.5737304688,-0.1054687500,-142.7459716797,21.7437744141,-77.6214599609
1.6311299801,0.2724609375,0.1743164062,0.0854492188,-118.8659667969,24.1851806641,-95.4132080078
1.6337080002,0.2724609375,0.1743164062,0.0854492188,-118.8659667969,24.1851806641,-95.4132080078
1.6362850666,0.2724609375,0.1743164062,0.0854492188,-82.0617675781,28.4881591797,-101.2420654297
1.6388909817,0.2724609375,0.1743164062,0.0854492188,-82.0617675781,28.4881591797,-101.2420654297
1.6414649487,-0.0517578125,0.3291015625,0.0971679688,-36.9262695312,26.6113281250,-106.5216064453
1.6440429688,-0.0517578125,0.3291015625,0.0971679688,-36.9262695312,26.6113281250,-106.5216064453
1.6466181278,-0.0517578125,0.3291015625,0.0971679688,2.1362304688,27.5573730469,-104.3090820312
1.6492371559,-0.0517578125,0.3291015625,0.0971679688,0.4425048828,27.5573730469,-104.3090820312
1.6518080235,-0.1689453125,0.1948242188,0.0800781250,0.4425048828,23.6511230469,-103.5766601562
1.6543810368,-0.1689453125,0.1948242188,0.0800781250,23.6511230469,25.4058837891,-103.5766601562
1.6569521427,-0.1689453125,0.1948242188,0.0800781250,23.6511230469,25.4058837891,-103.3325195312
1.6596481800,-0.1689453125,0.1948242188,0.0800781250,36.2396240234,22.4761962891,-103.3325195312
1.6622209549,-0.1406250000,0.0620117188,-0.0102539062,36.2396240234,22.4761962891,-99.4262695312
1.6647951603,-0.1406250000,0.0620117188,-0.0102539062,41.5954589844,17.9290771484,-100.4638671875
1.6673879623,-0.1406250000,0.0620117188,-0.0102539062,41.5954589844,17.9290771484,-100.4638671875
1.6699690819,-0.1406250000,0.0620117188,-0.0102539062,45.0134277344,11.6119384766,-95.7946777344
1.6725499630,-0.0971679688,0.0922851562,-0.0209960938,45.0134277344,11.6119384766,-95.7946777344
1.6751341820,-0.0971679688,0.0922851562,-0.0209960938,51.6052246094,5.7983398438,-88.3941650391
1.6778559685,-0.0971679688,0.0922851562,-0.0209960938,51.6052246094,5.7983398438,-88.3941650391
1.6804280281,-0.0971679688,0.0922851562,-0.0390625000,63.5070800781,3.0517578125,-80.1086425781
1.6830091476,-0.0981445312,0.2373046875,-0.0390625000,63.5070800781,3.0517578125,-80.1086425781
1.6855859756,-0.0981445312,0.2373046875,-0.0390625000,77.6672363281,1.8768310547,-71.6705322266
1.6882550716,-0.0981445312,0.2373046875,-0.0390625000,77.6672363281,1.8768310547,-71.6705322266
1.6908311844,-0.0981445312,0.3227539062,-0.0991210938,89.1418457031,0.9765625000,-63.6901855469
1.6934080124,-0.1118164062,0.3227539062,-0.0991210938,89.1418457031,0.9765625000,-63.6901855469
1.6959819794,-0.1118164062,0.3227539062,-0.0991210938,97.3510742188,0.0457763672,-56.7626953125
1.6985681057,-0.1118164062,0.3227539062,-0.0991210938,97.3510742188,0.0457763672,-56.7626953125
1.7011439800,-0.1118164062,0.2768554688,-0.1518554688,105.1635742188,-0.1068115234,-51.1322021484
1.7037200928,-0.1718750000,0.2768554688,-0.1518554688,102.3712158203,-0.1068115234,-51.1322021484
1.7062890530,-0.1718750000,0.2768554688,-0.1518554688,102.3712158203,3.7994384766,-45.3186035156
1.7088999748,-0.1718750000,0.2768554688,-0.1518554688,101.4709472656,0.3051757812,-45.3186035156
1.7114741802,-0.1718750000,0.1489257812,-0.1762695312,101.4709472656,0.3051757812,-39.5812988281
1.7140460014,-0.1840820312,0.1489257812,-0.1762695312,93.9941406250,1.0375976562,-39.5812988281
1.7166149616,-0.1840820312,0.1489257812,-0.1762695312,93.9941406250,1.0375976562,-31.7687988281
1.7192540169,-0.1840820312,0.1489257812,-0.1762695312,81.9244384766,1.9531250000,-33.0810546875
1.7219271660,-0.1323242188,-0.0078125000,-0.1743164062,81.9244384766,1.9531250000,-33.0810546875
1.7245020866,-0.1323242188,-0.0078125000,-0.1743164062,67.2607421875,2.9907226562,-26.5655517578
1.7271251678,-0.1323242188,-0.0078125000,-0.1743164062,67.2607421875,2.9907226562,-26.5655517578
1.7297000885,-0.1323242188,-0.0078125000,-0.1743164062,51.5594482422,4.3334960938,-21.1486816406
1.7322721481,-0.0839843750,-0.0849609375,-0.1660156250,51.5594482422,4.3334960938,-21.1486816406
1.7348430157,-0.0839843750,-0.0849609375,-0.1660156250,36.1633300781,4.9743652344,-17.5323486328
1.7374081612,-0.0839843750,-0.0849609375,-0.1660156250,36.1633300781,4.9743652344,-17.5323486328
1.7399811745,-0.0839843750,-0.0849609375,-0.1660156250,22.8424072266,5.3710937500,-15.4418945312
1.7425601482,-0.0488281250,-0.0268554688,-0.1279296875,22.8424072266,5.3710937500,-15.4418945312
1.7452170849,-0.0488281250,-0.0268554688,-0.1279296875,13.0310058594,6.0882568359,-14.6484375000
1.7481839657,-0.0488281250,-0.0268554688,-0.1279296875,13.0310058594,6.0882568359,-14.6484375000
1.7508909702,-0.0488281250,-0.0268554688,-0.0029296875,7.2021484375,6.3629150391,-15.3045654297
1.7535910606,-0.0229492188,0.0620117188,-0.0908203125,7.2021484375,6.3629150391,-15.3045654297
1.7562911510,-0.0229492188,0.0620117188,-0.0908203125,5.3405761719,6.8511962891,-16.1132812500
1.7589051723,-0.0229492188,0.0620117188,-0.0908203125,5.3405761719,6.8511962891,-16.1132812500
1.7614781857,-0.0229492188,0.0620117188,-0.0463867188,7.6904296875,6.7596435547,-18.1274414062
1.7640450001,-0.0034179688,0.1220703125,-0.0463867188,7.6904296875,6.7596435547,-18.1274414062
1.7666151524,-0.0034179688,0.1220703125,-0.0463867188,12.5732421875,7.0190429688,-20.9350585938
1.7693591118,-0.0034179688,0.1220703125,-0.0463867188,12.5732421875,7.0190429688,-20.9350585938
1.7720680237,-0.0034179688,0.1337890625,0.0009765625,19.2260742188,6.8359375000,-22.7050781250
1.7747759819,-0.0273437500,0.1337890625,0.0009765625,19.2260742188,6.8359375000,-22.7050781250
1.7775051594,-0.0273437500,0.1337890625,0.0009765625,26.3977050781,6.1950683594,-24.4750976562
1.7800731659,-0.0273437500,0.1337890625,0.0009765625,26.3977050781,6.1950683594,-24.4750976562
1.7826499939,-0.0361328125,0.1323242188,0.0322265625,26.3977050781,5.6304931641,-25.2227783203
1.7852270603,-0.0361328125,0.1323242188,0.0322265625,34.1339111328,5.6304931641,-25.2227783203
1.7879130840,-0.0361328125,0.1323242188,0.0322265625,34.1339111328,5.6304931641,-25.0854492188
1.7904951572,-0.0361328125,0.1323242188,0.0322265625,41.7633056641,4.7760009766,-25.0854492188
1.7930691242,-0.0434570312,0.1049804688,0.0727539062,41.7633056641,4.7760009766,-23.8342285156
1.7956480980,-0.0434570312,0.1049804688,0.0727539062,48.6907958984,3.0212402344,-23.8342285156
1.7984089851,-0.0434570312,0.1049804688,0.0727539062,48.6907958984,3.0212402344,-21.3470458984
1.8009841442,-0.0434570312,0.1049804688,0.0727539062,55.5419921875,1.9073486328,-21.3470458984
1.8035600185,-0.0341796875,0.0878906250,0.1108398438,55.5419921875,1.9073486328,-21.3470458984
1.8061370850,-0.0341796875,0.0878906250,0.1108398438,62.7136230469,0.4730224609,-18.0511474609
1.8088879585,-0.0341796875,0.0878906250,0.1108398438,62.7136230469,0.4730224609,-18.0511474609
1.8115930557,-0.0341796875,0.0878906250,0.1357421875,69.5648193359,-1.8768310547,-14.9841308594
1.8141660690,0.0009765625,0.0258789062,0.1357421875,69.5648193359,-1.8768310547,-14.9841308594
1.8167440891,0.0009765625,0.0258789062,0.1357421875,76.2634277344,-4.6539306641,-12.9699707031
1.8194999695,0.0009765625,0.0258789062,0.1357421875,76.2634277344,-4.6539306641,-12.9699707031
1.8229470253,-0.0039062500,-0.0527343750,0.0810546875,82.0770263672,-6.9885253906,-12.6190185547
1.8255310059,-0.0039062500,-0.0527343750,0.0810546875,82.0770263672,-6.9885253906,-12.6190185547
1.8281641006,-0.0039062500,-0.0527343750,0.0810546875,87.3718261719,-8.6364746094,-13.3666992188
1.8307330608,-0.0039062500,-0.0527343750,0.0810546875,87.3718261719,-8.6364746094,-13.3666992188
1.8333110809,-0.0332031250,-0.1635742188,-0.0092773438,90.7745361328,-8.4228515625,-16.2658691406
1.8358809948,-0.0332031250,-0.1635742188,-0.0092773438,90.7745361328,-8.4228515625,-16.2658691406
1.8385150433,-0.0332031250,-0.1635742188,-0.0092773438,90.8355712891,-6.4849853516,-19.9279785156
1.8410940170,-0.0332031250,-0.1635742188,-0.0092773438,90.8355712891,-6.4849853516,-19.9279785156
1.8436629772,-0.0341796875,-0.2543945312,-0.0800781250,86.8377685547,-4.1351318359,-24.5208740234
1.8462400436,-0.0341796875,-0.2543945312,-0.0800781250,86.8377685547,-4.1351318359,-24.5208740234
1.8488521576,-0.0341796875,-0.2543945312,-0.0800781250,78.2623291016,-1.1291503906,-29.4647216797
1.8515479565,-0.0341796875,-0.2543945312,-0.0800781250,78.2623291016,-1.1291503906,-29.4647216797
1.8541281223,-0.0019531250,-0.2939453125,-0.0883789062,65.8721923828,1.5106201172,-34.3475341797
1.8567039967,-0.0019531250,-0.2939453125,-0.0883789062,65.8721923828,1.5106201172,-34.3475341797
1.8592810631,-0.0019531250,-0.2939453125,-0.0883789062,50.9033203125,3.0975341797,-39.0472412109
1.8618550301,-0.0019531250,-0.2939453125,-0.0883789062,50.9033203125,3.0975341797,-39.0472412109
1.8644330502,0.0371093750,-0.2763671875,-0.0419921875,31.3720703125,4.1503906250,-43.6401367188
1.8672370911,0.0371093750,-0.2763671875,-0.0419921875,34.9578857422,4.1503906250,-43.6401367188
1.8698050976,0.0371093750,-0.2763671875,-0.0419921875,23.2391357422,5.1879882812,-48.3551025391
1.8723771572,0.0371093750,-0.2763671875,-0.0375976562,20.6909179688,5.1879882812,-48.3551025391
1.8749501705,0.0366210938,-0.2324218750,-0.0375976562,20.6909179688,5.1879882812,-52.3529052734
1.8776621819,0.0366210938,-0.2324218750,-0.0375976562,8.1787109375,5.5541992188,-52.3529052734
1.8802289963,0.0366210938,-0.2324218750,-0.0375976562,8.1787109375,5.5541992188,-55.7098388672
1.8828001022,0.0366210938,-0.1621093750,-0.0249023438,-2.3345947266,6.6070556641,-55.7098388672
1.8853659630,-0.0087890625,-0.1621093750,-0.0249023438,-2.3345947266,6.6070556641,-55.7098388672
1.8879480362,-0.0087890625,-0.1621093750,-0.0249023438,-11.2609863281,7.8430175781,-58.4716796875
1.8905160427,-0.0087890625,-0.1621093750,-0.0249023438,-11.2609863281,7.8430175781,-58.4716796875
1.8930890560,-0.0087890625,-0.0917968750,-0.0322265625,-20.8435058594,9.1552734375,-60.6994628906
1.8956680298,-0.0576171875,-0.0917968750,-0.0322265625,-20.8435058594,9.1552734375,-60.6994628906
1.8982830048,-0.0576171875,-0.0917968750,-0.0322265625,-31.0058593750,10.4217529297,-62.3931884766
1.9008531570,-0.0576171875,-0.0917968750,-0.0322265625,-31.0058593750,10.4217529297,-62.3931884766
1.9034321308,-0.0864257812,-0.0439453125,-0.0258789062,-40.5731201172,11.3220214844,-63.5223388672
1.9060101509,-0.0864257812,-0.0439453125,-0.0258789062,-40.5731201172,11.3220214844,-63.5223388672
1.9086871147,-0.0864257812,-0.0439453125,-0.0258789062,-50.0488281250,11.5356445312,-63.7664794922
1.9113950729,-0.0864257812,-0.0439453125,-0.0258789062,-50.0488281250,11.5356445312,-63.7664794922
1.9141311646,-0.0878906250,-0.0146484375,-0.0034179688,-57.7850341797,11.8255615234,-63.6444091797
1.9167151451,-0.0878906250,-0.0146484375,-0.0034179688,-57.7850341797,11.8255615234,-63.6444091797
1.9195051193,-0.0878906250,-0.0146484375,-0.0034179688,-62.5457763672,11.4898681641,-63.2324218750
1.9227089882,-0.0878906250,0.0122070312,0.0346679688,-62.5457763672,11.4898681641,-63.2324218750
1.9258980751,-0.1010742188,0.0122070312,0.0346679688,-64.1021728516,10.8489990234,-62.6831054688
1.9285411835,-0.1010742188,0.0122070312,0.0346679688,-64.1021728516,10.8489990234,-62.6831054688
1.9311189651,-0.1010742188,0.0122070312,0.0346679688,-62.8967285156,9.1705322266,-62.2253417969
1.9336850643,-0.1010742188,0.0092773438,0.0244140625,-62.8967285156,9.1705322266,-62.2253417969
1.9362530708,-0.1049804688,0.0092773438,0.0244140625,-59.2498779297,7.4615478516,-61.9506835938
1.9388771057,-0.1049804688,0.0092773438,0.0244140625,-59.2498779297,7.4615478516,-61.9506835938
1.9414470196,-0.1049804688,0.0092773438,0.0244140625,-53.5125732422,6.0272216797,-61.5997314453
1.9440250397,-0.1264648438,0.0161132812,-0.0053710938,-53.5125732422,6.0272216797,-61.5997314453
1.9465930462,-0.1264648438,0.0161132812,-0.0053710938,-47.3327636719,5.2947998047,-61.2640380859
1.9492180347,-0.1264648438,0.0161132812,-0.0053710938,-47.3327636719,5.2947998047,-61.2640380859
1.9517929554,-0.1264648438,0.0161132812,-0.0053710938,-41.4123535156,4.2419433594,-59.9975585938
1.9543631077,-0.1435546875,0.0405273438,0.0410156250,-41.4123535156,4.2419433594,-59.9975585938
1.9569339752,-0.1435546875,0.0405273438,0.0410156250,-33.5998535156,3.4027099609,-58.0596923828
1.9595160484,-0.1435546875,0.0405273438,0.0410156250,-35.0494384766,3.4027099609,-58.0596923828
1.9620821476,-0.1435546875,0.0405273438,0.0410156250,-35.0494384766,3.4027099609,-55.8624267578
1.9646561146,-0.1445312500,0.1157226562,0.0415039062,-28.9764404297,2.8686523438,-55.8624267578
1.9673149586,-0.1445312500,0.1157226562,0.0415039062,-28.9764404297,2.8686523438,-53.4210205078
1.9698960781,-0.1445312500,0.1157226562,0.0415039062,-22.1862792969,3.0517578125,-53.4210205078
1.9724819660,-0.1445312500,0.1157226562,0.0415039062,-22.1862792969,3.0517578125,-49.5147705078
1.9750571251,-0.1484375000,0.1914062500,0.0332031250,-15.3503417969,3.3111572266,-48.3245849609
1.9777810574,-0.1484375000,0.1914062500,0.0332031250,-15.3503417969,3.3111572266,-48.3245849609
1.9803659916,-0.1484375000,0.1914062500,0.0332031250,-7.6446533203,3.7841796875,-41.6717529297
1.9829370975,-0.1484375000,0.1914062500,0.0332031250,-7.6446533203,3.7841796875,-41.6717529297
1.9855129719,-0.1606445312,0.2910156250,0.0810546875,1.4495849609,4.6539306641,-34.2712402344
1.9881789684,-0.1606445312,0.2910156250,0.0810546875,1.4495849609,4.6539306641,-34.2712402344
1.9908709526,-0.1606445312,0.2910156250,0.0810546875,11.9476318359,4.6539306641,-26.0620117188
1.9935669899,-0.1606445312,0.2910156250,0.0703125000,11.9476318359,4.6539306641,-26.0620117188
1.9962530136,-0.1264648438,0.4135742188,0.0703125000,22.9339599609,3.4332275391,-17.9595947266
1.9989509583,-0.1264648438,0.4135742188,0.0703125000,22.9339599609,3.4332275391,-17.9595947266
2.0016479492,-0.1264648438,0.4135742188,0.0703125000,34.3322753906,0.7171630859,-10.6353759766
2.0043380260,-0.0014648438,0.4985351562,0.0385742188,34.3322753906,0.7171630859,-10.6353759766
2.0070929527,-0.1074218750,0.4985351562,0.0385742188,45.3186035156,-3.1585693359,-3.3264160156
2.0097801685,-0.1074218750,0.4985351562,0.0385742188,45.3186035156,-3.1585693359,-3.3264160156
2.0124671459,-0.1074218750,0.4985351562,0.0385742188,55.4809570312,-6.7443847656,4.2877197266
2.0151619911,-0.1064453125,0.5307617188,-0.0214843750,55.4809570312,-6.7443847656,4.2877197266
2.0179140568,-0.1064453125,0.5307617188,-0.0214843750,63.0798339844,-8.0871582031,13.2446289062
2.0206060410,-0.1064453125,0.5307617188,-0.0214843750,63.0798339844,-8.0871582031,13.2446289062
2.0233030319,-0.1064453125,0.5307617188,-0.0214843750,70.0683593750,-9.7503662109,22.3846435547
2.0259990692,-0.5244140625,1.1103515625,-0.5390625000,70.0683593750,-9.7503662109,22.3846435547
2.0287251472,-0.5244140625,1.1103515625,-0.5390625000,92.6666259766,20.1263427734,43.1060791016
2.0313000679,-0.5244140625,1.1103515625,-0.5390625000,92.6666259766,20.1263427734,43.1060791016
2.0340349674,-0.5244140625,1.1103515625,-0.8579101562,92.0104980469,50.9643554688,121.8261718750
2.0366170406,-1.6445312500,9.6718750000,-0.8579101562,92.0104980469,50.9643554688,121.8261718750
2.0397551060,-1.6445312500,9.6718750000,-0.8579101562,40.4357910156,-31.0363769531,296.0357666016
2.0425770283,-1.6445312500,9.6718750000,-0.8579101562,40.4357910156,-31.0363769531,296.0357666016
2.0452890396,-4.7675781250,8.5488281250,2.6157226562,92.3919677734,-81.4361572266,480.9722900391
2.0480079651,-4.7675781250,8.5488281250,2.6157226562,92.3919677734,-81.4361572266,480.9722900391
2.0507190228,-4.7675781250,8.5488281250,2.6157226562,-312.7288818359,40.7867431641,494.1711425781
2.0534210205,-4.7675781250,8.5488281250,2.6157226562,-312.7288818359,40.7867431641,494.1711425781
2.0561251640,-5.9736328125,-11.4956054688,-1.1313476562,-186.8743896484,-80.5969238281,333.4350585938
2.0588490963,-5.9736328125,-11.4956054688,-1.1313476562,-186.8743896484,-80.5969238281,333.4350585938
2.0615551472,-5.9736328125,-11.4956054688,-1.1313476562,48.0346679688,-75.2410888672,248.0621337891
2.0642690659,-5.9736328125,-11.4956054688,0.7534179688,48.0346679688,-75.2410888672,248.0621337891
2.0669791698,-0.2763671875,-7.3510742188,0.7534179688,-77.7130126953,-54.2297363281,189.7430419922
2.0695581436,-0.2763671875,-7.3510742188,0.7534179688,-77.7130126953,-54.2297363281,189.7430419922
2.0721399784,-0.2763671875,-7.3510742188,0.7534179688,97.8546142578,-55.2978515625,111.2823486328
2.0747120380,-0.2763671875,3.7465820312,1.2314453125,97.8546142578,-55.2978515625,111.2823486328
2.0773401260,-2.7480468750,3.7465820312,1.2314453125,-161.5295410156,-103.9123535156,124.4964599609
2.0799219608,-2.7480468750,3.7465820312,1.2314453125,-161.5295410156,-103.9123535156,124.4964599609
2.0824899673,-2.7480468750,3.7465820312,1.2314453125,-382.1868896484,-95.7794189453,219.1619873047
2.0850741863,-9.6230468750,2.6064453125,-1.2729492188,-382.1868896484,-95.7794189453,219.1619873047
2.0878250599,-9.5942382812,2.6064453125,-1.2729492188,-93.9636230469,2.2125244141,234.4665527344
2.0903949738,-9.5942382812,2.6064453125,-1.2729492188,-93.9636230469,2.2125244141,234.4665527344
2.0929720402,-9.5942382812,2.6064453125,-1.2729492188,-93.9636230469,47.1038818359,200.6835937500
2.0955469608,-2.5317382812,-1.3613281250,-0.9184570312,104.4921875000,47.1038818359,200.6835937500
2.0982840061,-2.5317382812,-1.3613281250,-0.9184570312,104.4921875000,32.5927734375,186.0656738281
2.1009900570,-2.5317382812,-1.3613281250,-0.9184570312,64.3615722656,32.5927734375,186.0656738281
2.1036889553,-2.5317382812,-1.3613281250,-0.9184570312,64.3615722656,13.0462646484,185.6536865234
2.1065080166,-0.9897460938,0.6953125000,-0.7275390625,-64.2700195312,13.0462646484,185.6536865234
2.1092259884,-0.9897460938,0.6953125000,-0.7275390625,-64.2700195312,13.1225585938,162.4603271484
2.1119351387,-0.9897460938,0.6953125000,-0.7275390625,-174.2858886719,13.1225585938,162.4603271484
2.1146559715,-0.9897460938,0.6953125000,0.2153320312,-174.2858886719,29.8156738281,118.9575195312
2.1173560619,0.0263671875,1.7407226562,0.2153320312,-192.5506591797,29.8156738281,118.9575195312
2.1199381351,0.0263671875,1.7407226562,0.2153320312,-192.5506591797,25.9094238281,88.5314941406
2.1225149632,0.0263671875,1.7407226562,0.2153320312,-144.4549560547,26.9775390625,88.5314941406
2.1250820160,0.0263671875,1.4907226562,0.9228515625,-144.4549560547,26.9775390625,69.9310302734
2.1277379990,1.3730468750,1.4482421875,0.9228515625,-78.6590576172,3.7841796875,69.9310302734
2.1303989887,1.3730468750,1.4482421875,0.9228515625,-78.6590576172,3.7841796875,42.2821044922
2.1330599785,1.3730468750,1.4482421875,0.9228515625,-22.2167968750,-17.8222656250,42.2821044922
2.1357281208,2.1953125000,1.4858398438,1.0209960938,-22.2167968750,-17.8222656250,-4.5928955078
2.1384019852,2.1953125000,1.4858398438,1.0209960938,35.7513427734,-38.1011962891,-5.4016113281
2.1409790516,2.1953125000,1.4858398438,1.0209960938,35.7513427734,-38.1011962891,-5.4016113281
2.1435501575,2.1953125000,1.4858398438,1.0209960938,78.2318115234,-49.8962402344,-34.3475341797
2.1461241245,-0.1015625000,1.1127929688,-0.0380859375,78.2318115234,-49.8962402344,-34.3475341797
2.1488540173,-0.1015625000,1.1127929688,-0.0380859375,98.9379882812,-47.0733642578,-45.9442138672
2.1515240669,-0.1015625000,1.1127929688,-0.0380859375,98.9379882812,-47.0733642578,-45.9442138672
2.1543741226,-0.1015625000,1.1127929688,-0.0380859375,92.8192138672,-31.9824218750,-55.3741455078
2.1575181484,-1.8901367188,0.4018554688,-0.7416992188,92.8192138672,-31.9824218750,-55.3741455078
2.1600940228,-1.8901367188,0.4018554688,-0.7416992188,64.2242431641,-11.5661621094,-57.2967529297
2.1626770496,-1.8901367188,0.4018554688,-0.7416992188,64.2242431641,-11.5661621094,-57.2967529297
2.1652581692,-1.8901367188,0.4018554688,-0.3671875000,21.1639404297,0.6256103516,-51.4221191406
2.1681270599,-1.9799804688,0.0024414062,-0.3671875000,21.1639404297,0.6256103516,-51.4221191406
2.1709520817,-1.9799804688,0.0024414062,-0.3671875000,-32.9132080078,8.0566406250,-42.6330566406
2.1736640930,-1.9799804688,0.0024414062,-0.3671875000,-32.9132080078,8.0566406250,-42.6330566406
2.1763751507,-0.8989257812,0.2329101562,0.4003906250,-70.1904296875,13.9770507812,-38.6962890625
2.1790909767,-0.8989257812,0.2329101562,0.4003906250,-70.1904296875,13.9770507812,-38.6962890625
2.1818029881,-0.8989257812,0.2329101562,0.4003906250,-74.2340087891,14.9383544922,-39.7796630859
2.1845190525,-0.8989257812,0.2329101562,0.4003906250,-74.2340087891,14.9383544922,-39.7796630859
2.1872310638,-0.4799804688,0.5659179688,0.5590820312,-63.1713867188,14.2364501953,-43.7927246094
2.1898131371,-0.4799804688,0.5659179688,0.5590820312,-63.1713867188,14.2364501953,-43.7927246094
2.1923961639,-0.4799804688,0.5659179688,0.5590820312,-45.5169677734,15.9149169922,-49.0112304688
2.1949760914,-0.4799804688,0.5659179688,0.5590820312,-45.5169677734,15.9149169922,-49.0112304688
2.1975941658,-0.6152343750,0.6918945312,0.2011718750,-24.6124267578,18.9514160156,-56.1523437500
2.2003080845,-0.6152343750,0.6918945312,0.2011718750,-24.6124267578,18.9514160156,-56.1523437500
2.2030160427,-0.6152343750,0.6918945312,0.2011718750,-7.2631835938,22.1557617188,-63.2171630859
2.2057311535,-0.6152343750,0.6918945312,0.0214843750,-7.2631835938,22.1557617188,-63.2171630859
2.2083830833,-0.6328125000,0.5893554688,0.0214843750,2.7008056641,24.8107910156,-68.1610107422
2.2109580040,-0.6328125000,0.5893554688,0.0214843750,2.7008056641,24.8107910156,-68.1610107422
2.2135350704,-0.6328125000,0.5893554688,0.0214843750,8.2397460938,25.7568359375,-71.0144042969
2.2161061764,-0.6328125000,0.4580078125,0.0449218750,8.2397460938,25.7568359375,-71.0144042969
2.2188179493,-0.6791992188,0.4580078125,0.0449218750,10.1623535156,25.7873535156,-71.7926025391
2.2213981152,-0.6791992188,0.4580078125,0.0449218750,10.1623535156,25.7873535156,-71.7926025391
2.2239789963,-0.6791992188,0.4580078125,0.0449218750,9.9029541016,26.1230468750,-70.5566406250
2.2265660763,-0.6791992188,0.3354492188,0.0683593750,9.9029541016,26.1230468750,-70.5566406250
2.2294571400,-0.7324218750,0.3354492188,0.0683593750,12.7868652344,26.2908935547,-68.3593750000
2.2321650982,-0.7324218750,0.3354492188,0.0683593750,12.7868652344,26.2908935547,-68.3593750000
2.2349829674,-0.7324218750,0.3354492188,0.0683593750,18.9056396484,27.0080566406,-67.5506591797
2.2377421856,-0.7646484375,0.2695312500,-0.0078125000,18.9056396484,27.0080566406,-67.5506591797
2.2404530048,-0.7646484375,0.2695312500,-0.0078125000,21.0418701172,26.9165039062,-67.9321289062
2.2431600094,-0.7646484375,0.2695312500,-0.0078125000,21.0418701172,26.9165039062,-67.9321289062
2.2458720207,-0.7646484375,0.2695312500,0.1171875000,15.5181884766,23.0560302734,-68.5577392578
2.2485971451,-0.7348632812,0.0371093750,0.0063476562,15.5181884766,23.0560302734,-68.5577392578
2.2513041496,-0.7348632812,0.0371093750,0.0063476562,4.6844482422,18.7988281250,-68.1915283203
2.2540099621,-0.7348632812,0.0371093750,0.0063476562,4.6844482422,18.7988281250,-68.1915283203
2.2567181587,-0.7348632812,-0.0937500000,0.0449218750,-7.1563720703,16.3879394531,-66.7419433594
2.2593140602,-0.7163085938,-0.0937500000,0.0449218750,-7.1563720703,16.3879394531,-66.7419433594
2.2618961334,-0.7163085938,-0.0937500000,0.0449218750,-18.8751220703,15.3198242188,-65.2008056641
2.2644751072,-0.7163085938,-0.0937500000,0.0449218750,-16.2353515625,15.3198242188,-65.2008056641
2.2671201229,-0.6870117188,0.0249023438,-0.0239257812,-16.2353515625,14.9536132812,-64.8956298828
2.2698299885,-0.6870117188,0.0249023438,-0.0239257812,-16.1743164062,14.9536132812,-64.8956298828
2.2725360394,-0.6870117188,0.0249023438,-0.0239257812,-16.1743164062,14.6942138672,-66.3146972656
2.2752449512,-0.6870117188,0.0249023438,-0.0239257812,-7.0495605469,14.6942138672,-66.3146972656
2.2779669762,-0.7050781250,0.1279296875,-0.1552734375,-7.0495605469,15.4724121094,-69.2901611328
2.2806751728,-0.7050781250,0.1279296875,-0.1552734375,4.6997070312,15.4724121094,-69.2901611328
2.2834501266,-0.7050781250,0.1279296875,-0.1552734375,16.4184570312,15.9301757812,-72.3724365234
2.2861580849,-0.7050781250,0.1279296875,-0.1552734375,17.2424316406,15.9301757812,-72.3724365234
2.2888679504,-0.7084960938,0.2553710938,-0.1738281250,17.2424316406,15.0146484375,-72.7081298828
2.2915761471,-0.7084960938,0.2553710938,-0.1738281250,25.5126953125,15.0146484375,-72.7081298828
2.2942860126,-0.7084960938,0.2553710938,-0.1738281250,25.5126953125,12.4053955078,-68.6645507812
2.2969861031,-0.7084960938,0.3857421875,-0.0932617188,25.2227783203,12.4053955078,-68.6645507812
2.2996730804,-0.6362304688,0.3857421875,-0.0932617188,25.2227783203,8.4991455078,-62.2711181641
2.3022470474,-0.6362304688,0.3857421875,-0.0932617188,18.6462402344,8.2092285156,-62.2711181641
2.3048219681,-0.6362304688,0.3857421875,-0.0932617188,18.6462402344,8.2092285156,-59.8297119141
2.3074350357,-0.5654296875,0.2700195312,-0.0751953125,7.5683593750,5.4626464844,-59.8297119141
2.3101391792,-0.5654296875,0.2700195312,-0.0751953125,7.5683593750,5.4626464844,-59.8297119141
2.3128411770,-0.5654296875,0.2700195312,-0.0751953125,-4.3945312500,6.3323974609,-59.8297119141
2.3155419827,-0.5654296875,0.2700195312,-0.0751953125,-4.3945312500,6.3323974609,-56.8695068359
2.3181929588,-0.4873046875,0.2622070312,-0.0429687500,-11.1999511719,6.0882568359,-56.8695068359
2.3207621574,-0.4873046875,0.2622070312,-0.0429687500,-11.1999511719,6.0882568359,-49.0570068359
2.3234350681,-0.4873046875,0.2622070312,-0.0429687500,-13.3666992188,2.6702880859,-49.9420166016
2.3267209530,-0.4873046875,0.2622070312,0.0039062500,-13.3666992188,-1.2359619141,-43.3197021484
2.3293809891,-0.6152343750,0.2036132812,0.0039062500,-14.2822265625,-0.2441406250,-43.3197021484
2.3319571018,-0.6152343750,0.2036132812,0.0039062500,-14.2822265625,-0.2441406250,-38.9251708984
2.3345279694,-0.6152343750,0.2036132812,0.0039062500,-11.5509033203,-0.5340576172,-38.9251708984
2.3371479511,-0.6152343750,0.0786132812,0.0258789062,-11.5509033203,-0.5340576172,-38.9251708984
2.3397290707,-0.7475585938,0.0434570312,0.0258789062,-6.9122314453,0.1983642578,-36.2091064453
2.3422961235,-0.7475585938,0.0434570312,0.0258789062,-6.9122314453,0.1983642578,-36.2091064453
2.3448569775,-0.7475585938,0.0434570312,0.0258789062,-4.6539306641,0.7171630859,-32.8521728516
2.3474371433,-0.7475585938,-0.0219726562,0.0708007812,-4.6539306641,0.7171630859,-32.8521728516
2.3500051498,-0.7763671875,-0.0219726562,0.0708007812,-4.9591064453,0.7629394531,-29.3731689453
2.3525760174,-0.7763671875,-0.0219726562,0.0708007812,-4.9591064453,0.7629394531,-29.3731689453
2.3551430702,-0.7763671875,-0.0219726562,0.0708007812,-3.4179687500,1.4038085938,-26.6571044922
2.3577599525,-0.7763671875,-0.0102539062,0.0839843750,-3.4179687500,1.4038085938,-26.6571044922
2.3603310585,-0.7548828125,-0.0102539062,0.0839843750,-1.2207031250,2.1972656250,-24.8870849609
2.3630011082,-0.7548828125,-0.0102539062,0.0839843750,-1.2207031250,2.1972656250,-24.8870849609
2.3655669689,-0.7548828125,-0.0102539062,0.0839843750,1.5411376953,3.1585693359,-23.6358642578
2.3682820797,-0.6987304688,0.0190429688,0.0864257812,1.5411376953,3.1585693359,-23.6358642578
2.3708450794,-0.6987304688,0.0190429688,0.0864257812,5.4473876953,4.0740966797,-22.5830078125
2.3734161854,-0.6987304688,0.0190429688,0.0864257812,5.4473876953,4.0740966797,-22.5830078125
2.3759801388,-0.6987304688,0.0190429688,0.0864257812,5.4473876953,4.9285888672,-21.4996337891
2.3786611557,-0.6684570312,0.0776367188,0.0751953125,7.5225830078,4.9285888672,-21.4996337891
2.3812301159,-0.6684570312,0.0776367188,0.0751953125,7.5225830078,4.9285888672,-20.5688476562
2.3837931156,-0.6684570312,0.0776367188,0.0751953125,7.2784423828,5.5236816406,-20.5688476562
2.3863561153,-0.6684570312,0.0776367188,0.0751953125,7.2784423828,5.5236816406,-19.1192626953
2.3889300823,-0.6713867188,0.0898437500,0.0795898438,6.3018798828,5.3100585938,-19.1192626953
2.3914961815,-0.6713867188,0.0898437500,0.0795898438,6.3018798828,5.3100585938,-19.1192626953
2.3940651417,-0.6713867188,0.0898437500,0.0795898438,3.9978027344,5.0659179688,-18.3715820312
2.3966300488,-0.6713867188,0.0898437500,0.0795898438,3.9978027344,5.0659179688,-18.3715820312
2.3992509842,-0.6962890625,0.1025390625,0.0556640625,1.7700195312,5.0506591797,-18.4326171875
2.4018299580,-0.6962890625,0.1025390625,0.0556640625,1.7700195312,5.0506591797,-18.4326171875
2.4044051170,-0.6962890625,0.1025390625,0.0556640625,1.1596679688,5.4016113281,-17.4255371094
2.4069740772,-0.6962890625,0.1025390625,0.0556640625,1.1596679688,5.4016113281,-17.4255371094
2.4095520973,-0.7280273438,0.1713867188,0.0092773438,0.1068115234,6.4086914062,-15.7318115234
2.4121229649,-0.7280273438,0.1713867188,0.0092773438,0.1068115234,6.4086914062,-15.7318115234
2.4146990776,-0.7280273438,0.1713867188,0.0092773438,-0.5493164062,7.0953369141,-13.2446289062
2.4173510075,-0.7280273438,0.1713867188,0.0092773438,-0.5493164062,7.0953369141,-13.2446289062
2.4200551510,-0.7470703125,0.1694335938,-0.0356445312,-1.5258789062,6.8359375000,-11.4593505859
2.4227530956,-0.7470703125,0.1694335938,-0.0356445312,-1.5258789062,6.8359375000,-11.4593505859
2.4255590439,-0.7470703125,0.1694335938,-0.0356445312,-3.3569335938,5.7373046875,-11.1236572266
2.4282670021,-0.7470703125,0.0781250000,-0.0366210938,-3.3569335938,5.7373046875,-11.1236572266
2.4309740067,-0.7597656250,0.0781250000,-0.0366210938,-5.5389404297,4.5013427734,-11.6119384766
2.4337191582,-0.7597656250,0.0781250000,-0.0366210938,-5.5389404297,4.5013427734,-11.6119384766
2.4364271164,-0.7597656250,0.0781250000,-0.0366210938,-6.8511962891,4.2419433594,-11.3525390625
2.4390351772,-0.7568359375,0.1318359375,-0.0737304688,-6.8511962891,4.2419433594,-11.3525390625
2.4416050911,-0.7568359375,0.1318359375,-0.0737304688,-7.7209472656,4.1046142578,-8.8500976562
2.4441709518,-0.7568359375,0.1318359375,-0.0737304688,-7.7209472656,4.1046142578,-8.8500976562
2.4467380047,-0.7568359375,0.1318359375,-0.0737304688,-7.7209472656,3.2958984375,-4.4708251953
2.4494349957,-0.7617187500,0.2973632812,-0.0571289062,-9.8266601562,3.2958984375,-4.4708251953
2.4521391392,-0.7617187500,0.2973632812,-0.0571289062,-9.8266601562,1.8310546875,-0.5798339844
2.4548361301,-0.7617187500,0.2973632812,-0.0571289062,-11.6577148438,1.8310546875,-0.5798339844
2.4575550556,-0.7617187500,0.2973632812,-0.0571289062,-11.6577148438,0.7934570312,0.7934570312
2.4602551460,-0.7519531250,0.2402343750,-0.0371093750,-12.1612548828,0.7934570312,0.7934570312
2.4629559517,-0.7519531250,0.2402343750,-0.0371093750,-12.1612548828,0.2899169922,0.5798339844
2.4656579494,-0.7519531250,0.2402343750,-0.0371093750,-11.1389160156,0.2899169922,0.5798339844
2.4683020115,-0.7519531250,0.2402343750,-0.0273437500,-11.1389160156,-3.6163330078,0.2593994141
2.4708700180,-0.7241210938,0.1733398438,-0.0273437500,-9.2163085938,-0.0762939453,0.2593994141
2.4734361172,-0.7241210938,0.1733398438,-0.0273437500,-9.2163085938,-0.0762939453,0.3051757812
2.4759969711,-0.7241210938,0.1733398438,-0.0273437500,-6.1340332031,-0.5798339844,0.3051757812
2.4786851406,-0.7241210938,0.1733398438,-0.0429687500,-6.1340332031,-0.5798339844,0.3051757812
2.4812490940,-0.7246093750,0.1669921875,-0.0429687500,-3.3569335938,-0.6713867188,0.1068115234
2.4838161469,-0.7246093750,0.1669921875,-0.0429687500,-3.3569335938,-0.6713867188,0.1068115234
2.4863841534,-0.7246093750,0.1669921875,-0.0429687500,-1.4801025391,-1.4953613281,-0.1983642578
2.4890391827,-0.7246093750,0.2319335938,-0.0136718750,-1.4801025391,-1.4953613281,-0.1983642578
2.4917130470,-0.7353515625,0.2319335938,-0.0136718750,0.7781982422,-3.0059814453,-0.2746582031
2.4942791462,-0.7353515625,0.2319335938,-0.0136718750,0.7781982422,-3.0059814453,-0.2746582031
2.4968760014,-0.7353515625,0.2319335938,-0.0136718750,2.8076171875,-3.3111572266,-0.3051757812
2.4995729923,-0.7211914062,0.2631835938,0.0332031250,2.8076171875,-3.3111572266,-0.3051757812
2.5022721291,-0.7211914062,0.2631835938,0.0332031250,5.7678222656,-3.4027099609,-0.3814697266
2.5049700737,-0.7211914062,0.2631835938,0.0332031250,5.7678222656,-3.4027099609,-0.3814697266
2.5076711178,-0.7211914062,0.2631835938,0.0332031250,8.3923339844,-3.1280517578,-1.5869140625
2.5103659630,-0.7226562500,0.2182617188,0.0229492188,8.3923339844,-3.1280517578,-1.5869140625
2.5130610466,-0.7226562500,0.2182617188,0.0229492188,9.6893310547,-2.7618408203,-3.1127929688
2.5157601833,-0.7226562500,0.2182617188,0.0229492188,9.6893310547,-2.7618408203,-3.1127929688
2.5184640884,-0.7226562500,0.2182617188,0.0229492188,10.5285644531,-2.0904541016,-4.2572021484
2.5211629868,-0.7031250000,0.1586914062,0.0083007812,10.5285644531,-2.0904541016,-4.2572021484
2.5238690376,-0.7031250000,0.1586914062,0.0083007812,11.0168457031,-1.5106201172,-5.2032470703
2.5265710354,-0.7031250000,0.1586914062,0.0083007812,11.0168457031,-1.5106201172,-5.2032470703
2.5293550491,-0.7031250000,0.1562500000,0.0092773438,10.9710693359,-1.7089843750,-6.0729980469
2.5319299698,-0.6904296875,0.1562500000,0.0092773438,10.9710693359,-1.7089843750,-6.0729980469
2.5345001221,-0.6904296875,0.1562500000,0.0092773438,9.9639892578,-2.2277832031,-6.8817138672
2.5372710228,-0.6904296875,0.1562500000,0.0092773438,9.9639892578,-2.2277832031,-6.8817138672
2.5399250984,-0.7124023438,0.2490234375,0.0048828125,8.1024169922,-2.3040771484,-6.1950683594
2.5426280499,-0.7124023438,0.2490234375,0.0048828125,8.1024169922,-2.3040771484,-6.1950683594
2.5452921391,-0.7124023438,0.2490234375,0.0048828125,5.5694580078,-2.2277832031,-5.4931640625
2.5481541157,-0.7124023438,0.2490234375,0.0048828125,5.5694580078,-2.2277832031,-5.4931640625
2.5508601665,-0.7363281250,0.2524414062,0.0156250000,4.5471191406,-1.6632080078,-5.2642822266
2.5535559654,-0.7363281250,0.2524414062,0.0156250000,4.5471191406,-1.6632080078,-5.2642822266
2.5563621521,-0.7363281250,0.2524414062,0.0156250000,3.8909912109,-1.1138916016,-5.9356689453
2.5589501858,-0.7363281250,0.2524414062,-0.1093750000,3.8909912109,-1.1138916016,-5.9356689453
2.5615150928,-0.7392578125,0.1342773438,-0.0092773438,2.9449462891,-0.2899169922,-7.2479248047
2.5640900135,-0.7392578125,0.1342773438,-0.0092773438,2.9449462891,-0.2899169922,-7.2479248047
2.5666561127,-0.7392578125,0.1342773438,-0.0092773438,2.9449462891,0.2593994141,-7.7056884766
2.5692660809,-0.7392578125,0.1342773438,-0.0214843750,1.7089843750,0.2593994141,-7.7056884766
2.5718381405,-0.6918945312,0.1240234375,-0.0214843750,1.7089843750,0.2593994141,-8.2397460938
2.5744049549,-0.6918945312,0.1240234375,-0.0214843750,0.4577636719,0.1525878906,-8.2397460938
2.5769751072,-0.6918945312,0.1240234375,-0.0214843750,0.4577636719,0.1525878906,-8.2702636719
2.5795431137,-0.6918945312,0.1240234375,0.0151367188,-0.9002685547,0.1831054688,-8.2702636719
2.5821101665,-0.7065429688,0.1533203125,0.0151367188,-0.9002685547,0.1831054688,-8.2702636719
2.5846819878,-0.7065429688,0.1533203125,0.0151367188,-1.6326904297,0.0915527344,-8.5601806641
2.5872530937,-0.7065429688,0.1533203125,0.0151367188,-1.6326904297,0.0915527344,-8.5601806641
2.5898141861,-0.7065429688,0.1533203125,0.0151367188,-2.1514892578,0.3967285156,-9.2926025391
2.5923759937,-0.7285156250,0.1782226562,0.0151367188,-2.1514892578,0.3967285156,-9.2926025391
2.5949380398,-0.7285156250,0.1782226562,0.0151367188,-1.9531250000,0.9002685547,-9.6588134766
2.5976860523,-0.7285156250,0.1782226562,0.0151367188,-1.9531250000,0.9002685547,-9.6588134766
2.6002490520,-0.7285156250,0.2373046875,0.0258789062,-1.5869140625,0.5340576172,-10.4370117188
2.6028151512,-0.7285156250,0.2373046875,0.0258789062,-1.5869140625,0.5340576172,-10.4370117188
2.6053881645,-0.7285156250,0.2373046875,0.0258789062,0.6103515625,0.2593994141,-11.6577148438
2.6080870628,-0.7285156250,0.2373046875,0.0258789062,0.6103515625,0.2593994141,-11.6577148438
2.6106541157,-0.7294921875,0.2529296875,0.0170898438,3.7689208984,0.1068115234,-13.1225585938
2.6132230759,-0.7294921875,0.2529296875,0.0170898438,3.7689208984,0.1068115234,-13.1225585938
2.6157860756,-0.7294921875,0.2529296875,0.0170898438,6.3018798828,0.6103515625,-15.0756835938
2.6184771061,-0.7294921875,0.2529296875,0.0170898438,6.3018798828,0.6103515625,-15.0756835938
2.6210451126,-0.7377929688,0.2446289062,0.0219726562,10.2081298828,1.1596679688,-16.1743164062
2.6236100197,-0.7377929688,0.2446289062,0.0219726562,8.2244873047,1.1596679688,-16.1743164062
2.6261811256,-0.7377929688,0.2446289062,0.0219726562,8.2244873047,1.1596679688,-16.6320800781
2.6287560463,-0.7377929688,0.2446289062,0.0219726562,9.5367431641,1.2359619141,-16.6320800781
2.6313240528,-0.7348632812,0.2182617188,-0.0004882812,9.5367431641,1.2359619141,-17.4560546875
2.6338911057,-0.7348632812,0.2182617188,-0.0004882812,10.6048583984,0.8544921875,-17.4560546875
2.6364581585,-0.7348632812,0.2182617188,-0.0004882812,10.6048583984,0.8544921875,-17.4560546875
2.6392149925,-0.7348632812,0.2182617188,-0.0004882812,10.6506347656,0.8087158203,-19.1192626953
2.6419250965,-0.7426757812,0.1816406250,-0.0039062500,10.6506347656,0.8087158203,-23.0255126953
2.6446280479,-0.7426757812,0.1816406250,-0.0039062500,9.7656250000,0.9155273438,-20.6146240234
2.6473519802,-0.7426757812,0.1816406250,-0.0039062500,9.7656250000,0.9155273438,-20.6146240234
2.6500601768,-0.7426757812,0.1816406250,-0.0083007812,9.5977783203,0.7781982422,-21.4080810547
2.6527681351,-0.7314453125,0.2221679688,-0.0083007812,9.5977783203,0.7781982422,-21.4080810547
2.6554729939,-0.7314453125,0.2221679688,-0.0083007812,8.9416503906,0.4577636719,-21.6064453125
2.6581361294,-0.7314453125,0.2221679688,-0.0083007812,8.9416503906,0.4577636719,-21.6064453125
2.6607170105,-0.7314453125,0.2304687500,-0.0136718750,7.9193115234,0.0152587891,-21.7437744141
2.6633601189,-0.7285156250,0.2304687500,-0.0136718750,7.9193115234,0.0152587891,-21.7437744141
2.6659519672,-0.7285156250,0.2304687500,-0.0136718750,7.5225830078,-0.0915527344,-22.2625732422
2.6688301563,-0.7285156250,0.2304687500,-0.0136718750,7.5225830078,-0.0915527344,-22.2625732422
2.6715321541,-0.7314453125,0.2285156250,-0.0209960938,8.1329345703,-0.1525878906,-23.0560302734
2.6742320061,-0.7314453125,0.2285156250,-0.0209960938,8.1329345703,-0.1525878906,-23.0560302734
2.6769440174,-0.7314453125,0.2285156250,-0.0209960938,9.2163085938,-0.2288818359,-23.3154296875
2.6796481609,-0.7314453125,0.2285156250,-0.0209960938,9.2163085938,-0.2288818359,-23.3154296875
2.6824641228,-0.7363281250,0.2465820312,-0.0317382812,10.0708007812,-0.9613037109,-22.8729248047
2.6851811409,-0.7363281250,0.2465820312,-0.0317382812,10.0708007812,-0.9613037109,-22.8729248047
2.6879370213,-0.7363281250,0.2465820312,-0.0317382812,10.7116699219,-1.6174316406,-22.5982666016
2.6906530857,-0.7363281250,0.2465820312,-0.0190429688,10.7116699219,-1.6174316406,-22.5982666016
2.6933600903,-0.7377929688,0.2021484375,-0.0190429688,11.9476318359,-1.6784667969,-22.7661132812
2.6960670948,-0.7377929688,0.2021484375,-0.0190429688,11.9476318359,-1.6784667969,-22.7661132812
2.6986830235,-0.7377929688,0.2021484375,-0.0190429688,12.7716064453,-1.6632080078,-23.1628417969
2.7012541294,-0.7377929688,0.1391601562,-0.0263671875,12.7716064453,-1.6632080078,-23.1628417969
2.7038350105,-0.7314453125,0.1391601562,-0.0263671875,14.0228271484,-1.3427734375,-23.4985351562
2.7064080238,-0.7314453125,0.1391601562,-0.0263671875,14.0228271484,-1.3427734375,-23.4985351562
2.7090380192,-0.7314453125,0.1391601562,-0.0263671875,14.5721435547,-1.8310546875,-23.0560302734
2.7116169930,-0.7202148438,0.1386718750,-0.0292968750,14.5721435547,-1.8310546875,-23.0560302734
2.7141959667,-0.7202148438,0.1386718750,-0.0292968750,14.7552490234,-3.0670166016,-21.6674804688
2.7167751789,-0.7202148438,0.1386718750,-0.0292968750,14.7552490234,-3.0670166016,-21.6674804688
2.7193980217,-0.7202148438,0.1386718750,-0.0292968750,14.6331787109,-3.7078857422,-19.7753906250
2.7219719887,-0.7265625000,0.1064453125,-0.0063476562,14.6331787109,-3.7078857422,-19.7753906250
2.7245540619,-0.7265625000,0.1064453125,-0.0063476562,14.6331787109,-4.2419433594,-18.0511474609
2.7272729874,-0.7265625000,0.1064453125,-0.0063476562,14.3280029297,-4.2419433594,-18.0511474609
2.7299799919,-0.7265625000,0.1064453125,-0.0063476562,14.3280029297,-4.3029785156,-16.4794921875
2.7326910496,-0.7255859375,0.0585937500,-0.0083007812,13.5040283203,-4.3029785156,-16.4794921875
2.7353949547,-0.7255859375,0.0585937500,-0.0083007812,13.5040283203,-4.4555664062,-14.4348144531
2.7381570339,-0.7255859375,0.0585937500,-0.0083007812,12.6342773438,-4.4555664062,-14.4348144531
2.7408649921,-0.7255859375,0.0585937500,-0.0126953125,12.6342773438,-4.8980712891,-12.4969482422
2.7435700893,-0.7055664062,-0.0048828125,-0.0126953125,12.3596191406,-4.8980712891,-12.4969482422
2.7464010715,-0.7055664062,-0.0048828125,-0.0126953125,12.0544433594,-5.5236816406,-10.6048583984
2.7491550446,-0.7055664062,-0.0048828125,-0.0126953125,12.0544433594,-5.5236816406,-10.6048583984
2.7518560886,-0.7055664062,-0.0512695312,-0.0131835938,11.5814208984,-6.4392089844,-8.8653564453
2.7545621395,-0.6962890625,-0.0512695312,-0.0131835938,11.5814208984,-6.4392089844,-8.8653564453
2.7572469711,-0.6962890625,-0.0512695312,-0.0131835938,11.5814208984,-7.0953369141,-6.5460205078
2.7598211765,-0.6962890625,-0.0512695312,-0.0131835938,10.9710693359,-7.0953369141,-6.5460205078
2.7623879910,-0.6962890625,-0.0532226562,0.0014648438,10.9710693359,-11.0015869141,-4.2266845703
2.7649641037,-0.6962890625,-0.0532226562,0.0014648438,10.9252929688,-8.3312988281,-4.2266845703
2.7675940990,-0.6962890625,-0.0532226562,0.0014648438,10.9252929688,-8.3312988281,-2.0751953125
2.7702989578,-0.6962890625,-0.0532226562,0.0014648438,10.9710693359,-9.1247558594,-2.0751953125
2.7730050087,-0.7187500000,-0.0424804688,-0.0122070312,10.9710693359,-9.1247558594,0.3051757812
2.7757191658,-0.7187500000,-0.0424804688,-0.0122070312,10.3607177734,-9.5672607422,0.3051757812
2.7784399986,-0.7187500000,-0.0424804688,-0.0122070312,10.3607177734,-9.5672607422,4.0893554688
2.7811470032,-0.7187500000,-0.0424804688,-0.0122070312,10.1928710938,-9.9182128906,4.0893554688
2.7840111256,-0.7304687500,0.0014648438,-0.0278320312,10.1928710938,-9.9182128906,9.4604492188
2.7871510983,-0.7304687500,0.0014648438,-0.0278320312,9.0332031250,-10.2996826172,9.4604492188
2.7898681164,-0.7304687500,0.0014648438,-0.0278320312,5.1269531250,-11.9171142578,14.8315429688
2.7925729752,-0.7695312500,-0.0019531250,-0.0205078125,7.6293945312,-11.9171142578,14.8315429688
2.7952849865,-0.7695312500,-0.0019531250,-0.0205078125,7.6293945312,-12.8631591797,19.2871093750
2.7980060577,-0.7695312500,-0.0019531250,-0.0205078125,6.5155029297,-12.8631591797,19.2871093750
2.8007190228,-0.7695312500,-0.0019531250,-0.0205078125,6.5155029297,-12.9852294922,22.7355957031
2.8034300804,-0.7749023438,-0.0708007812,-0.0249023438,5.0201416016,-12.9852294922,22.7355957031
2.8061361313,-0.7749023438,-0.0708007812,-0.0249023438,1.1138916016,-12.6953125000,25.5432128906
2.8087711334,-0.7749023438,-0.0708007812,-0.0249023438,3.4942626953,-12.6953125000,25.5432128906
2.8114531040,-0.7749023438,-0.0708007812,-0.0249023438,3.4942626953,-12.9089355469,28.5644531250
2.8140251637,-0.7387695312,-0.0971679688,-0.0415039062,2.2277832031,-12.9089355469,28.5644531250
2.8165991306,-0.7387695312,-0.0971679688,-0.0415039062,2.2277832031,-12.9089355469,31.9519042969
2.8192260265,-0.7387695312,-0.0971679688,-0.0415039062,-0.9918212891,-13.5192871094,31.9519042969
2.8217971325,-0.7387695312,-0.0971679688,-0.0458984375,-0.9918212891,-13.5192871094,35.8581542969
2.8243720531,-0.7172851562,-0.0356445312,-0.0458984375,-3.5400390625,-14.0686035156,35.7818603516
2.8269441128,-0.7172851562,-0.0356445312,-0.0458984375,-3.5400390625,-14.0686035156,35.7818603516
2.8295230865,-0.7172851562,-0.0356445312,-0.0458984375,-4.5928955078,-14.9993896484,41.4886474609
2.8321011066,-0.7172851562,0.2143554688,-0.0297851562,-4.5928955078,-14.9993896484,41.4886474609
2.8346750736,-0.7421875000,0.1337890625,-0.0297851562,-5.7525634766,-15.6555175781,49.1180419922
2.8372960091,-0.7421875000,0.1337890625,-0.0297851562,-5.7525634766,-15.6555175781,49.1180419922
2.8398721218,-0.7421875000,0.1337890625,-0.0297851562,-6.7138671875,-15.9301757812,55.3741455078
2.8424429893,-0.7421875000,0.2226562500,-0.0190429688,-6.7138671875,-15.9301757812,55.3741455078
2.8450241089,-0.7880859375,0.2226562500,-0.0190429688,-5.4321289062,-14.6331787109,59.3566894531
2.8477220535,-0.7880859375,0.2226562500,-0.0190429688,-5.4321289062,-14.6331787109,59.3566894531
2.8503000736,-0.7880859375,0.2226562500,-0.0190429688,-4.3792724609,-11.3830566406,61.8743896484
2.8528699875,-0.7880859375,0.1225585938,0.0083007812,-4.3792724609,-11.3830566406,61.8743896484
2.8554410934,-0.7724609375,0.1225585938,0.0083007812,-5.0506591797,-9.0942382812,63.9648437500
2.8580770493,-0.7724609375,0.1225585938,0.0083007812,-5.0506591797,-9.0942382812,63.9648437500
2.8607649803,-0.7724609375,0.1225585938,0.0083007812,-5.8135986328,-8.5296630859,65.8416748047
2.8634591103,-0.6918945312,0.0253906250,0.0581054688,-5.8135986328,-8.5296630859,65.8416748047
2.8661501408,-0.6918945312,0.0253906250,0.0581054688,-7.0495605469,-9.1094970703,68.5424804688
2.8688280582,-0.6918945312,0.0253906250,0.0581054688,-7.0495605469,-9.1094970703,68.5424804688
2.8715181351,-0.6918945312,0.0253906250,0.0581054688,-9.1094970703,-10.2844238281,70.9381103516
2.8745920658,-0.6523437500,-0.0195312500,0.0605468750,-9.1094970703,-10.2844238281,70.9381103516
2.8773620129,-0.6523437500,-0.0195312500,0.0605468750,-11.1541748047,-9.5367431641,73.7457275391
2.8800749779,-0.6523437500,-0.0195312500,0.0605468750,-11.1541748047,-9.5367431641,73.7457275391
2.8827781677,-0.6523437500,0.0678710938,0.0483398438,-13.6566162109,-8.5754394531,77.5451660156
2.8854839802,-0.6435546875,0.0678710938,0.0483398438,-13.6566162109,-8.5754394531,77.5451660156
2.8882060051,-0.6435546875,0.0678710938,0.0483398438,-14.8773193359,-8.0718994141,81.5887451172
2.8909080029,-0.6435546875,0.0678710938,0.0483398438,-14.8773193359,-8.0718994141,81.5887451172
2.8936181068,-0.6528320312,0.1889648438,0.0893554688,-15.9149169922,-8.4381103516,86.0290527344
2.8963220119,-0.6528320312,0.1889648438,0.0893554688,-15.9149169922,-8.4381103516,86.0290527344
2.8989360332,-0.6528320312,0.1889648438,0.0893554688,-17.1356201172,-7.9803466797,89.7216796875
2.9015171528,-0.6528320312,0.1889648438,0.0893554688,-17.1356201172,-7.9803466797,89.7216796875
2.9044070244,-0.6791992188,0.2338867188,0.0917968750,-18.9666748047,-8.3923339844,92.3919677734
2.9073820114,-0.6791992188,0.2338867188,0.0917968750,-18.9666748047,-8.3923339844,92.3919677734
2.9100470543,-0.6791992188,0.2338867188,0.0917968750,-21.0266113281,-9.2620849609,93.8873291016
2.9128601551,-0.6791992188,0.3588867188,0.0405273438,-21.0266113281,-9.2620849609,93.8873291016
2.9155609608,-0.6552734375,0.2641601562,0.0405273438,-19.5159912109,-9.2163085938,94.8333740234
2.9182450771,-0.6552734375,0.2641601562,0.0405273438,-19.5159912109,-9.2163085938,94.8333740234
2.9209201336,-0.6552734375,0.2641601562,0.0405273438,-15.6860351562,-8.7585449219,96.0693359375
2.9236481190,-0.5659179688,0.2397460938,-0.0747070312,-15.6860351562,-8.7585449219,96.0693359375
2.9263541698,-0.5659179688,0.2397460938,-0.0747070312,-11.4593505859,-8.8348388672,97.0001220703
2.9290699959,-0.5659179688,0.2397460938,-0.0747070312,-11.4593505859,-8.8348388672,97.0001220703
2.9317760468,-0.5659179688,0.2397460938,-0.0747070312,-9.1400146484,-9.5062255859,97.9461669922
2.9344811440,-0.5175781250,0.1342773438,-0.1206054688,-9.1400146484,-9.5062255859,97.9461669922
2.9371919632,-0.5175781250,0.1342773438,-0.1206054688,-10.4827880859,-11.7797851562,99.3347167969
2.9398770332,-0.5175781250,0.1342773438,-0.1206054688,-10.4827880859,-11.7797851562,99.3347167969
2.9424519539,-0.5175781250,0.1342773438,-0.1206054688,-16.1132812500,-14.3585205078,101.1199951172
2.9450361729,-0.5561523438,0.0454101562,-0.0449218750,-16.1132812500,-14.3585205078,101.1199951172
2.9476230145,-0.5561523438,0.0454101562,-0.0449218750,-16.1132812500,-17.1051025391,102.8747558594
2.9502079487,-0.5561523438,0.0454101562,-0.0449218750,-25.9094238281,-17.1051025391,102.8747558594
2.9527850151,-0.5561523438,0.0454101562,-0.0449218750,-25.9094238281,-21.0113525391,104.2327880859
2.9553601742,-0.6396484375,0.0976562500,0.0888671875,-37.4450683594,-20.1416015625,104.2327880859
2.9580531120,-0.6396484375,0.0976562500,0.0888671875,-37.4450683594,-20.1416015625,105.7128906250
2.9606289864,-0.6396484375,0.0976562500,0.0888671875,-45.8374023438,-20.9503173828,105.7128906250
2.9632101059,-0.6396484375,0.0976562500,0.1259765625,-45.8374023438,-20.9503173828,105.7128906250
2.9657881260,-0.6933593750,0.3027343750,0.1259765625,-50.0640869141,-21.9421386719,106.8420410156
2.9685230255,-0.6933593750,0.3027343750,0.1259765625,-50.0640869141,-21.9421386719,106.8420410156
2.9712400436,-0.6933593750,0.3027343750,0.1259765625,-49.2706298828,-24.0325927734,106.3995361328
2.9739501476,-0.6933593750,0.4282226562,0.0639648438,-49.2706298828,-24.0325927734,102.4932861328
2.9766550064,-0.6889648438,0.4282226562,0.0639648438,-42.5262451172,-25.9094238281,104.8889160156
2.9793801308,-0.6889648438,0.4282226562,0.0639648438,-42.5262451172,-25.9094238281,104.8889160156
2.9820871353,-0.6889648438,0.4282226562,0.0639648438,-29.9072265625,-25.6195068359,102.5848388672
2.9847970009,-0.7207031250,0.4052734375,0.0234375000,-29.9072265625,-25.6195068359,98.6785888672
2.9875299931,-0.7207031250,0.4052734375,0.0234375000,-16.6931152344,-24.3377685547,99.4567871094
2.9901020527,-0.7207031250,0.4052734375,0.0234375000,-16.6931152344,-24.3377685547,99.4567871094
2.9926860332,-0.7207031250,0.4052734375,0.0234375000,-7.7209472656,-23.5443115234,97.7935791016
2.9952571392,-0.7294921875,0.2377929688,0.0083007812,-7.7209472656,-23.5443115234,97.7935791016
2.9978749752,-0.7294921875,0.2377929688,0.0083007812,-2.3803710938,-23.0865478516,98.9990234375
3.0004580021,-0.7294921875,0.2377929688,0.0083007812,-2.3803710938,-23.0865478516,98.9990234375
3.0031340122,-0.7294921875,0.2377929688,0.0083007812,-0.6866455078,-21.2402343750,100.2655029297
3.0057120323,-0.7270507812,0.2553710938,0.1020507812,-0.6866455078,-21.2402343750,100.2655029297
3.0083930492,-0.7270507812,0.2553710938,0.1020507812,-3.0364990234,-18.3410644531,98.6938476562
3.0110831261,-0.7270507812,0.2553710938,0.1020507812,-3.0364990234,-18.3410644531,98.6938476562
3.0137779713,-0.7270507812,0.2553710938,0.0849609375,-7.5988769531,-18.2495117188,95.0927734375
3.0164611340,-0.6342773438,0.5659179688,0.0849609375,-7.5988769531,-18.2495117188,95.0927734375
3.0192461014,-0.6342773438,0.5659179688,0.0849609375,-6.9732666016,-19.6228027344,92.0104980469
3.0219180584,-0.6342773438,0.5659179688,0.0849609375,-6.9732666016,-19.6228027344,92.0104980469
3.0249321461,-0.5009765625,0.7397460938,0.0097656250,-0.9002685547,-22.6440429688,88.3026123047
3.0277349949,-0.5009765625,0.7397460938,0.0097656250,-0.9002685547,-22.6440429688,88.3026123047
3.0304191113,-0.5009765625,0.7397460938,0.0097656250,7.7667236328,-25.8941650391,84.3963623047
3.0330879688,-0.5009765625,0.7397460938,0.0097656250,7.7667236328,-25.8941650391,84.3963623047
3.0357530117,-0.5610351562,0.5053710938,-0.0561523438,18.5852050781,-26.9470214844,81.3293457031
3.0388970375,-0.5610351562,0.5053710938,-0.0561523438,18.5852050781,-26.9470214844,81.3293457031
3.0414781570,-0.5610351562,0.5053710938,-0.0561523438,23.5443115234,-27.5115966797,79.4982910156
3.0440499783,-0.5610351562,0.5053710938,-0.0600585938,23.5443115234,-27.5115966797,79.4982910156
3.0466260910,-0.7382812500,0.2958984375,-0.0600585938,20.0500488281,-27.4810791016,79.4677734375
3.0493171215,-0.7382812500,0.2958984375,-0.0600585938,20.0500488281,-27.4810791016,79.4677734375
3.0518879890,-0.7382812500,0.2958984375,-0.0600585938,11.7034912109,-27.3895263672,80.7037353516
3.0544610023,-0.7382812500,0.4208984375,0.0283203125,11.7034912109,-27.3895263672,80.7037353516
3.0570981503,-0.6723632812,0.3842773438,0.0283203125,2.9296875000,-27.7252197266,80.8715820312
3.0596661568,-0.6723632812,0.3842773438,0.0283203125,2.9296875000,-27.7252197266,80.8715820312
3.0622429848,-0.6723632812,0.3842773438,0.0283203125,-1.5258789062,-27.5421142578,78.4759521484
3.0648150444,-0.6723632812,0.5834960938,0.1044921875,-1.5258789062,-27.5421142578,78.4759521484
3.0675189495,-0.4633789062,0.5834960938,0.1044921875,-1.5258789062,-28.3355712891,74.7833251953
3.0701000690,-0.4633789062,0.5834960938,0.1044921875,-0.6256103516,-28.3355712891,74.7833251953
3.0726699829,-0.4633789062,0.5834960938,0.1044921875,-0.6256103516,-28.3355712891,70.9686279297
3.0752401352,-0.5131835938,0.5668945312,0.1245117188,5.0811767578,-29.6325683594,70.9686279297
3.0778231621,-0.5131835938,0.5668945312,0.1245117188,5.0811767578,-29.6325683594,67.3828125000
3.0803949833,-0.5131835938,0.5668945312,0.1245117188,10.7574462891,-30.1208496094,67.3828125000
3.0829789639,-0.5131835938,0.5668945312,0.1245117188,10.7574462891,-30.1208496094,63.4765625000
3.0855569839,-0.5000000000,0.4804687500,0.1142578125,13.5498046875,-29.6173095703,65.3839111328
3.0882720947,-0.5000000000,0.4804687500,0.1142578125,13.5498046875,-29.6173095703,65.3839111328
3.0908501148,-0.5000000000,0.4804687500,0.1142578125,15.1214599609,-27.9235839844,64.6514892578
3.0934271812,-0.5000000000,0.4804687500,0.1142578125,15.1214599609,-27.9235839844,64.6514892578
3.0960040092,-0.5957031250,0.5483398438,0.1416015625,10.9710693359,-25.7110595703,61.8286132812
3.0987019539,-0.5957031250,0.5483398438,0.1416015625,10.9710693359,-25.7110595703,61.8286132812
3.1014080048,-0.5957031250,0.5483398438,0.1416015625,7.3852539062,-23.8037109375,57.6324462891
3.1041171551,-0.5957031250,0.5483398438,0.1416015625,7.3852539062,-23.8037109375,57.6324462891
3.1068341732,-0.6215820312,0.5756835938,0.1191406250,7.2326660156,-22.7355957031,54.1534423828
3.1095461845,-0.6215820312,0.5756835938,0.1191406250,7.2326660156,-22.7355957031,54.1534423828
3.1122550964,-0.6215820312,0.5756835938,0.1191406250,9.5977783203,-21.5148925781,51.4068603516
3.1149590015,-0.6215820312,0.5756835938,0.1147460938,9.5977783203,-21.5148925781,51.4068603516
3.1176631451,-0.5839843750,0.5864257812,0.1147460938,10.4370117188,-19.3786621094,48.0651855469
3.1203780174,-0.5839843750,0.5864257812,0.1147460938,10.4370117188,-19.3786621094,48.0651855469
3.1230871677,-0.5839843750,0.5864257812,0.1147460938,10.3149414062,-17.5170898438,44.6624755859
3.1257979870,-0.6464843750,0.5766601562,0.0883789062,10.3149414062,-17.5170898438,44.6624755859
3.1284711361,-0.6464843750,0.5766601562,0.0883789062,10.4522705078,-16.2963867188,41.4428710938
3.1311471462,-0.6464843750,0.5766601562,0.0883789062,10.4522705078,-16.2963867188,41.4428710938
3.1337339878,-0.6464843750,0.5766601562,0.0883789062,11.0168457031,-16.3116455078,38.6810302734
3.1363091469,-0.6005859375,0.5541992188,0.0605468750,11.0168457031,-16.3116455078,38.6810302734
3.1390199661,-0.6005859375,0.5541992188,0.0605468750,10.3759765625,-16.9525146484,35.3698730469
3.1416051388,-0.6005859375,0.5541992188,0.0605468750,10.3759765625,-16.9525146484,35.3698730469
3.1441760063,-0.6005859375,0.5541992188,0.0605468750,10.1470947266,-16.7388916016,32.8369140625
3.1467530727,-0.5634765625,0.5966796875,0.0400390625,10.1470947266,-16.7388916016,32.8369140625
3.1495079994,-0.5634765625,0.5966796875,0.0400390625,9.0332031250,-16.5863037109,30.1208496094
3.1521940231,-0.5634765625,0.5966796875,0.0400390625,9.0332031250,-16.5863037109,30.1208496094
3.1550781727,-0.5634765625,0.5966796875,0.0566406250,7.7209472656,-16.7846679688,26.5655517578
3.1579151154,-0.5380859375,0.5815429688,0.0566406250,7.7209472656,-16.7846679688,26.5655517578
3.1604900360,-0.5380859375,0.5815429688,0.0566406250,6.7596435547,-18.4020996094,22.9034423828
3.1630630493,-0.5380859375,0.5815429688,0.0566406250,6.7596435547,-18.4020996094,22.9034423828
3.1656379700,-0.5380859375,0.5874023438,0.0795898438,6.8511962891,-19.5312500000,19.1955566406
3.1683390141,-0.4863281250,0.5874023438,0.0795898438,6.8511962891,-19.5312500000,19.1955566406
3.1710410118,-0.4863281250,0.5874023438,0.0795898438,6.9427490234,-20.7366943359,15.5487060547
3.1737439632,-0.4863281250,0.5874023438,0.0795898438,6.9427490234,-20.7366943359,15.5487060547
3.1764531136,-0.5029296875,0.6284179688,0.0849609375,6.7138671875,-20.8129882812,11.5356445312
3.1791691780,-0.5029296875,0.6284179688,0.0849609375,6.7138671875,-20.8129882812,11.5356445312
3.1818809509,-0.5029296875,0.6284179688,0.0849609375,6.6986083984,-21.5148925781,6.5002441406
3.1845800877,-0.5029296875,0.6284179688,0.0849609375,6.6986083984,-21.5148925781,6.5002441406
3.1873111725,-0.4677734375,0.6425781250,0.0712890625,6.6986083984,-22.0642089844,1.5258789062
3.1898829937,-0.4677734375,0.6425781250,0.0712890625,7.0343017578,-22.0642089844,1.5258789062
3.1924560070,-0.4677734375,0.6425781250,0.0712890625,7.0343017578,-22.0642089844,-3.2043457031
3.1950170994,-0.4677734375,0.6425781250,0.0712890625,7.0953369141,-22.0489501953,-3.2043457031
3.1977121830,-0.4799804688,0.6420898438,0.0737304688,7.0953369141,-22.0489501953,-8.1939697266
3.2002840042,-0.4799804688,0.6420898438,0.0737304688,7.4920654297,-22.1099853516,-8.1939697266
3.2028610706,-0.4799804688,0.6420898438,0.0737304688,7.4920654297,-22.1099853516,-12.1002197266
3.2054309845,-0.4799804688,0.6420898438,0.0737304688,7.3394775391,-21.4080810547,-13.7176513672
3.2080521584,-0.5263671875,0.6455078125,0.0952148438,7.3394775391,-21.4080810547,-13.7176513672
3.2106330395,-0.5263671875,0.6455078125,0.0952148438,6.4086914062,-21.0113525391,-20.0042724609
3.2132101059,-0.5263671875,0.6455078125,0.0952148438,6.4086914062,-21.0113525391,-20.0042724609
3.2157850266,-0.5263671875,0.6455078125,0.1391601562,7.3699951172,-20.9960937500,-25.9399414062
3.2185821533,-0.5449218750,0.6396484375,0.1391601562,7.3699951172,-20.9960937500,-25.9399414062
3.2212891579,-0.5449218750,0.6396484375,0.1391601562,9.1400146484,-19.8974609375,-32.0129394531
3.2239990234,-0.5449218750,0.6396484375,0.1391601562,9.1400146484,-19.8974609375,-32.0129394531
3.2267031670,-0.5834960938,0.6723632812,0.1723632812,11.6882324219,-17.0288085938,-37.6281738281
3.2294249535,-0.5834960938,0.6723632812,0.1723632812,11.6882324219,-17.0288085938,-37.6281738281
3.2321450710,-0.5834960938,0.6723632812,0.1723632812,12.7563476562,-13.9923095703,-44.3878173828
3.2348470688,-0.5834960938,0.6723632812,0.1723632812,12.7563476562,-13.9923095703,-44.3878173828
3.2375340462,-0.5727539062,0.6005859375,0.2143554688,14.1601562500,-10.3302001953,-52.3223876953
3.2401170731,-0.5727539062,0.6005859375,0.2143554688,14.1601562500,-10.3302001953,-52.3223876953
3.2426919937,-0.5727539062,0.6005859375,0.2143554688,20.5078125000,-6.1950683594,-57.5408935547
3.2453980446,-0.5727539062,0.6005859375,0.2143554688,20.5078125000,-6.1950683594,-57.5408935547
3.2481360435,-0.6157226562,0.5390625000,0.2944335938,28.2440185547,-2.7008056641,-60.6994628906
3.2508041859,-0.6157226562,0.5390625000,0.2944335938,28.2440185547,-2.7008056641,-60.6994628906
3.2537560463,-0.6157226562,0.5390625000,0.2944335938,36.0870361328,-1.3275146484,-64.6667480469
3.2563450336,-0.6157226562,0.6640625000,0.3432617188,36.0870361328,-1.3275146484,-64.6667480469
3.2590050697,-0.5981445312,0.6313476562,0.3432617188,44.7998046875,-1.1444091797,-68.6798095703
3.2616851330,-0.5981445312,0.6313476562,0.3432617188,44.7998046875,-1.1444091797,-68.6798095703
3.2642550468,-0.5981445312,0.6313476562,0.3432617188,56.6864013672,-1.2969970703,-73.0590820312
3.2668581009,-0.5981445312,0.6557617188,0.3178710938,56.6864013672,-1.2969970703,-73.0590820312
3.2694301605,-0.5971679688,0.6557617188,0.3178710938,66.1163330078,-1.2054443359,-76.9958496094
3.2720019817,-0.5971679688,0.6557617188,0.3178710938,66.1163330078,-1.2054443359,-76.9958496094
3.2745661736,-0.5971679688,0.6557617188,0.3178710938,71.7315673828,-1.2359619141,-80.6274414062
3.2771880627,-0.6699218750,0.5693359375,0.2216796875,71.7315673828,-1.2359619141,-80.6274414062
3.2797641754,-0.6699218750,0.5693359375,0.2216796875,75.6378173828,-0.7476806641,-84.5489501953
3.2823340893,-0.6699218750,0.5693359375,0.2216796875,75.1190185547,-0.7476806641,-84.5489501953
3.2849011421,-0.6699218750,0.5693359375,0.2216796875,75.1190185547,3.1585693359,-89.0045166016
3.2875370979,-0.7504882812,0.5859375000,0.1274414062,73.8067626953,0.8850097656,-89.0045166016
3.2901060581,-0.7504882812,0.5859375000,0.1274414062,73.8067626953,0.8850097656,-93.6889648438
3.2926821709,-0.7504882812,0.5859375000,0.1274414062,68.2373046875,2.9907226562,-93.6889648438
3.2952551842,-0.7504882812,0.5859375000,0.1274414062,68.2373046875,2.9907226562,-101.5014648438
3.2978711128,-0.7949218750,0.6323242188,-0.0004882812,62.0727539062,7.1716308594,-99.3194580078
3.3004410267,-0.7949218750,0.6323242188,-0.0004882812,62.0727539062,7.1716308594,-99.3194580078
3.3030121326,-0.7949218750,0.6323242188,-0.0004882812,55.7403564453,12.8936767578,-106.0485839844
3.3055791855,-0.7949218750,0.6323242188,-0.0004882812,55.7403564453,12.8936767578,-106.0485839844
3.3082511425,-0.8984375000,0.6914062500,-0.0869140625,50.1708984375,19.4549560547,-114.3951416016
3.3108210564,-0.8984375000,0.6914062500,-0.0869140625,50.1708984375,19.4549560547,-114.3951416016
3.3133990765,-0.8984375000,0.6914062500,-0.0869140625,44.7082519531,25.8483886719,-123.9166259766
3.3159749508,-0.8984375000,0.6914062500,-0.0869140625,44.7082519531,25.8483886719,-123.9166259766
3.3185529709,-1.0385742188,0.7211914062,-0.0703125000,39.2913818359,32.5469970703,-133.7738037109
3.3211340904,-1.0385742188,0.7211914062,-0.0703125000,39.2913818359,32.5469970703,-133.7738037109
3.3238101006,-1.0385742188,0.7211914062,-0.0703125000,34.8205566406,39.8254394531,-145.2178955078
3.3263800144,-1.0385742188,0.7211914062,-0.0703125000,34.8205566406,39.8254394531,-145.2178955078
3.3290820122,-1.1640625000,0.8217773438,0.0048828125,31.5093994141,46.1120605469,-159.3322753906
