# time_stamp before, Acceleration x, Acceleration y, Acceleration z, Gyro x, Gyro y, Gyro z
0.0000000000,-0.7348632812,0.0649414062,0.0273437500,0.7476806641,-0.3356933594,-0.9918212891
0.0031402111,-0.7333984375,0.0590820312,0.0273437500,0.6713867188,-0.1678466797,-1.0986328125
0.0058391094,-0.7333984375,0.0590820312,0.0273437500,0.6713867188,-0.1678466797,-1.0986328125
0.0084421635,-0.7333984375,0.0590820312,0.0273437500,1.0986328125,-0.3509521484,-0.8392333984
0.0110030174,-0.7309570312,0.0556640625,0.0205078125,1.0986328125,-0.3509521484,-0.8392333984
0.0135622025,-0.7309570312,0.0556640625,0.0205078125,0.7171630859,-0.3356933594,-0.7171630859
0.0161180496,-0.7309570312,0.0556640625,0.0205078125,0.7171630859,-0.3356933594,-0.7171630859
0.0190172195,-0.7309570312,0.0556640625,0.0205078125,0.7171630859,-0.2593994141,-0.8087158203
0.0215911865,-0.7373046875,0.0527343750,0.0180664062,0.7171630859,-0.2593994141,-0.8087158203
0.0241482258,-0.7373046875,0.0527343750,0.0180664062,0.7171630859,-0.1220703125,-0.1983642578
0.0267190933,-0.7373046875,0.0527343750,0.0180664062,0.7171630859,-0.1220703125,-0.1983642578
0.0293171406,-0.7373046875,0.0527343750,0.0180664062,0.1831054688,-0.3356933594,-0.1525878906
0.0318720341,-0.7333984375,0.0634765625,0.0239257812,0.1831054688,-0.3356933594,-0.1525878906
0.0344390869,-0.7333984375,0.0634765625,0.0239257812,0.5798339844,-0.3967285156,-0.5798339844
0.0371370316,-0.7333984375,0.0634765625,0.0239257812,0.5798339844,-0.3967285156,-0.5798339844
0.0398020744,-0.7333984375,0.0634765625,0.0239257812,0.5035400391,-0.4425048828,-0.6713867188
0.0424711704,-0.7412109375,0.0576171875,0.0195312500,0.5035400391,-0.4425048828,-0.6713867188
0.0451350212,-0.7412109375,0.0576171875,0.0195312500,0.7781982422,-0.5493164062,-0.6408691406
0.0478191376,-0.7412109375,0.0576171875,0.0195312500,0.7781982422,-0.5493164062,-0.6408691406
0.0505239964,-0.7412109375,0.0576171875,0.0273437500,0.5645751953,-0.6103515625,-0.5187988281
0.0534009933,-0.7451171875,0.0522460938,0.0273437500,0.5645751953,-0.6103515625,-0.5187988281
0.0561091900,-0.7451171875,0.0522460938,0.0273437500,0.5950927734,-0.2136230469,-0.4577636719
0.0586922169,-0.7451171875,0.0522460938,0.0273437500,0.5950927734,-0.2136230469,-0.4577636719
0.0612621307,-0.7451171875,0.0541992188,0.0219726562,0.5950927734,-0.5187988281,-0.4425048828
0.0638360977,-0.7373046875,0.0541992188,0.0219726562,1.4801025391,-0.5187988281,-0.4425048828
0.0665302277,-0.7373046875,0.0541992188,0.0219726562,1.4801025391,-0.4882812500,-0.4272460938
0.0691041946,-0.7373046875,0.0541992188,0.0219726562,0.6561279297,-0.4882812500,-0.4272460938
0.0716831684,-0.7353515625,0.0576171875,0.0219726562,0.6561279297,-0.4882812500,-0.5035400391
0.0742490292,-0.7353515625,0.0576171875,0.0219726562,0.3814697266,-0.6713867188,-0.5035400391
0.0769991875,-0.7353515625,0.0576171875,0.0219726562,0.3814697266,-0.6713867188,-0.1678466797
0.0796780586,-0.7353515625,0.0576171875,0.0219726562,0.4119873047,-0.3509521484,-0.1678466797
0.0823562145,-0.7382812500,0.0595703125,0.0161132812,0.4119873047,-0.3509521484,-0.1983642578
0.0850391388,-0.7382812500,0.0595703125,0.0161132812,0.2441406250,-0.3509521484,-0.1983642578
0.0877301693,-0.7382812500,0.0595703125,0.0161132812,0.2441406250,-0.3509521484,-0.1220703125
0.0904061794,-0.7382812500,0.0595703125,0.0161132812,-0.3509521484,-0.1983642578,-0.1220703125
0.0930891037,-0.7343750000,0.0595703125,0.0170898438,-0.3509521484,-0.1983642578,-0.2136230469
0.0957670212,-0.7343750000,0.0595703125,0.0170898438,-0.3662109375,-0.1220703125,-0.2136230469
0.0984489918,-0.7343750000,0.0595703125,0.0170898438,-0.3662109375,-0.1220703125,-0.1831054688
0.1012930870,-0.7343750000,0.0639648438,0.0278320312,-0.3662109375,-0.4577636719,-0.1831054688
0.1039881706,-0.7373046875,0.0639648438,0.0278320312,-0.3662109375,-0.4577636719,-0.2441406250
0.1066970825,-0.7373046875,0.0639648438,0.0278320312,0.0152587891,-0.3814697266,-0.2441406250
0.1093962193,-0.7373046875,0.0639648438,0.0278320312,0.0152587891,-0.3814697266,-0.1983642578
0.1120941639,-0.7324218750,0.0664062500,0.0190429688,0.0762939453,-0.2746582031,-0.1983642578
0.1147971153,-0.7324218750,0.0664062500,0.0190429688,0.0762939453,-0.2746582031,0.0152587891
0.1176440716,-0.7324218750,0.0664062500,0.0190429688,-0.1983642578,-0.2746582031,0.0152587891
0.1202170849,-0.7324218750,0.0664062500,0.0190429688,-0.1983642578,-0.2746582031,-3.8909912109
0.1227850914,-0.7285156250,0.0585937500,0.0263671875,-0.0457763672,-0.3967285156,-0.1220703125
0.1253480911,-0.7285156250,0.0585937500,0.0263671875,-0.0457763672,-0.3967285156,-0.1220703125
0.1280050278,-0.7285156250,0.0585937500,0.0263671875,0.9002685547,-0.3814697266,-0.3356933594
0.1307091713,-0.7285156250,0.0585937500,0.0263671875,0.9002685547,-0.3814697266,-0.3356933594
0.1335310936,-0.7382812500,0.0576171875,0.0273437500,0.6408691406,-0.6408691406,-0.3204345703
0.1362252235,-0.7382812500,0.0576171875,0.0273437500,0.6408691406,-0.6408691406,-0.3204345703
0.1389319897,-0.7382812500,0.0576171875,0.0273437500,0.7629394531,-0.3967285156,-0.1220703125
0.1416351795,-0.7382812500,0.0581054688,0.0273437500,0.7629394531,-0.3967285156,-0.1220703125
0.1443371773,-0.7392578125,0.0581054688,0.0273437500,0.8239746094,-0.2746582031,-0.0610351562
0.1470761299,-0.7392578125,0.0581054688,0.0273437500,0.8239746094,-0.2746582031,-0.0610351562
0.1497771740,-0.7392578125,0.0581054688,0.0273437500,0.9002685547,-0.2746582031,0.2746582031
0.1524732113,-0.7353515625,0.0615234375,0.0219726562,0.9002685547,-0.2746582031,0.2746582031
0.1551780701,-0.7353515625,0.0615234375,0.0219726562,0.9765625000,-0.6256103516,-0.0915527344
0.1578841209,-0.7353515625,0.0615234375,0.0219726562,0.9765625000,-0.6256103516,-0.0915527344
0.1605830193,-0.7353515625,0.0615234375,0.0219726562,0.5798339844,-0.7019042969,-0.1373291016
0.1632840633,-0.7382812500,0.0566406250,0.0200195312,0.5798339844,-0.7019042969,-0.1373291016
0.1659841537,-0.7382812500,0.0566406250,0.0200195312,0.1525878906,-0.5645751953,0.0762939453
0.1685822010,-0.7382812500,0.0566406250,0.0200195312,0.1525878906,-0.5645751953,0.0762939453
0.1711511612,-0.7382812500,0.0566406250,0.0200195312,0.4425048828,-0.7171630859,-0.1831054688
0.1737160683,-0.7402343750,0.0644531250,0.0214843750,0.4425048828,-0.7171630859,-0.1831054688
0.1762881279,-0.7402343750,0.0644531250,0.0214843750,0.8850097656,-0.6103515625,-0.3051757812
0.1789870262,-0.7402343750,0.0644531250,0.0214843750,0.8850097656,-0.6103515625,-0.3051757812
0.1816611290,-0.7402343750,0.0644531250,0.0239257812,0.3509521484,-0.3356933594,-0.0457763672
0.1842269897,-0.7304687500,0.0610351562,0.0239257812,0.3509521484,-0.3356933594,-0.0457763672
0.1868360043,-0.7304687500,0.0610351562,0.0239257812,0.2746582031,-0.0762939453,-0.0762939453
0.1895170212,-0.7304687500,0.0610351562,0.0239257812,0.2746582031,-0.0762939453,-0.0762939453
0.1922011375,-0.7304687500,0.0610351562,0.0219726562,-0.0762939453,0.1373291016,0.1068115234
0.1948871613,-0.7363281250,0.0610351562,0.0219726562,-0.0762939453,0.1373291016,0.1068115234
0.1975719929,-0.7363281250,0.0610351562,0.0219726562,-0.5493164062,-0.2746582031,0.2593994141
0.2002770901,-0.7363281250,0.0610351562,0.0219726562,-0.5493164062,-0.2746582031,0.2593994141
0.2029762268,-0.7275390625,0.0634765625,0.0283203125,-0.7019042969,-0.3051757812,0.2746582031
0.2056741714,-0.7275390625,0.0634765625,0.0283203125,-0.7019042969,-0.3051757812,0.2746582031
0.2083821297,-0.7275390625,0.0634765625,0.0283203125,-0.2441406250,-0.1831054688,0.1373291016
0.2110800743,-0.7275390625,0.0634765625,0.0283203125,-0.2441406250,-0.1831054688,0.1373291016
0.2137801647,-0.7363281250,0.0605468750,0.0297851562,0.4425048828,-0.0915527344,-0.1983642578
0.2164871693,-0.7363281250,0.0605468750,0.0297851562,0.4425048828,-0.0915527344,-0.1983642578
0.2191851139,-0.7363281250,0.0605468750,0.0297851562,0.0000000000,-0.3051757812,-0.0152587891
0.2218852043,-0.7363281250,0.0605468750,0.0170898438,0.0000000000,-0.3051757812,-0.0152587891
0.2246980667,-0.7294921875,0.0683593750,0.0170898438,-0.0152587891,-0.4425048828,0.0915527344
0.2274541855,-0.7294921875,0.0683593750,0.0170898438,-0.0152587891,-0.4425048828,0.0915527344
0.2301151752,-0.7294921875,0.0683593750,0.0170898438,-0.3204345703,-0.6713867188,-0.3356933594
0.2328701019,-0.7294921875,0.0576171875,0.0268554688,-0.3204345703,-0.6713867188,-0.3356933594
0.2359240055,-0.7338867188,0.0576171875,0.0268554688,0.0152587891,-0.7476806641,-0.4425048828
0.2386732101,-0.7338867188,0.0576171875,0.0268554688,0.0152587891,-0.7476806641,-0.4425048828
0.2413680553,-0.7338867188,0.0576171875,0.0268554688,0.0457763672,-0.1373291016,-0.1983642578
0.2440640926,-0.7343750000,0.0556640625,0.0239257812,0.0457763672,-0.1373291016,-0.1983642578
0.2468810081,-0.7343750000,0.0556640625,0.0239257812,0.1373291016,0.3051757812,-0.0457763672
0.2495830059,-0.7343750000,0.0556640625,0.0239257812,0.1373291016,0.3051757812,-0.0457763672
0.2522811890,-0.7343750000,0.0556640625,0.0239257812,-0.0915527344,0.2441406250,-0.2746582031
0.2549850941,-0.7368164062,0.0664062500,0.0239257812,-0.0915527344,0.2441406250,-0.2746582031
0.2576930523,-0.7368164062,0.0664062500,0.0239257812,-0.0305175781,-0.0305175781,-0.2441406250
0.2603940964,-0.7368164062,0.0664062500,0.0239257812,-0.0305175781,-0.0305175781,-0.2441406250
0.2631001472,-0.7368164062,0.0644531250,0.0224609375,0.1678466797,-0.2899169922,-0.2441406250
0.2658050060,-0.7353515625,0.0644531250,0.0224609375,0.1678466797,-0.2899169922,-0.2441406250
0.2684152126,-0.7353515625,0.0644531250,0.0224609375,0.0762939453,0.0762939453,-0.2136230469
0.2709882259,-0.7353515625,0.0644531250,0.0224609375,0.0762939453,0.0762939453,-0.2136230469
0.2735571861,-0.7407226562,0.0673828125,0.0214843750,-3.8299560547,0.3204345703,-0.2746582031
0.2761251926,-0.7407226562,0.0673828125,0.0214843750,-0.1983642578,0.3204345703,-0.2746582031
0.2787361145,-0.7407226562,0.0673828125,0.0214843750,-0.1983642578,-0.0915527344,-0.3509521484
0.2813010216,-0.7407226562,0.0673828125,0.0214843750,0.0457763672,-0.0915527344,-0.3509521484
0.2838690281,-0.7324218750,0.0620117188,0.0219726562,0.0457763672,-0.0915527344,-0.2136230469
0.2865111828,-0.7324218750,0.0620117188,0.0219726562,0.0610351562,-0.2899169922,-0.2136230469
0.2892160416,-0.7324218750,0.0620117188,0.0219726562,0.0610351562,-0.2899169922,0.0610351562
0.2919161320,-0.7324218750,0.0620117188,0.0219726562,0.1983642578,0.0915527344,0.0610351562
0.2946140766,-0.7348632812,0.0571289062,0.0200195312,0.1983642578,0.0915527344,0.2593994141
0.2973260880,-0.7348632812,0.0571289062,0.0200195312,-0.0762939453,0.0457763672,0.2593994141
0.3000221252,-0.7348632812,0.0571289062,0.0200195312,-0.0762939453,0.0457763672,0.1983642578
0.3027200699,-0.7348632812,0.0571289062,0.0253906250,-0.0152587891,-0.2593994141,0.1983642578
0.3054220676,-0.7373046875,0.0625000000,0.0253906250,-0.0152587891,-0.2593994141,-0.0152587891
0.3081381321,-0.7373046875,0.0625000000,0.0253906250,-0.1373291016,-0.0762939453,-0.0152587891
0.3109440804,-0.7373046875,0.0625000000,0.0253906250,-0.1373291016,-0.0762939453,-0.1068115234
0.3136501312,-0.7343750000,0.0629882812,0.0180664062,-0.1068115234,0.0915527344,-0.1068115234
0.3163909912,-0.7343750000,0.0629882812,0.0180664062,-0.1068115234,0.0915527344,-0.2746582031
0.3189661503,-0.7343750000,0.0629882812,0.0180664062,0.1220703125,-0.0305175781,-0.2746582031
0.3215301037,-0.7343750000,0.0629882812,0.0180664062,0.1220703125,-0.0305175781,-0.2746582031
0.3240971565,-0.7304687500,0.0659179688,0.0234375000,0.2593994141,-0.4119873047,0.1831054688
0.3267221451,-0.7304687500,0.0659179688,0.0234375000,0.2593994141,-0.4119873047,0.1831054688
0.3294150829,-0.7304687500,0.0659179688,0.0234375000,0.6713867188,-0.3509521484,-0.0915527344
0.3321142197,-0.7304687500,0.0659179688,0.0234375000,0.6713867188,-0.3509521484,-0.0915527344
0.3348221779,-0.7314453125,0.0566406250,0.0224609375,0.5493164062,-0.2746582031,-0.3051757812
0.3375329971,-0.7314453125,0.0566406250,0.0224609375,0.5493164062,-0.2746582031,-0.3051757812
0.3402330875,-0.7314453125,0.0566406250,0.0224609375,0.6561279297,-0.0610351562,0.1220703125
0.3431701660,-0.7314453125,0.0566406250,0.0180664062,0.6561279297,-0.0610351562,0.1220703125
0.3458540440,-0.7353515625,0.0581054688,0.0180664062,0.4272460938,-0.1983642578,0.1525878906
0.3488280773,-0.7353515625,0.0581054688,0.0180664062,0.4272460938,-0.1983642578,0.1525878906
0.3515300751,-0.7353515625,0.0581054688,0.0180664062,-0.1525878906,-0.1983642578,0.0762939453
0.3542401791,-0.7397460938,0.0576171875,0.0224609375,-0.1525878906,-0.1983642578,-3.8299560547
0.3569500446,-0.7397460938,0.0576171875,0.0224609375,-0.2746582031,-0.1678466797,-0.0762939453
0.3596432209,-0.7397460938,0.0576171875,0.0224609375,-0.2746582031,-0.1678466797,-0.0762939453
0.3623452187,-0.7397460938,0.0576171875,0.0224609375,-0.1678466797,0.0457763672,-0.0915527344
0.3650441170,-0.7309570312,0.0698242188,0.0224609375,-0.1678466797,0.0457763672,-0.0915527344
0.3676950932,-0.7309570312,0.0698242188,0.0224609375,0.0610351562,-0.1068115234,0.0762939453
0.3702700138,-0.7309570312,0.0698242188,0.0224609375,0.0610351562,-0.1068115234,0.0762939453
0.3728342056,-0.7309570312,0.0698242188,0.0224609375,0.0915527344,-0.0610351562,0.3051757812
0.3755052090,-0.7363281250,0.0644531250,0.0185546875,0.0915527344,-0.0610351562,0.3051757812
0.3780992031,-0.7363281250,0.0644531250,0.0185546875,0.1983642578,-0.0457763672,0.2593994141
0.3806681633,-0.7363281250,0.0644531250,0.0185546875,0.1983642578,-0.0457763672,0.2593994141
0.3832411766,-0.7363281250,0.0644531250,0.0185546875,0.1983642578,-0.3509521484,0.2136230469
0.3858091831,-0.7329101562,0.0698242188,0.0229492188,0.1983642578,-0.3509521484,0.2136230469
0.3884260654,-0.7329101562,0.0698242188,0.0229492188,0.1220703125,-0.2288818359,-0.0915527344
0.3909950256,-0.7329101562,0.0698242188,0.0229492188,0.1220703125,-0.2288818359,-0.0915527344
0.3935592175,-0.7329101562,0.0698242188,0.0288085938,0.2136230469,0.2288818359,0.0000000000
0.3961300850,-0.7358398438,0.0693359375,0.0288085938,0.2136230469,0.2288818359,0.0000000000
0.3987431526,-0.7358398438,0.0693359375,0.0288085938,-3.6926269531,0.0457763672,0.0000000000
0.4013071060,-0.7358398438,0.0693359375,0.0288085938,-0.1525878906,0.0457763672,0.0000000000
0.4038810730,-0.7358398438,0.0693359375,0.0209960938,-0.1525878906,-3.8604736328,-0.0152587891
0.4065101147,-0.7329101562,0.0561523438,0.0209960938,-0.0305175781,-0.2136230469,-0.0152587891
0.4092121124,-0.7329101562,0.0561523438,0.0209960938,-0.0305175781,-0.2136230469,0.1220703125
0.4119191170,-0.7329101562,0.0561523438,0.0209960938,0.0762939453,-0.1678466797,0.1220703125
0.4146142006,-0.7412109375,0.0668945312,0.0224609375,0.0762939453,3.7384033203,0.3051757812
0.4172911644,-0.7412109375,0.0668945312,0.0224609375,0.0457763672,0.0000000000,0.3051757812
0.4198610783,-0.7412109375,0.0668945312,0.0224609375,0.0457763672,0.0000000000,0.2136230469
0.4224309921,-0.7412109375,0.0668945312,0.0224609375,0.1678466797,0.1373291016,0.2136230469
0.4250030518,-0.7358398438,0.0708007812,0.0244140625,0.1678466797,0.1373291016,0.2136230469
0.4276862144,-0.7358398438,0.0708007812,0.0244140625,0.0610351562,-0.1983642578,0.3051757812
0.4303832054,-0.7358398438,0.0708007812,0.0244140625,0.0610351562,-0.1983642578,0.3051757812
0.4330880642,-0.7358398438,0.0708007812,0.0244140625,0.2593994141,-0.1525878906,0.1983642578
0.4357841015,-0.7402343750,0.0625000000,0.0214843750,0.2593994141,-0.1525878906,-3.7078857422
0.4384980202,-0.7402343750,0.0625000000,0.0214843750,-0.2593994141,0.0610351562,-0.1678466797
0.4413030148,-0.7402343750,0.0625000000,0.0214843750,-0.2593994141,0.0610351562,3.7384033203
0.4440062046,-0.7402343750,0.0625000000,0.0214843750,-0.1831054688,-0.0457763672,0.0000000000
0.4467160702,-0.7368164062,0.0659179688,0.0214843750,-0.1831054688,-0.0457763672,0.0000000000
0.4494180679,-0.7368164062,0.0659179688,0.0214843750,-0.0762939453,-0.0305175781,0.0915527344
0.4521191120,-0.7368164062,0.0659179688,0.0214843750,-0.0762939453,-0.0305175781,0.0915527344
0.4548192024,-0.7368164062,0.0610351562,0.0229492188,-0.2136230469,0.1983642578,0.3204345703
0.4574861526,-0.7402343750,0.0610351562,0.0229492188,-0.2136230469,0.1983642578,0.3204345703
0.4600601196,-0.7402343750,0.0610351562,0.0229492188,-0.0762939453,0.0152587891,0.3509521484
0.4627060890,-0.7402343750,0.0610351562,0.0229492188,-0.0762939453,0.0152587891,0.3509521484
0.4652709961,-0.7353515625,0.0546875000,0.0185546875,0.1068115234,-0.1831054688,0.6408691406
0.4680981636,-0.7353515625,0.0546875000,0.0185546875,0.1068115234,-0.1831054688,0.6408691406
0.4706690311,-0.7353515625,0.0546875000,0.0185546875,-0.3204345703,-0.1983642578,0.4272460938
0.4732451439,-0.7353515625,0.0546875000,0.0185546875,-0.3204345703,-0.1983642578,0.4272460938
0.4758121967,-0.7421875000,0.0634765625,0.0219726562,-1.0070800781,-0.1525878906,0.1373291016
0.4784371853,-0.7421875000,0.0634765625,0.0219726562,-1.0070800781,-0.1525878906,0.1373291016
0.4814851284,-0.7421875000,0.0634765625,0.0219726562,-1.0070800781,-0.2593994141,0.2899169922
0.4840500355,-0.7421875000,0.0634765625,0.0219726562,-1.0070800781,-0.2593994141,0.2899169922
0.4866931438,-0.7368164062,0.0654296875,0.0234375000,-1.1138916016,-0.1525878906,0.3356933594
0.4892551899,-0.7368164062,0.0654296875,0.0234375000,-1.1138916016,-0.1525878906,0.3356933594
0.4918150902,-0.7368164062,0.0654296875,0.0234375000,-0.7781982422,0.0305175781,0.1525878906
0.4943799973,-0.7368164062,0.0654296875,0.0234375000,-0.7781982422,0.0305175781,0.1525878906
0.4969542027,-0.7368164062,0.0703125000,0.0244140625,-0.7476806641,-0.2593994141,0.2288818359
0.4995160103,-0.7368164062,0.0703125000,0.0244140625,-0.7476806641,-0.2593994141,0.2288818359
0.5020802021,-0.7368164062,0.0703125000,0.0244140625,-0.7476806641,-0.1983642578,0.5645751953
0.5047521591,-0.7368164062,0.0703125000,0.0190429688,-0.2136230469,-0.1983642578,0.5645751953
0.5073292255,-0.7358398438,0.0625000000,0.0190429688,-0.2136230469,-0.1983642578,0.6103515625
0.5098891258,-0.7358398438,0.0625000000,0.0190429688,0.0457763672,-0.3662109375,0.6103515625
0.5124530792,-0.7358398438,0.0625000000,0.0190429688,0.0457763672,-0.3662109375,0.4577636719
0.5150160789,-0.7358398438,0.0625000000,0.0224609375,-0.9460449219,-0.2288818359,0.4577636719
0.5176351070,-0.7387695312,0.0629882812,0.0224609375,-0.9460449219,-0.2288818359,0.4577636719
0.5202031136,-0.7387695312,0.0629882812,0.0224609375,-0.9307861328,0.0457763672,0.5187988281
0.5227670670,-0.7387695312,0.0629882812,0.0224609375,-0.9307861328,0.0457763672,0.5187988281
0.5253300667,-0.7387695312,0.0625000000,0.0234375000,-0.8087158203,-0.0610351562,0.4882812500
0.5279800892,-0.7343750000,0.0625000000,0.0234375000,-0.8087158203,-0.0610351562,0.4882812500
0.5305449963,-0.7343750000,0.0625000000,0.0234375000,-0.7476806641,-0.0457763672,0.4119873047
0.5331120491,-0.7343750000,0.0625000000,0.0234375000,-0.7476806641,-0.0457763672,0.4119873047
0.5356822014,-0.7338867188,0.0654296875,0.0263671875,-0.8392333984,0.0457763672,0.4882812500
0.5384430885,-0.7338867188,0.0654296875,0.0263671875,-0.8392333984,0.0457763672,0.4882812500
0.5411391258,-0.7338867188,0.0654296875,0.0263671875,-0.8850097656,-0.1068115234,0.5035400391
0.5438361168,-0.7338867188,0.0654296875,0.0263671875,-0.8850097656,-0.1068115234,0.5035400391
0.5465340614,-0.7333984375,0.0664062500,0.0278320312,-0.5493164062,-0.1983642578,0.3204345703
0.5492310524,-0.7333984375,0.0664062500,0.0278320312,-0.5493164062,-0.1983642578,0.3204345703
0.5519251823,-0.7333984375,0.0664062500,0.0278320312,-0.6561279297,-0.1983642578,0.2899169922
0.5546171665,-0.7333984375,0.0664062500,0.0278320312,-0.6561279297,-0.1983642578,0.2899169922
0.5572881699,-0.7358398438,0.0673828125,0.0244140625,-0.3814697266,-0.0915527344,0.3204345703
0.5598561764,-0.7358398438,0.0673828125,0.0244140625,-0.3814697266,-0.0915527344,0.3204345703
0.5624201298,-0.7358398438,0.0673828125,0.0244140625,-0.6103515625,0.0000000000,0.1678466797
0.5649859905,-0.7358398438,0.0673828125,0.0244140625,-0.6103515625,0.0000000000,0.1678466797
0.5676670074,-0.7329101562,0.0659179688,0.0190429688,-0.5035400391,-0.1983642578,0.0762939453
0.5702362061,-0.7329101562,0.0659179688,0.0190429688,-0.5035400391,-0.1983642578,0.0762939453
0.5728020668,-0.7329101562,0.0659179688,0.0190429688,-0.5035400391,-0.2288818359,0.1525878906
0.5753681660,-0.7329101562,0.0659179688,0.0234375000,-0.3967285156,-0.2288818359,0.1525878906
0.5780251026,-0.7373046875,0.0629882812,0.0234375000,-0.3967285156,0.0305175781,0.4272460938
0.5807240009,-0.7373046875,0.0629882812,0.0234375000,-0.1068115234,0.0305175781,0.4272460938
0.5834221840,-0.7373046875,0.0629882812,0.0234375000,-0.1068115234,-3.8757324219,0.3662109375
0.5861201286,-0.7285156250,0.0629882812,0.0249023438,-0.2441406250,-0.2288818359,0.3662109375
0.5888290405,-0.7285156250,0.0629882812,0.0249023438,-0.2441406250,3.6773681641,0.1525878906
0.5915210247,-0.7285156250,0.0629882812,0.0249023438,-0.3967285156,0.0000000000,0.1525878906
0.5943801403,-0.7285156250,0.0629882812,0.0249023438,-0.3967285156,-0.0762939453,0.3204345703
0.5974822044,-0.7314453125,0.0629882812,0.0200195312,-0.3814697266,-0.0762939453,0.3204345703
0.6001830101,-0.7314453125,0.0629882812,0.0200195312,-0.9002685547,-0.1373291016,0.2136230469
0.6028862000,-0.7314453125,0.0629882812,0.0200195312,-0.9002685547,-0.1373291016,0.2136230469
0.6055881977,-0.7314453125,0.0629882812,0.0214843750,-0.8392333984,-0.0457763672,0.3204345703
0.6082081795,-0.7324218750,0.0639648438,0.0214843750,-0.8392333984,-0.0457763672,0.3204345703
0.6107721329,-0.7324218750,0.0639648438,0.0214843750,-0.8392333984,-0.3051757812,0.7171630859
0.6133370399,-0.7324218750,0.0639648438,0.0214843750,-0.3662109375,-0.3051757812,0.7171630859
0.6158962250,-0.7324218750,0.0639648438,0.0151367188,-0.3662109375,-0.3051757812,0.8850097656
0.6185820103,-0.7338867188,0.0654296875,0.0151367188,-0.7171630859,-0.2441406250,0.8850097656
0.6212780476,-0.7338867188,0.0654296875,0.0151367188,-0.7171630859,-0.2441406250,0.7019042969
0.6239800453,-0.7338867188,0.0654296875,0.0151367188,-0.5187988281,-0.2746582031,0.7019042969
0.6266820431,-0.7299804688,0.0541992188,0.0175781250,-0.5187988281,-0.2746582031,0.6713867188
0.6292459965,-0.7299804688,0.0541992188,0.0175781250,-0.7781982422,-0.3204345703,0.6713867188
0.6319241524,-0.7299804688,0.0541992188,0.0175781250,-0.7781982422,-0.3204345703,0.6713867188
0.6344931126,-0.7299804688,0.0541992188,0.0175781250,-1.0681152344,-0.4119873047,0.7324218750
0.6370980740,-0.7333984375,0.0605468750,0.0209960938,-1.0681152344,-0.4119873047,0.7324218750
0.6396620274,-0.7333984375,0.0605468750,0.0209960938,-1.4190673828,-0.8697509766,0.4882812500
0.6422262192,-0.7333984375,0.0605468750,0.0209960938,-1.4190673828,-0.8697509766,0.4882812500
0.6447920799,-0.7333984375,0.0605468750,0.0209960938,-2.1667480469,-0.8087158203,0.7781982422
0.6474030018,-0.7333984375,0.0615234375,0.0239257812,-2.1667480469,-0.8087158203,0.7781982422
0.6499731541,-0.7333984375,0.0615234375,0.0239257812,-1.8768310547,-0.4119873047,0.8544921875
0.6525380611,-0.7333984375,0.0615234375,0.0239257812,-1.8768310547,-0.4119873047,0.8544921875
0.6551091671,-0.7333984375,0.0615234375,0.0239257812,-1.4648437500,-0.5493164062,1.2512207031
0.6577711105,-0.7343750000,0.0493164062,0.0307617188,-1.4648437500,-0.5493164062,1.2512207031
0.6603381634,-0.7343750000,0.0493164062,0.0307617188,-1.4038085938,-0.0762939453,1.6021728516
0.6629021168,-0.7343750000,0.0493164062,0.0307617188,-1.4038085938,-0.0762939453,1.6021728516
0.6654691696,-0.7343750000,0.0493164062,0.0307617188,-1.4038085938,-0.3356933594,1.7700195312
0.6681280136,-0.7377929688,0.0512695312,0.0302734375,-1.6174316406,-0.3356933594,1.7700195312
0.6708271503,-0.7377929688,0.0512695312,0.0302734375,-1.6174316406,-0.4119873047,1.5716552734
0.6735210419,-0.7377929688,0.0512695312,0.0302734375,-1.7242431641,-0.4119873047,1.5716552734
0.6762180328,-0.7377929688,0.0512695312,0.0278320312,-1.7242431641,-0.7019042969,1.7852783203
0.6789271832,-0.7324218750,0.0625000000,0.0278320312,-1.8310546875,-0.7019042969,1.7852783203
0.6816191673,-0.7324218750,0.0625000000,0.0278320312,-1.8310546875,-0.1678466797,2.5787353516
0.6843180656,-0.7324218750,0.0625000000,0.0278320312,-1.8463134766,-0.1678466797,2.5787353516
0.6870141029,-0.7324218750,0.0625000000,0.0175781250,-1.8463134766,-0.5035400391,2.9296875000
0.6897079945,-0.7275390625,0.0625000000,0.0175781250,-1.6174316406,-0.5035400391,2.9296875000
0.6924052238,-0.7275390625,0.0625000000,0.0175781250,-1.6174316406,-0.2746582031,2.8686523438
0.6952090263,-0.7275390625,0.0625000000,0.0175781250,-1.4801025391,-0.2746582031,2.8686523438
0.6979219913,-0.7299804688,0.0644531250,0.0263671875,-1.4801025391,-0.2593994141,3.0059814453
0.7006120682,-0.7299804688,0.0644531250,0.0263671875,-1.8463134766,-0.2593994141,3.0059814453
0.7033090591,-0.7299804688,0.0644531250,0.0263671875,-1.8463134766,-0.3967285156,3.3416748047
0.7060050964,-0.7299804688,0.0644531250,0.0263671875,-2.4261474609,-0.3967285156,3.3416748047
0.7086071968,-0.7226562500,0.0644531250,0.0092773438,-2.4261474609,-0.3967285156,3.8757324219
0.7111730576,-0.7226562500,0.0644531250,0.0092773438,-2.7618408203,-0.7324218750,3.8757324219
0.7138969898,-0.7226562500,0.0644531250,0.0092773438,-2.7618408203,-0.7324218750,4.2877197266
0.7168550491,-0.7226562500,0.0644531250,0.0063476562,-2.5634765625,-0.2288818359,4.2877197266
0.7195641994,-0.7421875000,0.0742187500,0.0063476562,-2.5634765625,-0.2593994141,4.6081542969
0.7222661972,-0.7421875000,0.0742187500,0.0063476562,-1.7852783203,-0.2593994141,4.6081542969
0.7249641418,-0.7421875000,0.0742187500,0.0063476562,-1.7852783203,0.0305175781,4.3792724609
0.7276701927,-0.7548828125,0.0815429688,0.0092773438,-0.7019042969,0.0305175781,4.3792724609
0.7303740978,-0.7548828125,0.0815429688,0.0092773438,-0.7019042969,0.0305175781,5.0811767578
0.7330710888,-0.7548828125,0.0815429688,0.0092773438,0.1678466797,0.0152587891,5.0811767578
0.7357690334,-0.7548828125,0.0815429688,0.0092773438,0.1678466797,-3.8909912109,5.2032470703
0.7384760380,-0.7236328125,0.0659179688,0.0229492188,0.8392333984,-0.5493164062,5.2032470703
0.7411780357,-0.7236328125,0.0659179688,0.0229492188,0.8392333984,-0.5493164062,5.5999755859
0.7438740730,-0.7236328125,0.0659179688,0.0229492188,0.0915527344,-0.7629394531,5.5999755859
0.7466151714,-0.7236328125,0.0659179688,0.0229492188,0.0915527344,-0.7629394531,6.1035156250
0.7491791248,-0.7304687500,0.0224609375,0.0278320312,-0.5340576172,-0.7171630859,6.1035156250
0.7517461777,-0.7304687500,0.0224609375,0.0278320312,-0.5340576172,-0.7171630859,6.1035156250
0.7543110847,-0.7304687500,0.0224609375,0.0278320312,-0.6866455078,-0.7781982422,6.7291259766
0.7569110394,-0.7304687500,0.0224609375,0.0317382812,-0.6866455078,-0.7781982422,6.7291259766
0.7595860958,-0.7456054688,0.0307617188,0.0317382812,-1.4038085938,-0.7324218750,7.1105957031
0.7621560097,-0.7456054688,0.0307617188,0.0317382812,-1.4038085938,-0.7324218750,7.1105957031
0.7647171021,-0.7456054688,0.0307617188,0.0317382812,-2.7008056641,-0.5187988281,7.8125000000
0.7673790455,-0.7456054688,0.0629882812,0.0224609375,-2.7008056641,-0.5187988281,7.8125000000
0.7699460983,-0.7358398438,0.0629882812,0.0224609375,-4.1961669922,-0.4882812500,8.7585449219
0.7725150585,-0.7358398438,0.0629882812,0.0224609375,-4.1961669922,-0.4882812500,8.7585449219
0.7750811577,-0.7358398438,0.0629882812,0.0224609375,-5.3863525391,-1.4495849609,9.3536376953
0.7778301239,-0.7358398438,0.0449218750,0.0180664062,-5.3863525391,-1.4495849609,9.3536376953
0.7805290222,-0.7329101562,0.0449218750,0.0180664062,-5.5084228516,-1.9073486328,9.9487304688
0.7832231522,-0.7329101562,0.0449218750,0.0180664062,-5.5084228516,-1.9073486328,9.9487304688
0.7859241962,-0.7329101562,0.0449218750,0.0180664062,-4.3334960938,-1.3732910156,9.8114013672
0.7886261940,-0.7534179688,0.0527343750,0.0180664062,-4.3334960938,-1.3732910156,9.8114013672
0.7913382053,-0.7534179688,0.0527343750,0.0180664062,-3.8757324219,-1.1138916016,10.2539062500
0.7939100266,-0.7534179688,0.0527343750,0.0180664062,-3.8757324219,-1.1138916016,10.2539062500
0.7965540886,-0.7534179688,0.0527343750,0.0180664062,-4.0893554688,-1.0681152344,11.0015869141
0.7991402149,-0.7309570312,0.0708007812,0.0126953125,-4.0893554688,-1.0681152344,11.0015869141
0.8023121357,-0.7309570312,0.0708007812,0.0126953125,-4.3792724609,-1.0833740234,12.5274658203
0.8048820496,-0.7309570312,0.0708007812,0.0126953125,-4.3792724609,-1.0833740234,12.5274658203
0.8075070381,-0.7309570312,0.0708007812,0.0146484375,-5.5541992188,-1.5258789062,13.2141113281
0.8100800514,-0.7216796875,0.0288085938,0.0146484375,-5.5541992188,-1.5258789062,13.2141113281
0.8126430511,-0.7216796875,0.0288085938,0.0146484375,-5.8593750000,-1.7089843750,13.6718750000
0.8152070045,-0.7216796875,0.0288085938,0.0146484375,-5.8593750000,-1.7089843750,13.6718750000
0.8178210258,-0.7216796875,0.0258789062,0.0166015625,-5.8593750000,-1.6326904297,13.9312744141
0.8203861713,-0.7500000000,0.0258789062,0.0166015625,-5.6304931641,-1.6326904297,13.9312744141
0.8230640888,-0.7500000000,0.0258789062,0.0166015625,-5.6304931641,-1.2054443359,14.5874023438
0.8256340027,-0.7500000000,0.0258789062,0.0166015625,-6.6223144531,-1.2054443359,14.5874023438
0.8282411098,-0.7500000000,0.0761718750,0.0063476562,-6.6223144531,-1.2054443359,15.5029296875
0.8308100700,-0.7475585938,0.0761718750,0.0063476562,-8.5601806641,-1.1444091797,15.5029296875
0.8333761692,-0.7475585938,0.0761718750,0.0063476562,-8.5601806641,-1.1444091797,19.4091796875
0.8359441757,-0.7475585938,0.0761718750,0.0063476562,-9.7503662109,-1.1138916016,15.9912109375
0.8385550976,-0.7226562500,0.0864257812,0.0375976562,-9.7503662109,-1.1138916016,15.9912109375
0.8411171436,-0.7226562500,0.0864257812,0.0375976562,-9.4604492188,-1.0528564453,16.3726806641
0.8436911106,-0.7226562500,0.0864257812,0.0375976562,-9.4604492188,-1.0528564453,16.3726806641
0.8462581635,-0.7226562500,0.0864257812,0.0375976562,-8.7280273438,-0.9613037109,17.0745849609
0.8489391804,-0.7299804688,0.0698242188,0.0395507812,-8.7280273438,-0.9613037109,17.0745849609
0.8515172005,-0.7299804688,0.0698242188,0.0395507812,-7.3852539062,-0.5645751953,16.8914794922
0.8540902138,-0.7299804688,0.0698242188,0.0395507812,-7.3852539062,-0.5645751953,16.8914794922
0.8568081856,-0.7299804688,0.0698242188,0.0395507812,-5.6762695312,-0.2899169922,17.2119140625
0.8594970703,-0.7231445312,0.0952148438,0.0400390625,-5.6762695312,-0.2899169922,17.2119140625
0.8621850014,-0.7231445312,0.0952148438,0.0400390625,-5.3253173828,-0.3662109375,17.5933837891
0.8648710251,-0.7231445312,0.0952148438,0.0400390625,-5.3253173828,-0.3662109375,17.5933837891
0.8675692081,-0.7231445312,0.0952148438,0.0400390625,-4.8980712891,-0.1373291016,17.6391601562
0.8702561855,-0.7275390625,0.0898437500,0.0463867188,-4.8980712891,-0.1373291016,17.6391601562
0.8729431629,-0.7275390625,0.0898437500,0.0463867188,-4.4250488281,-0.1220703125,17.2729492188
0.8756279945,-0.7275390625,0.0898437500,0.0463867188,-4.4250488281,-0.1220703125,17.2729492188
0.8783230782,-0.7275390625,0.0898437500,0.0415039062,-4.3182373047,-0.1831054688,17.2119140625
0.8810100555,-0.7314453125,0.0942382812,0.0415039062,-4.3182373047,-0.1831054688,17.2119140625
0.8836970329,-0.7314453125,0.0942382812,0.0415039062,-4.1198730469,0.1220703125,17.7001953125
0.8865041733,-0.7314453125,0.0942382812,0.0415039062,-4.1198730469,0.1220703125,17.7001953125
0.8891930580,-0.7436523438,0.1010742188,0.0234375000,-4.0283203125,0.5645751953,17.3492431641
0.8918800354,-0.7436523438,0.1010742188,0.0234375000,-4.0283203125,0.5645751953,17.3492431641
0.8945691586,-0.7436523438,0.1010742188,0.0234375000,-5.3405761719,0.1373291016,17.3187255859
0.8972680569,-0.7436523438,0.1010742188,0.0234375000,-5.3405761719,0.1373291016,17.3187255859
0.8998401165,-0.7270507812,0.0888671875,0.0166015625,-8.0566406250,0.4119873047,16.7236328125
0.9024410248,-0.7270507812,0.0888671875,0.0166015625,-8.0566406250,0.4119873047,16.7236328125
0.9050149918,-0.7270507812,0.0888671875,0.0166015625,-10.6964111328,0.3509521484,16.0827636719
0.9076440334,-0.7270507812,0.0888671875,0.0166015625,-10.6964111328,0.3509521484,16.0827636719
0.9102210999,-0.7080078125,0.0971679688,0.0058593750,-10.6964111328,0.3356933594,15.9606933594
0.9129061699,-0.7080078125,0.0971679688,0.0058593750,-13.1530761719,0.3356933594,15.9606933594
0.9155020714,-0.7080078125,0.0971679688,0.0058593750,-13.1530761719,0.8087158203,15.4571533203
0.9183080196,-0.7080078125,0.0971679688,0.0136718750,-15.4418945312,0.8087158203,15.4571533203
0.9208831787,-0.6933593750,0.1391601562,0.0136718750,-15.4418945312,0.8087158203,15.1062011719
0.9234549999,-0.6933593750,0.1391601562,0.0136718750,-16.9677734375,1.7395019531,15.1062011719
0.9260280132,-0.6933593750,0.1391601562,0.0136718750,-16.9677734375,1.7395019531,14.6636962891
0.9286410809,-0.6933593750,0.1391601562,0.0151367188,-17.5933837891,1.7852783203,14.6636962891
0.9312121868,-0.7138671875,0.1528320312,0.0151367188,-17.5933837891,1.7852783203,14.6636962891
0.9337801933,-0.7138671875,0.1528320312,0.0151367188,-17.8985595703,1.1138916016,14.5874023438
0.9363961220,-0.7138671875,0.1528320312,0.0151367188,-17.8985595703,1.1138916016,14.5874023438
0.9389672279,-0.7138671875,0.1171875000,0.0263671875,-18.0816650391,0.1525878906,13.6108398438
0.9415371418,-0.7236328125,0.1171875000,0.0263671875,-18.0816650391,0.1525878906,13.6108398438
0.9441030025,-0.7236328125,0.1171875000,0.0263671875,-16.8914794922,-0.1831054688,12.2985839844
0.9467160702,-0.7236328125,0.1171875000,0.0263671875,-16.8914794922,-0.1831054688,12.2985839844
0.9494102001,-0.7236328125,0.1401367188,0.0268554688,-14.5721435547,-0.5645751953,11.0931396484
0.9519841671,-0.7451171875,0.1401367188,0.0268554688,-14.5721435547,-0.5645751953,11.0931396484
0.9545521736,-0.7451171875,0.1401367188,0.0268554688,-12.0239257812,-0.5798339844,10.4064941406
0.9571330547,-0.7451171875,0.1401367188,0.0268554688,-12.0239257812,-0.5798339844,10.4064941406
0.9597091675,-0.7675781250,0.1645507812,0.0039062500,-9.4604492188,-0.3051757812,9.5825195312
0.9622700214,-0.7675781250,0.1645507812,0.0039062500,-9.4604492188,-0.3051757812,9.5825195312
0.9648330212,-0.7675781250,0.1645507812,0.0039062500,-5.5541992188,-0.6713867188,8.3160400391
0.9675791264,-0.7675781250,0.1645507812,0.0039062500,-7.7972412109,-0.6713867188,8.3160400391
0.9701511860,-0.7470703125,0.1508789062,0.0073242188,-7.7972412109,-1.0070800781,7.5225830078
0.9727210999,-0.7470703125,0.1508789062,0.0073242188,-7.1563720703,-1.0070800781,7.5225830078
0.9752891064,-0.7470703125,0.1508789062,0.0073242188,-7.1563720703,-1.1444091797,7.3089599609
0.9780571461,-0.7470703125,0.1508789062,0.0073242188,-6.5917968750,-1.1444091797,7.3089599609
0.9807391167,-0.7290039062,0.1259765625,0.0317382812,-6.5917968750,-1.1444091797,6.6833496094
0.9834220409,-0.7290039062,0.1259765625,0.0317382812,-5.6762695312,-1.5258789062,6.6833496094
0.9861030579,-0.7290039062,0.1259765625,0.0317382812,-5.6762695312,-1.5258789062,6.7443847656
0.9888331890,-0.7290039062,0.1259765625,0.0317382812,-4.7149658203,-1.5258789062,6.7443847656
0.9915320873,-0.7246093750,0.1215820312,0.0273437500,-4.7149658203,-1.5258789062,6.6223144531
0.9942290783,-0.7246093750,0.1215820312,0.0273437500,-4.3640136719,-1.4648437500,6.6223144531
0.9969182014,-0.7246093750,0.1215820312,0.0273437500,-4.3640136719,-1.4648437500,7.0495605469
0.9994812012,-0.7246093750,0.1049804688,0.0195312500,-3.9062500000,-1.2664794922,7.0495605469
1.0020492077,-0.7329101562,0.1049804688,0.0195312500,-3.9062500000,-1.2664794922,7.0495605469
1.0046160221,-0.7329101562,0.1049804688,0.0195312500,-3.7231445312,-1.7700195312,7.7514648438
1.0072610378,-0.7329101562,0.1049804688,0.0195312500,-3.7231445312,-1.7700195312,7.7514648438
1.0099470615,-0.7329101562,0.0820312500,0.0307617188,-3.6163330078,-1.8310546875,9.0942382812
1.0127382278,-0.7387695312,0.0820312500,0.0307617188,-3.6163330078,-1.8310546875,9.0942382812
1.0154230595,-0.7387695312,0.0820312500,0.0307617188,-4.4250488281,-2.2735595703,10.4064941406
1.0181531906,-0.7387695312,0.0820312500,0.0307617188,-4.4250488281,-2.2735595703,10.4064941406
1.0208401680,-0.7558593750,0.0429687500,0.0136718750,-4.6691894531,-1.5411376953,12.0391845703
1.0235280991,-0.7558593750,0.0429687500,0.0136718750,-4.6691894531,-1.5411376953,12.0391845703
1.0262110233,-0.7558593750,0.0429687500,0.0136718750,-4.3334960938,-1.2664794922,15.0756835938
1.0289070606,-0.7558593750,0.0429687500,0.0136718750,-4.3334960938,-1.2664794922,15.0756835938
1.0315902233,-0.7597656250,0.0126953125,-0.0175781250,-3.8604736328,-0.5035400391,19.6533203125
1.0344409943,-0.7597656250,0.0126953125,-0.0175781250,-3.8604736328,-0.5035400391,19.6533203125
1.0375590324,-0.7597656250,0.0126953125,-0.0175781250,-4.3029785156,-0.0457763672,24.7192382812
1.0402321815,-0.7597656250,-0.0014648438,0.0009765625,-4.3029785156,-0.0457763672,28.8543701172
1.0429041386,-0.7705078125,-0.0014648438,0.0009765625,-5.2032470703,-0.8697509766,28.8543701172
1.0455741882,-0.7705078125,-0.0014648438,0.0009765625,-5.2032470703,-0.8697509766,32.7606201172
1.0482079983,-0.7705078125,-0.0014648438,0.0009765625,-6.2103271484,-1.7852783203,33.1878662109
1.0507760048,-0.7944335938,-0.0263671875,-0.0141601562,-6.2103271484,-1.7852783203,33.1878662109
1.0533480644,-0.7944335938,-0.0263671875,-0.0141601562,-7.9040527344,-2.1667480469,37.5976562500
1.0559132099,-0.7944335938,-0.0263671875,-0.0141601562,-7.9040527344,-2.1667480469,37.5976562500
1.0585892200,-0.7944335938,-0.0263671875,-0.0141601562,-11.3525390625,-1.0833740234,41.2445068359
1.0612940788,-0.7778320312,-0.0913085938,-0.0156250000,-11.3525390625,-1.0833740234,41.2445068359
1.0639960766,-0.7778320312,-0.0913085938,-0.0156250000,-16.0522460938,-0.4577636719,44.9371337891
1.0667080879,-0.7778320312,-0.0913085938,-0.0156250000,-16.0522460938,-0.4577636719,44.9371337891
1.0692880154,-0.7778320312,-0.0913085938,-0.0156250000,-20.7824707031,-0.5950927734,48.3093261719
1.0718622208,-0.7221679688,-0.0102539062,-0.0043945312,-20.7824707031,-0.5950927734,48.3093261719
1.0744321346,-0.7221679688,-0.0102539062,-0.0043945312,-26.5197753906,-1.8768310547,50.5371093750
1.0771532059,-0.7221679688,-0.0102539062,-0.0043945312,-26.5197753906,-1.8768310547,50.5371093750
1.0797262192,-0.7221679688,-0.0102539062,0.1206054688,-32.3638916016,-3.8299560547,52.2918701172
1.0823030472,-0.6967773438,0.1503906250,0.0283203125,-32.3638916016,-3.8299560547,52.2918701172
1.0848770142,-0.6967773438,0.1503906250,0.0283203125,-33.9660644531,-5.8593750000,53.2226562500
1.0875921249,-0.6967773438,0.1503906250,0.0283203125,-33.9660644531,-5.8593750000,53.2226562500
1.0901701450,-0.6967773438,0.1503906250,0.0722656250,-30.4870605469,-6.6375732422,52.4291992188
1.0927381516,-0.6694335938,0.2465820312,0.0722656250,-30.4870605469,-6.6375732422,52.4291992188
1.0954592228,-0.6694335938,0.2465820312,0.0722656250,-23.8952636719,-7.9650878906,49.9420166016
1.0982592106,-0.6694335938,0.2465820312,0.0722656250,-23.8952636719,-7.9650878906,49.9420166016
1.1008341312,-0.6552734375,0.3339843750,0.1054687500,-12.1765136719,-9.3078613281,47.9736328125
1.1034162045,-0.6552734375,0.3339843750,0.1054687500,-15.2740478516,-9.3078613281,47.9736328125
1.1059942245,-0.6552734375,0.3339843750,0.1054687500,-7.4615478516,-9.4757080078,46.8139648438
1.1088202000,-0.6552734375,0.3339843750,0.1054687500,-5.7067871094,-9.4757080078,46.8139648438
1.1114912033,-0.6938476562,0.2172851562,0.0727539062,2.1057128906,-7.7667236328,46.0662841797
1.1144080162,-0.6938476562,0.2172851562,0.0727539062,2.7770996094,-7.7667236328,46.0662841797
1.1171309948,-0.6938476562,0.2172851562,0.0727539062,10.5895996094,-6.3781738281,45.5017089844
1.1198370457,-0.6938476562,0.2172851562,0.0727539062,8.6059570312,-6.3781738281,45.5017089844
1.1225399971,-0.6625976562,0.0756835938,0.0522460938,8.6059570312,-5.4473876953,46.3256835938
1.1252410412,-0.6625976562,0.0756835938,0.0522460938,8.4686279297,-5.4473876953,46.3256835938
1.1279530525,-0.6625976562,0.0756835938,0.0522460938,4.5623779297,-5.3253173828,48.2177734375
1.1306631565,-0.6625976562,0.1137695312,0.0991210938,4.1351318359,-5.3253173828,48.2177734375
1.1333661079,-0.6748046875,0.1137695312,0.0991210938,-3.6773681641,-5.2795410156,49.7283935547
1.1360750198,-0.6748046875,0.1137695312,0.0991210938,-2.4108886719,-5.2795410156,49.7283935547
1.1387910843,-0.6748046875,0.1137695312,0.0991210938,-6.3171386719,-5.1879882812,51.2237548828
1.1414921284,-0.7377929688,0.2021484375,0.1044921875,-7.1868896484,-5.1879882812,51.2237548828
1.1443011761,-0.7377929688,0.2021484375,0.1044921875,-11.0931396484,-4.7302246094,52.3681640625
1.1469922066,-0.7377929688,0.2021484375,0.1044921875,-8.0108642578,-4.7302246094,52.3681640625
1.1495652199,-0.7377929688,0.2021484375,0.1044921875,-8.0108642578,-4.7302246094,53.5583496094
1.1521379948,-0.7607421875,0.2543945312,0.0756835938,-5.7983398438,-4.4708251953,53.5583496094
1.1547081470,-0.7607421875,0.2543945312,0.0756835938,-5.7983398438,-4.4708251953,54.1839599609
1.1573970318,-0.7607421875,0.2543945312,0.0756835938,-1.9073486328,-4.2572021484,54.1839599609
1.1599740982,-0.7607421875,0.2543945312,0.0756835938,-1.9073486328,-4.2572021484,58.0902099609
1.1625430584,-0.7504882812,0.1279296875,-0.0185546875,2.4566650391,-3.3416748047,55.2062988281
1.1651160717,-0.7504882812,0.1279296875,-0.0185546875,2.4566650391,-3.3416748047,55.2062988281
1.1678431034,-0.7504882812,0.1279296875,-0.0185546875,3.7689208984,-1.2054443359,57.7545166016
1.1705441475,-0.7504882812,0.1279296875,-0.0839843750,3.7689208984,-1.2054443359,57.7545166016
1.1732521057,-0.6035156250,-0.1245117188,-0.0839843750,-2.3193359375,2.0904541016,62.8356933594
1.1759521961,-0.6035156250,-0.1245117188,-0.0839843750,-2.3193359375,2.0904541016,62.8356933594
1.1787002087,-0.6035156250,-0.1245117188,-0.0839843750,-15.4418945312,2.5024414062,68.4051513672
1.1814110279,-0.6035156250,-0.0737304688,0.0151367188,-15.4418945312,2.5024414062,68.4051513672
1.1841201782,-0.5488281250,-0.0737304688,0.0151367188,-31.0668945312,-0.1373291016,73.5473632812
1.1868901253,-0.5488281250,-0.0737304688,0.0151367188,-31.0668945312,-0.1373291016,73.5473632812
1.1896061897,-0.5488281250,-0.0737304688,0.0151367188,-44.9829101562,-4.0588378906,76.3854980469
1.1923141479,-0.6816406250,0.1215820312,0.0805664062,-44.9829101562,-4.0588378906,76.3854980469
1.1950302124,-0.6816406250,0.1215820312,0.0805664062,-53.4362792969,-5.7373046875,77.9724121094
1.1976871490,-0.6816406250,0.1215820312,0.0805664062,-53.4362792969,-5.7373046875,77.9724121094
1.2002601624,-0.6816406250,0.1215820312,0.0805664062,-54.5959472656,-8.4228515625,79.3151855469
1.2028381824,-0.6811523438,0.3022460938,0.0805664062,-54.5959472656,-8.4228515625,79.3151855469
1.2054111958,-0.6811523438,0.3022460938,0.0805664062,-49.8046875000,-14.8468017578,80.3070068359
1.2082221508,-0.6811523438,0.3022460938,0.0805664062,-49.8046875000,-14.8468017578,80.3070068359
1.2109341621,-0.6811523438,0.3022460938,0.0786132812,-31.6772460938,-16.8457031250,77.8961181641
1.2136421204,-0.7299804688,0.3813476562,0.0786132812,-31.6772460938,-16.8457031250,77.8961181641
1.2163832188,-0.7299804688,0.3813476562,0.0786132812,-7.6599121094,-15.4724121094,74.6765136719
1.2190999985,-0.7299804688,0.3813476562,0.0786132812,-7.6599121094,-15.4724121094,74.6765136719
1.2218060493,-0.8549804688,0.3691406250,-0.0219726562,8.6975097656,-13.7176513672,73.3337402344
1.2245860100,-0.8061523438,0.3691406250,-0.0219726562,8.6975097656,-13.7176513672,73.3337402344
1.2275841236,-0.8061523438,0.3691406250,-0.0219726562,19.4091796875,-12.5274658203,73.7915039062
1.2301712036,-0.8061523438,0.3691406250,-0.0219726562,19.4091796875,-12.5274658203,73.7915039062
1.2327501774,-0.7290039062,0.1279296875,-0.0644531250,24.5361328125,-13.1378173828,75.5920410156
1.2353281975,-0.7290039062,0.1279296875,-0.0644531250,24.5361328125,-13.1378173828,75.5920410156
1.2379190922,-0.7290039062,0.1279296875,-0.0644531250,20.1416015625,-13.6871337891,77.7130126953
1.2404911518,-0.7290039062,0.1279296875,-0.0644531250,20.1416015625,-13.6871337891,77.7130126953
1.2430682182,-0.6811523438,0.1523437500,-0.0219726562,10.6353759766,-13.5040283203,79.5745849609
1.2456431389,-0.6811523438,0.1523437500,-0.0219726562,10.6353759766,-13.5040283203,79.5745849609
1.2482690811,-0.6811523438,0.1523437500,-0.0219726562,0.0457763672,-11.9628906250,82.1075439453
1.2508490086,-0.6811523438,0.1523437500,-0.0219726562,0.0457763672,-11.9628906250,82.1075439453
1.2534201145,-0.6142578125,0.2514648438,0.0014648438,-8.5296630859,-12.6953125000,83.9233398438
1.2559921741,-0.6142578125,0.2514648438,0.0014648438,-8.5296630859,-12.6953125000,83.9233398438
1.2586231232,-0.6142578125,0.2514648438,0.0014648438,-12.4359130859,-15.7318115234,84.3811035156
1.2611939907,-0.6142578125,0.2514648438,0.0014648438,-13.7023925781,-15.7318115234,84.3811035156
1.2637701035,-0.5917968750,0.3369140625,0.0410156250,-13.7023925781,-15.7318115234,83.4960937500
1.2663462162,-0.5917968750,0.3369140625,0.0410156250,-16.6015625000,-17.4713134766,83.4960937500
1.2689771652,-0.5917968750,0.3369140625,0.0410156250,-16.6015625000,-17.4713134766,82.7026367188
1.2716631889,-0.5917968750,0.3369140625,0.0214843750,-15.5181884766,-16.8151855469,82.7026367188
1.2742381096,-0.5683593750,0.3178710938,0.0214843750,-15.5181884766,-16.8151855469,82.7026367188
1.2768650055,-0.5683593750,0.3178710938,0.0214843750,-12.7258300781,-16.2506103516,83.1756591797
1.2794451714,-0.5683593750,0.3178710938,0.0214843750,-12.7258300781,-16.2506103516,83.1756591797
1.2820200920,-0.5683593750,0.3178710938,0.0610351562,-13.0310058594,-17.2882080078,83.7554931641
1.2845900059,-0.5712890625,0.3217773438,0.0610351562,-13.0310058594,-17.2882080078,83.7554931641
1.2873020172,-0.5712890625,0.3217773438,0.0610351562,-14.4195556641,-18.7683105469,83.2519531250
1.2900121212,-0.5712890625,0.3217773438,0.0610351562,-14.4195556641,-18.7683105469,83.2519531250
1.2927222252,-0.6806640625,0.2807617188,0.0424804688,-13.1988525391,-19.0582275391,82.5958251953
1.2954261303,-0.6806640625,0.2807617188,0.0424804688,-13.1988525391,-19.0582275391,82.5958251953
1.2980680466,-0.6806640625,0.2807617188,0.0424804688,-11.1999511719,-20.2331542969,82.7636718750
1.3006460667,-0.6806640625,0.2807617188,0.0424804688,-11.1999511719,-20.2331542969,82.7636718750
1.3032240868,-0.6928710938,0.2548828125,0.0107421875,-7.2631835938,-20.1263427734,83.1451416016
1.3057971001,-0.6928710938,0.2548828125,0.0107421875,-7.2631835938,-20.1263427734,83.1451416016
1.3085260391,-0.6928710938,0.2548828125,0.0107421875,0.9918212891,-17.2119140625,81.5124511719
1.3112330437,-0.6928710938,0.2548828125,0.0107421875,0.9918212891,-17.2119140625,81.5124511719
1.3139381409,-0.7783203125,0.4648437500,0.0996093750,-0.3814697266,-16.7541503906,79.1778564453
1.3166761398,-0.7783203125,0.4648437500,0.0996093750,-0.3814697266,-16.7541503906,79.1778564453
1.3192520142,-0.7783203125,0.4648437500,0.0996093750,-2.3803710938,-16.5710449219,76.9653320312
1.3218290806,-0.7783203125,0.4648437500,0.0996093750,-2.3803710938,-16.5710449219,76.9653320312
1.3244030476,-0.7158203125,0.4780273438,0.0317382812,2.0446777344,-17.8680419922,75.5310058594
1.3270831108,-0.7158203125,0.4780273438,0.0317382812,2.0446777344,-17.8680419922,75.5310058594
1.3296620846,-0.7158203125,0.4780273438,0.0317382812,5.7983398438,-18.6309814453,73.7915039062
1.3322350979,-0.7158203125,0.4780273438,0.0937500000,5.7983398438,-18.6309814453,73.7915039062
1.3349242210,-0.5795898438,0.4667968750,0.0937500000,5.7983398438,-18.1274414062,71.9909667969
1.3376381397,-0.5795898438,0.4667968750,0.0937500000,7.7209472656,-18.1274414062,71.9909667969
1.3403050900,-0.5795898438,0.4667968750,0.0937500000,11.6271972656,-17.4407958984,69.6868896484
1.3431260586,-0.5610351562,0.4028320312,0.0947265625,8.4075927734,-17.4407958984,69.6868896484
1.3458321095,-0.5610351562,0.4028320312,0.0947265625,6.6986083984,-17.8375244141,67.3980712891
1.3484501839,-0.5610351562,0.4028320312,0.0947265625,6.6986083984,-17.8375244141,67.3980712891
1.3510241508,-0.5610351562,0.4028320312,0.0947265625,6.6986083984,-17.9290771484,66.0552978516
1.3535950184,-0.5595703125,0.3886718750,0.0830078125,3.9062500000,-17.9290771484,66.0552978516
1.3561670780,-0.5595703125,0.3886718750,0.0830078125,3.9062500000,-17.9290771484,66.2384033203
1.3589110374,-0.5595703125,0.3886718750,0.0830078125,1.6937255859,-17.3034667969,66.2384033203
1.3616142273,-0.5595703125,0.3886718750,0.0830078125,1.6937255859,-17.3034667969,66.7114257812
1.3643221855,-0.5463867188,0.4321289062,0.0874023438,-0.3509521484,-16.6625976562,66.7114257812
1.3670721054,-0.5463867188,0.4321289062,0.0874023438,-0.3509521484,-16.6625976562,65.0939941406
1.3697800636,-0.5463867188,0.4321289062,0.0874023438,0.1068115234,-16.4337158203,65.0939941406
1.3724901676,-0.5463867188,0.4321289062,0.0771484375,0.1068115234,-16.4337158203,63.2019042969
1.3751962185,-0.6157226562,0.4218750000,0.0771484375,0.1068115234,-16.0522460938,63.2019042969
1.3778471947,-0.6157226562,0.4218750000,0.0771484375,0.1068115234,-16.0522460938,62.5915527344
1.3804190159,-0.6157226562,0.4218750000,0.0771484375,0.0915527344,-16.4489746094,62.5915527344
1.3829960823,-0.6157226562,0.3750000000,0.0942382812,0.0915527344,-16.4489746094,58.6853027344
1.3855659962,-0.6640625000,0.3750000000,0.0942382812,0.4882812500,-15.8691406250,61.8896484375
1.3883111477,-0.6640625000,0.3750000000,0.0942382812,0.4882812500,-15.8691406250,61.8896484375
1.3908841610,-0.6640625000,0.3750000000,0.0942382812,2.1667480469,-13.3361816406,60.1501464844
1.3934581280,-0.6640625000,0.4433593750,0.1152343750,2.1667480469,-13.3361816406,60.1501464844
1.3960301876,-0.7065429688,0.4433593750,0.1152343750,0.9002685547,-11.8560791016,56.9458007812
1.3988320827,-0.7065429688,0.4433593750,0.1152343750,0.9002685547,-11.8560791016,56.9458007812
1.4015641212,-0.7065429688,0.4433593750,0.1152343750,2.2735595703,-12.0697021484,54.7790527344
1.4041352272,-0.6132812500,0.5034179688,0.0751953125,2.2735595703,-12.0697021484,54.7790527344
1.4068610668,-0.6132812500,0.5034179688,0.0751953125,5.3253173828,-12.4664306641,52.7191162109
1.4095180035,-0.6132812500,0.5034179688,0.0751953125,5.3253173828,-12.4664306641,52.7191162109
1.4122431278,-0.6132812500,0.5034179688,0.0751953125,8.1634521484,-10.4980468750,50.3234863281
1.4149191380,-0.5683593750,0.5673828125,0.0898437500,8.1634521484,-10.4980468750,50.3234863281
1.4179952145,-0.5683593750,0.5673828125,0.0898437500,7.4462890625,-7.9193115234,46.7834472656
1.4207031727,-0.5683593750,0.5673828125,0.0898437500,7.4462890625,-7.9193115234,46.7834472656
1.4233980179,-0.5683593750,0.4995117188,0.0781250000,6.9122314453,-7.5073242188,42.6330566406
1.4260990620,-0.5751953125,0.4995117188,0.0781250000,6.9122314453,-7.5073242188,42.6330566406
1.4288110733,-0.5751953125,0.4995117188,0.0781250000,9.3536376953,-8.3618164062,40.2679443359
1.4315140247,-0.5751953125,0.4995117188,0.0781250000,9.3536376953,-8.3618164062,40.2679443359
1.4342210293,-0.5712890625,0.4755859375,0.0786132812,10.6811523438,-9.0637207031,38.6505126953
1.4369330406,-0.5712890625,0.4755859375,0.0786132812,10.6811523438,-9.0637207031,38.6505126953
1.4396471977,-0.5712890625,0.4755859375,0.0786132812,11.2609863281,-8.6059570312,37.3229980469
1.4423580170,-0.5712890625,0.4755859375,0.0786132812,11.2609863281,-8.6059570312,37.3229980469
1.4450581074,-0.5468750000,0.5234375000,0.0483398438,11.2457275391,-8.0871582031,35.0341796875
1.4477150440,-0.5468750000,0.5234375000,0.0483398438,11.2457275391,-8.0871582031,35.0341796875
1.4502952099,-0.5468750000,0.5234375000,0.0483398438,9.1705322266,-8.1939697266,31.1737060547
1.4528620243,-0.5468750000,0.5234375000,0.0483398438,9.1705322266,-8.1939697266,31.1737060547
1.4554359913,-0.5581054688,0.5629882812,0.0605468750,7.6599121094,-8.3312988281,27.4200439453
1.4580550194,-0.5581054688,0.5629882812,0.0605468750,7.6599121094,-8.3312988281,27.4200439453
1.4606280327,-0.5581054688,0.5629882812,0.0605468750,7.7209472656,-9.5672607422,24.0325927734
1.4633190632,-0.5581054688,0.5629882812,0.0815429688,7.7209472656,-9.5672607422,24.0325927734
1.4658920765,-0.5395507812,0.5771484375,0.0815429688,7.2479248047,-11.0473632812,19.8364257812
1.4686071873,-0.5395507812,0.5771484375,0.0815429688,7.2479248047,-11.0473632812,19.8364257812
1.4711902142,-0.5395507812,0.5771484375,0.0815429688,5.9356689453,-12.5732421875,15.1214599609
1.4737620354,-0.5395507812,0.5771484375,0.0957031250,5.9356689453,-12.5732421875,15.1214599609
1.4763422012,-0.5126953125,0.6215820312,0.0957031250,5.6610107422,-13.6413574219,9.7198486328
1.4790701866,-0.5126953125,0.6215820312,0.0957031250,5.6610107422,-13.6413574219,9.7198486328
1.4816350937,-0.5126953125,0.6215820312,0.0957031250,5.6610107422,-14.7552490234,4.2266845703
1.4842040539,-0.3876953125,0.6577148438,0.1040039062,5.5236816406,-14.7552490234,4.2266845703
1.4868631363,-0.4985351562,0.6577148438,0.1040039062,5.5236816406,-14.7552490234,-2.3193359375
1.4894340038,-0.4985351562,0.6577148438,0.1040039062,4.1351318359,-14.4958496094,-2.3193359375
1.4920032024,-0.4985351562,0.6577148438,0.1040039062,4.1351318359,-14.4958496094,-10.1318359375
1.4945700169,-0.4926757812,0.6699218750,0.1157226562,3.9520263672,-13.1530761719,-8.7127685547
1.4971501827,-0.4926757812,0.6699218750,0.1157226562,3.9520263672,-13.1530761719,-8.7127685547
1.4997160435,-0.4926757812,0.6699218750,0.1157226562,3.9215087891,-12.6800537109,-14.7399902344
1.5022850037,-0.4926757812,0.6699218750,0.1157226562,3.9215087891,-12.6800537109,-14.7399902344
1.5050101280,-0.5214843750,0.6855468750,0.1381835938,3.4332275391,-11.5966796875,-22.0642089844
1.5077781677,-0.5214843750,0.6855468750,0.1381835938,3.4332275391,-11.5966796875,-22.0642089844
1.5103471279,-0.5214843750,0.6855468750,0.1381835938,5.2337646484,-10.4370117188,-29.8309326172
1.5131890774,-0.5214843750,0.6855468750,0.1381835938,5.2337646484,-10.4370117188,-29.8309326172
1.5157761574,-0.5571289062,0.6889648438,0.1562500000,9.5825195312,-9.9945068359,-37.5823974609
1.5184051991,-0.5571289062,0.6889648438,0.1562500000,9.5825195312,-9.9945068359,-37.5823974609
1.5209710598,-0.5571289062,0.6889648438,0.1562500000,14.2364501953,-8.5906982422,-45.0897216797
1.5235371590,-0.5571289062,0.6889648438,0.1562500000,14.2364501953,-8.5906982422,-45.0897216797
1.5262172222,-0.6245117188,0.6894531250,0.1801757812,18.8293457031,-7.0495605469,-52.7496337891
1.5288081169,-0.6245117188,0.6894531250,0.1801757812,18.8293457031,-7.0495605469,-52.7496337891
1.5313839912,-0.6245117188,0.6894531250,0.1801757812,22.4151611328,-4.9438476562,-60.3637695312
1.5339570045,-0.6245117188,0.6894531250,0.1728515625,22.4151611328,-4.9438476562,-60.3637695312
1.5365300179,-0.7026367188,0.6875000000,0.1728515625,26.3061523438,-2.8686523438,-68.4967041016
1.5391020775,-0.7026367188,0.6875000000,0.1728515625,26.3061523438,-2.8686523438,-68.4967041016
1.5416700840,-0.7026367188,0.6875000000,0.1728515625,34.1186523438,-0.0915527344,-75.5157470703
1.5442430973,-0.7026367188,0.6875000000,0.1860351562,31.5704345703,-0.0915527344,-75.5157470703
1.5468971729,-0.7456054688,0.6235351562,0.1860351562,31.5704345703,3.8146972656,-82.4279785156
1.5494630337,-0.7456054688,0.6235351562,0.1860351562,36.4379882812,1.5258789062,-82.4279785156
1.5520319939,-0.7456054688,0.6235351562,0.1860351562,36.4379882812,1.5258789062,-90.4235839844
1.5546000004,-0.7456054688,0.6845703125,0.1894531250,38.0401611328,3.1127929688,-90.4235839844
1.5572230816,-0.7758789062,0.6845703125,0.1894531250,38.0401611328,3.1127929688,-98.2360839844
1.5597951412,-0.7758789062,0.6845703125,0.1894531250,37.4145507812,4.7607421875,-98.1445312500
1.5623631477,-0.7758789062,0.6845703125,0.1894531250,37.4145507812,4.7607421875,-98.1445312500
1.5649352074,-0.7758789062,0.6684570312,0.1499023438,38.3148193359,6.2255859375,-105.4687500000
1.5675911903,-0.8652343750,0.6684570312,0.1499023438,38.3148193359,6.2255859375,-105.4687500000
1.5701620579,-0.8652343750,0.6684570312,0.1499023438,38.5589599609,7.9803466797,-113.2507324219
1.5727310181,-0.8652343750,0.6684570312,0.1499023438,38.5589599609,7.9803466797,-113.2507324219
1.5753030777,-0.9160156250,0.6215820312,0.1069335938,37.6892089844,10.1623535156,-120.5749511719
1.5779771805,-0.9160156250,0.6215820312,0.1069335938,37.6892089844,10.1623535156,-120.5749511719
1.5805511475,-0.9160156250,0.6215820312,0.1069335938,34.4390869141,13.7176513672,-126.9989013672
1.5831220150,-0.9160156250,0.6215820312,0.1069335938,34.4390869141,13.7176513672,-126.9989013672
1.5856981277,-1.0634765625,0.6972656250,0.0405273438,31.7687988281,16.4794921875,-134.0332031250
1.5884041786,-1.0634765625,0.6972656250,0.0405273438,31.7687988281,16.4794921875,-134.0332031250
1.5909810066,-1.0634765625,0.6972656250,0.0405273438,32.7911376953,18.4326171875,-140.3656005859
1.5935602188,-1.0634765625,0.6972656250,0.0405273438,32.7911376953,18.4326171875,-140.3656005859
1.5961391926,-1.4370117188,0.7846679688,-0.0581054688,27.7557373047,21.1029052734,-145.5230712891
1.5988922119,-1.4370117188,0.7846679688,-0.0581054688,27.7557373047,21.1029052734,-145.5230712891
1.6015980244,-1.4370117188,0.7846679688,-0.0581054688,31.6619873047,23.9410400391,-150.5889892578
1.6043021679,-1.4370117188,0.7846679688,-0.0581054688,32.0739746094,23.9410400391,-150.5889892578
1.6072452068,-1.7211914062,0.4169921875,-0.0361328125,37.7044677734,27.7404785156,-157.0281982422
1.6099121571,-1.7211914062,0.4169921875,-0.0361328125,37.7044677734,27.7404785156,-157.0281982422
1.6127440929,-1.7211914062,0.4169921875,-0.0361328125,37.8265380859,30.0750732422,-163.6657714844
1.6153271198,-1.7211914062,0.3491210938,-0.0415039062,37.8265380859,30.0750732422,-163.6657714844
1.6180322170,-1.6503906250,0.3491210938,-0.0415039062,32.4859619141,28.2745361328,-168.7927246094
1.6206021309,-1.6503906250,0.3491210938,-0.0415039062,32.4859619141,28.2745361328,-168.7927246094
1.6231741905,-1.6503906250,0.3491210938,-0.0415039062,32.4859619141,24.6887207031,-172.7752685547
1.6257410049,-1.6430664062,0.2973632812,0.0615234375,29.6325683594,24.6887207031,-172.7752685547
1.6283161640,-1.6430664062,0.2973632812,0.0615234375,29.6325683594,24.6887207031,-176.8646240234
1.6308851242,-1.6430664062,0.2973632812,0.0615234375,30.7617187500,21.8353271484,-176.8646240234
1.6334621906,-1.6430664062,0.2973632812,0.0615234375,30.7617187500,21.8353271484,-180.7708740234
1.6360361576,-1.5644531250,0.0800781250,0.1235351562,37.2772216797,17.1356201172,-182.6019287109
1.6386201382,-1.5644531250,0.0800781250,0.1235351562,37.2772216797,17.1356201172,-182.6019287109
1.6411931515,-1.5644531250,0.0800781250,0.1235351562,44.4793701172,11.9018554688,-193.6187744141
1.6437702179,-1.5644531250,0.0800781250,0.1235351562,44.4793701172,11.9018554688,-193.6187744141
1.6463441849,-1.3208007812,-0.1054687500,0.2211914062,52.5360107422,6.8054199219,-206.5582275391
1.6489770412,-1.3208007812,-0.1054687500,0.2211914062,52.5360107422,6.8054199219,-206.5582275391
1.6516551971,-1.3208007812,-0.1054687500,0.2211914062,60.5621337891,2.5482177734,-216.0034179688
1.6542241573,-1.3208007812,-0.1054687500,0.2211914062,60.5621337891,2.5482177734,-216.0034179688
1.6568300724,-0.9282226562,-0.1640625000,0.2358398438,60.4858398438,1.7547607422,-221.3897705078
1.6593990326,-0.9282226562,-0.1640625000,0.2358398438,60.4858398438,1.7547607422,-221.3897705078
1.6619691849,-0.9282226562,-0.1640625000,0.2358398438,53.2989501953,3.3416748047,-225.5859375000
1.6645410061,-0.9282226562,-0.1640625000,0.2358398438,53.2989501953,3.3416748047,-225.5859375000
1.6672260761,-0.5703125000,0.0654296875,0.1250000000,42.1447753906,8.4686279297,-221.5728759766
1.6698009968,-0.5703125000,0.0654296875,0.1250000000,42.1447753906,8.4686279297,-221.5728759766
1.6723680496,-0.5703125000,0.0654296875,0.1250000000,34.3322753906,15.7775878906,-201.9500732422
1.6749410629,-0.5703125000,0.0654296875,0.1250000000,32.7606201172,15.7775878906,-201.9500732422
1.6775240898,-0.4116210938,0.3608398438,0.0527343750,32.7606201172,23.5900878906,-178.0395507812
1.6800951958,-0.4116210938,0.3608398438,0.0527343750,30.3497314453,23.4527587891,-178.0395507812
1.6826682091,-0.4116210938,0.3608398438,0.0527343750,30.3497314453,23.4527587891,-158.9965820312
1.6852400303,-0.4116210938,0.3608398438,-0.0722656250,23.4680175781,28.1372070312,-158.9965820312
1.6879441738,-0.4560546875,0.4624023438,-0.0122070312,23.4680175781,28.1372070312,-140.6707763672
1.6906530857,-0.4560546875,0.4624023438,-0.0122070312,10.1318359375,29.9072265625,-140.6707763672
1.6933581829,-0.4560546875,0.4624023438,-0.0122070312,10.1318359375,29.9072265625,-117.6757812500
1.6960661411,-0.8310546875,0.6967773438,0.0161132812,-3.5858154297,33.7829589844,-117.6757812500
1.6987872124,-0.7622070312,0.6967773438,0.0161132812,-3.5858154297,33.7829589844,-91.6290283203
1.7014861107,-0.7622070312,0.6967773438,0.0161132812,-12.7868652344,40.0390625000,-91.6290283203
1.7041912079,-0.7622070312,0.6967773438,0.0161132812,-12.7868652344,40.0390625000,-68.2525634766
1.7069091797,-0.6386718750,0.7739257812,0.0332031250,-13.8702392578,40.2526855469,-68.2525634766
1.7096171379,-0.6386718750,0.7739257812,0.0332031250,-13.8702392578,40.2526855469,-48.7213134766
1.7123281956,-0.6386718750,0.7739257812,0.0332031250,-10.0555419922,34.1796875000,-47.3480224609
1.7151410580,-0.6386718750,0.7739257812,0.0332031250,-10.0555419922,34.1796875000,-27.7709960938
1.7178971767,-0.2729492188,0.8457031250,0.2812500000,-12.4511718750,22.5067138672,-27.7709960938
1.7206060886,-0.2729492188,0.8457031250,0.2812500000,-12.4511718750,22.5067138672,-12.4969482422
1.7234640121,-0.2729492188,0.8457031250,0.2812500000,-23.0712890625,12.7716064453,-12.4969482422
1.7266240120,-0.1997070312,0.3740234375,-0.0146484375,-23.0712890625,7.5073242188,-2.5634765625
1.7291960716,-0.1997070312,0.3740234375,-0.0146484375,-29.9835205078,7.5073242188,-2.5634765625
1.7317631245,-0.1997070312,0.3740234375,-0.0146484375,-29.9835205078,7.5073242188,6.4544677734
1.7343311310,-0.1997070312,0.3740234375,-0.0146484375,-35.2478027344,2.9449462891,6.4544677734
1.7369291782,-0.2480468750,0.2006835938,-0.1103515625,-35.2478027344,2.9449462891,16.9372558594
1.7396390438,-0.2480468750,0.2006835938,-0.1103515625,-43.4722900391,-1.0833740234,16.9372558594
1.7423441410,-0.2480468750,0.2006835938,-0.1103515625,-43.4722900391,-1.0833740234,25.1007080078
1.7450430393,-0.2480468750,0.2006835938,-0.1103515625,-51.7730712891,-3.4790039062,25.1007080078
1.7477650642,-0.3076171875,0.0444335938,-0.1074218750,-51.7730712891,-3.4790039062,30.4718017578
1.7504761219,-0.3076171875,0.0444335938,-0.1074218750,-57.7697753906,-4.5471191406,30.4718017578
1.7531812191,-0.3076171875,0.0444335938,-0.1074218750,-57.7697753906,-4.5471191406,32.7758789062
1.7558870316,-0.3076171875,0.0444335938,-0.0703125000,-64.0411376953,-5.0048828125,32.7758789062
1.7584960461,-0.2167968750,-0.0258789062,-0.0703125000,-64.0411376953,-5.0048828125,32.7758789062
1.7610762119,-0.2167968750,-0.0258789062,-0.0703125000,-68.8018798828,-6.1035156250,33.6456298828
1.7636511326,-0.2167968750,-0.0258789062,-0.0703125000,-68.8018798828,-6.1035156250,33.6456298828
1.7662220001,-0.2167968750,-0.0258789062,-0.0527343750,-70.6329345703,-7.1105957031,33.7371826172
1.7688140869,-0.1054687500,-0.0361328125,-0.0527343750,-70.6329345703,-7.1105957031,33.7371826172
1.7713861465,-0.1054687500,-0.0361328125,-0.0527343750,-69.0002441406,-7.0190429688,33.6151123047
1.7739551067,-0.1054687500,-0.0361328125,-0.0527343750,-69.0002441406,-7.0190429688,33.6151123047
1.7765960693,-0.1054687500,-0.0473632812,-0.0302734375,-64.1021728516,-6.2408447266,33.6761474609
1.7791900635,-0.0292968750,-0.0473632812,-0.0302734375,-64.1021728516,-6.2408447266,33.6761474609
1.7818682194,-0.0292968750,-0.0473632812,-0.0302734375,-56.6406250000,-5.1116943359,33.3862304688
1.7844471931,-0.0292968750,-0.0473632812,-0.0302734375,-56.6406250000,-5.1116943359,33.3862304688
1.7872180939,-0.0004882812,-0.1064453125,-0.0239257812,-48.2025146484,-3.6926269531,31.3873291016
1.7899291515,-0.0004882812,-0.1064453125,-0.0239257812,-48.2025146484,-3.6926269531,31.3873291016
1.7926301956,-0.0004882812,-0.1064453125,-0.0239257812,-38.8488769531,-3.0975341797,28.0761718750
1.7953372002,-0.0004882812,-0.1064453125,-0.0239257812,-38.8488769531,-3.0975341797,28.0761718750
1.7980880737,-0.0156250000,-0.1879882812,-0.0966796875,-30.5328369141,-2.7618408203,23.1170654297
1.8007941246,-0.0156250000,-0.1879882812,-0.0966796875,-30.5328369141,-2.7618408203,23.1170654297
1.8034930229,-0.0156250000,-0.1879882812,-0.0966796875,-25.2075195312,-1.5869140625,16.9067382812
1.8062040806,-0.0156250000,-0.1879882812,-0.2216796875,-25.2075195312,-1.5869140625,16.9067382812
1.8089241982,-0.0571289062,-0.2739257812,-0.1630859375,-22.2625732422,0.3814697266,10.4522705078
1.8116312027,-0.0571289062,-0.2739257812,-0.1630859375,-22.2625732422,0.3814697266,10.4522705078
1.8143341541,-0.0571289062,-0.2739257812,-0.1630859375,-21.1181640625,2.1514892578,3.7994384766
1.8170530796,-0.0571289062,-0.3037109375,-0.1704101562,-21.1181640625,2.1514892578,3.7994384766
1.8196210861,-0.0136718750,-0.3037109375,-0.1704101562,-20.9808349609,3.6926269531,-2.3956298828
1.8221910000,-0.0136718750,-0.3037109375,-0.1704101562,-20.9808349609,3.6926269531,-2.3956298828
1.8247590065,-0.0136718750,-0.3037109375,-0.1704101562,-17.0745849609,5.2185058594,-8.8806152344
1.8274350166,0.1113281250,-0.2353515625,-0.1367187500,-18.6614990234,5.2185058594,-8.8806152344
1.8300061226,0.0317382812,-0.2353515625,-0.1367187500,-18.6614990234,6.4544677734,-15.7470703125
1.8325810432,0.0317382812,-0.2353515625,-0.1367187500,-13.3361816406,6.4544677734,-15.7470703125
1.8351511955,0.0317382812,-0.2353515625,-0.1367187500,-13.3361816406,6.4544677734,-22.1557617188
1.8378782272,0.0566406250,-0.1264648438,-0.1035156250,-6.4392089844,6.8206787109,-22.1557617188
1.8405430317,0.0566406250,-0.1264648438,-0.1035156250,-6.4392089844,6.8206787109,-27.4810791016
1.8433611393,0.0566406250,-0.1264648438,-0.1035156250,2.3956298828,7.4157714844,-27.4810791016
1.8466031551,0.0566406250,-0.1264648438,-0.1035156250,13.4277343750,7.2174072266,-32.2113037109
1.8493170738,0.0292968750,-0.0136718750,-0.0566406250,13.4277343750,7.2174072266,-32.2113037109
1.8520262241,0.0292968750,-0.0136718750,-0.0566406250,25.2380371094,6.2103271484,-36.7584228516
1.8547282219,0.0292968750,-0.0136718750,-0.0566406250,25.2380371094,6.2103271484,-36.7584228516
1.8574800491,0.0292968750,0.0854492188,-0.0522460938,36.7279052734,5.8898925781,-41.2902832031
1.8601810932,-0.0161132812,0.0854492188,-0.0522460938,36.7279052734,5.8898925781,-41.2902832031
1.8628890514,-0.0161132812,0.0854492188,-0.0522460938,47.1343994141,4.9743652344,-45.6390380859
1.8655891418,-0.0161132812,0.0854492188,-0.0522460938,47.1343994141,4.9743652344,-45.6390380859
1.8682200909,-0.0449218750,0.1352539062,-0.0278320312,54.9468994141,3.5095214844,-48.9807128906
1.8707950115,-0.0449218750,0.1352539062,-0.0278320312,57.8765869141,3.5095214844,-48.9807128906
1.8733630180,-0.0449218750,0.1352539062,-0.0278320312,57.8765869141,3.5095214844,-51.3610839844
1.8759341240,-0.0449218750,0.1352539062,-0.0278320312,68.6340332031,2.0904541016,-51.3610839844
1.8785130978,-0.0600585938,0.1328125000,-0.0029296875,68.6340332031,2.0904541016,-53.1005859375
1.8810842037,-0.0600585938,0.1328125000,-0.0029296875,77.0874023438,2.0446777344,-53.1005859375
1.8836522102,-0.0600585938,0.1328125000,-0.0029296875,77.0874023438,2.0446777344,-53.1005859375
1.8862221241,-0.0600585938,0.1328125000,-0.0029296875,81.7413330078,2.3498535156,-53.5888671875
1.8888430595,-0.0625000000,0.1440429688,0.0029296875,81.7413330078,2.3498535156,-53.5888671875
1.8914101124,-0.0625000000,0.1440429688,0.0029296875,85.7696533203,1.5563964844,-52.2613525391
1.8939800262,-0.0625000000,0.1440429688,0.0029296875,85.7696533203,1.5563964844,-52.2613525391
1.8967311382,-0.0625000000,0.1440429688,0.0029296875,90.6524658203,0.2593994141,-48.9349365234
1.8993101120,-0.0917968750,0.1816406250,-0.0576171875,90.6524658203,0.2593994141,-48.9349365234
1.9018812180,-0.0917968750,0.1816406250,-0.0576171875,96.8475341797,-0.0915527344,-43.1060791016
1.9044470787,-0.0917968750,0.1816406250,-0.0576171875,96.8475341797,-0.0915527344,-43.1060791016
1.9071841240,-0.0917968750,0.1816406250,-0.1826171875,103.2562255859,1.3732910156,-35.9344482422
1.9098670483,-0.1596679688,0.1757812500,-0.1816406250,103.2562255859,1.3732910156,-35.9344482422
1.9124391079,-0.1596679688,0.1757812500,-0.1816406250,105.6671142578,4.6539306641,-28.5949707031
1.9150080681,-0.1596679688,0.1757812500,-0.1816406250,105.6671142578,4.6539306641,-28.5949707031
1.9176239967,-0.1596679688,0.1757812500,-0.2573242188,101.3641357422,7.5073242188,-21.8811035156
1.9201970100,-0.1567382812,0.1450195312,-0.2573242188,101.3641357422,7.5073242188,-21.8811035156
1.9227700233,-0.1567382812,0.1450195312,-0.2573242188,93.5516357422,8.7127685547,-15.7623291016
1.9253420830,-0.1567382812,0.1450195312,-0.2573242188,91.3238525391,8.7127685547,-15.7623291016
1.9279241562,-0.1567382812,0.1450195312,-0.1884765625,91.3238525391,4.8065185547,-8.5754394531
1.9304981232,-0.0991210938,0.1342773438,-0.1884765625,81.8939208984,7.7514648438,-8.5754394531
1.9330720901,-0.0991210938,0.1342773438,-0.1884765625,81.8939208984,7.7514648438,-1.3122558594
1.9356441498,-0.0991210938,0.1342773438,-0.1884765625,72.6318359375,8.3465576172,-1.3122558594
1.9383401871,-0.0991210938,0.2446289062,-0.2236328125,72.6318359375,8.3465576172,6.0729980469
1.9410440922,-0.1074218750,0.2446289062,-0.2236328125,63.2629394531,9.9792480469,6.0729980469
1.9437460899,-0.1074218750,0.2446289062,-0.2236328125,63.2629394531,9.9792480469,16.7694091797
1.9464662075,-0.1074218750,0.2446289062,-0.2236328125,64.1632080078,22.3083496094,16.7694091797
1.9491841793,-0.3745117188,1.8603515625,-0.3754882812,64.1632080078,22.3083496094,50.4302978516
1.9518990517,-0.3745117188,1.8603515625,-0.3754882812,51.3305664062,31.5856933594,50.4302978516
1.9546070099,-0.3745117188,1.8603515625,-0.3754882812,51.3305664062,31.5856933594,99.0142822266
1.9573211670,-0.3745117188,1.8603515625,-0.3754882812,0.7019042969,11.3220214844,99.0142822266
1.9600272179,-0.5224609375,2.7812500000,0.3720703125,0.7019042969,11.3220214844,139.6026611328
1.9627780914,-0.5224609375,2.7812500000,0.3720703125,-18.9361572266,8.6517333984,139.6026611328
1.9654991627,-0.5224609375,2.7812500000,0.3720703125,-18.9361572266,4.7454833984,188.9190673828
1.9685201645,-0.5224609375,2.5742187500,0.5683593750,-25.6042480469,5.2032470703,188.9190673828
1.9712250233,-1.3676757812,2.5742187500,0.5683593750,-25.6042480469,-6.5155029297,233.3526611328
1.9740350246,-1.3676757812,2.5742187500,0.5683593750,-57.7850341797,-5.3710937500,233.3526611328
1.9767401218,-1.3676757812,2.5742187500,0.5683593750,-57.7850341797,-5.3710937500,214.2639160156
1.9793140888,-2.0439453125,-1.9711914062,-0.1074218750,-67.0623779297,-4.3334960938,214.2639160156
1.9818861485,-2.0439453125,-1.9711914062,-0.1074218750,-67.0623779297,-4.3334960938,156.2194824219
1.9844591618,-2.0439453125,-1.9711914062,-0.1074218750,-19.6838378906,-24.3072509766,156.2194824219
1.9871251583,-2.0439453125,-1.9711914062,-0.1074218750,-19.6838378906,-24.3072509766,109.3444824219
1.9898321629,-2.0078125000,-2.4497070312,0.1914062500,1.0986328125,-25.6195068359,107.0098876953
1.9925341606,-2.0078125000,-2.4497070312,0.1914062500,1.0986328125,-25.6195068359,91.3848876953
1.9952402115,-2.0078125000,-2.4497070312,0.1914062500,20.8587646484,-15.4113769531,89.9047851562
1.9978871346,-2.0078125000,-2.4497070312,0.1914062500,20.8587646484,-15.4113769531,89.9047851562
2.0004642010,-1.3554687500,-0.3300781250,0.9418945312,38.9556884766,-18.0206298828,95.7183837891
2.0030372143,-1.3554687500,-0.3300781250,0.9418945312,38.9556884766,-18.0206298828,95.7183837891
2.0056090355,-1.3554687500,-0.3300781250,0.9418945312,18.4173583984,-22.7355957031,104.3548583984
2.0082311630,-1.3554687500,-0.3300781250,0.4418945312,18.4173583984,-22.7355957031,104.3548583984
2.0108010769,-1.6396484375,0.0561523438,0.3754882812,-35.2478027344,-27.1759033203,99.7467041016
2.0133771896,-1.6396484375,0.0561523438,0.3754882812,-35.2478027344,-27.1759033203,99.7467041016
2.0159540176,-1.6396484375,0.0561523438,0.3754882812,-68.2983398438,-26.0467529297,86.8377685547
2.0187032223,-1.6396484375,-0.3188476562,0.0712890625,-68.2983398438,-26.0467529297,86.8377685547
2.0212831497,-1.4458007812,-0.2866210938,0.0712890625,-77.0111083984,-13.3819580078,77.2399902344
2.0238571167,-1.4458007812,-0.2866210938,0.0712890625,-77.0111083984,-13.3819580078,77.2399902344
2.0265090466,-1.4458007812,-0.2866210938,0.0712890625,-86.3952636719,-1.4801025391,70.2819824219
2.0290830135,-1.4458007812,0.6254882812,0.2631835938,-86.3952636719,-1.4801025391,70.2819824219
2.0316481590,-0.6259765625,0.6254882812,0.2631835938,-90.3015136719,3.4942626953,59.4787597656
2.0342211723,-0.6259765625,0.6254882812,0.2631835938,-93.1549072266,3.4942626953,59.4787597656
2.0369310379,-0.6259765625,0.6254882812,0.2631835938,-97.0611572266,1.4343261719,47.1038818359
2.0396060944,-0.5273437500,0.6459960938,0.3105468750,-94.5587158203,1.4343261719,47.1038818359
2.0422739983,-0.5273437500,0.6459960938,0.3105468750,-94.5587158203,-16.5863037109,40.1306152344
2.0449512005,-0.5273437500,0.6459960938,0.3105468750,-92.5292968750,-16.5863037109,40.1306152344
2.0476930141,-0.5273437500,0.6459960938,0.3105468750,-92.5292968750,-30.7769775391,36.3159179688
2.0503990650,-1.3789062500,0.0170898438,0.3759765625,-78.5369873047,-30.7769775391,36.3159179688
2.0531051159,-1.3789062500,0.0170898438,0.3759765625,-78.5369873047,-31.2500000000,33.7066650391
2.0558140278,-1.3789062500,0.0170898438,0.3759765625,-56.0760498047,-31.2500000000,33.7066650391
2.0585310459,-1.3789062500,0.0170898438,-0.2490234375,-56.0760498047,-23.9868164062,34.7595214844
2.0612430573,-3.4404296875,-0.1289062500,-0.1362304688,-55.5725097656,-23.9868164062,34.7595214844
2.0639472008,-3.4404296875,-0.1289062500,-0.1362304688,-55.5725097656,-3.5705566406,26.7333984375
2.0666620731,-3.4404296875,-0.1289062500,-0.1362304688,-55.4656982422,-3.5705566406,26.7333984375
2.0692481995,-3.4404296875,0.2460937500,-0.6523437500,-55.4656982422,-3.5705566406,22.4914550781
2.0718200207,-2.6235351562,0.2402343750,-0.6523437500,-51.6052246094,13.2293701172,22.4914550781
2.0743911266,-2.6235351562,0.2402343750,-0.6523437500,-51.6052246094,13.2293701172,18.5852050781
2.0771160126,-2.6235351562,0.2402343750,-0.6523437500,-67.9473876953,15.7318115234,18.1121826172
2.0796961784,-0.8735351562,0.7358398438,-0.4682617188,-67.9473876953,15.7318115234,6.3934326172
2.0823531151,-0.7968750000,0.7358398438,-0.4682617188,-88.1500244141,14.6484375000,5.5999755859
2.0850720406,-0.7968750000,0.7358398438,-0.4682617188,-88.1500244141,14.6484375000,-8.3618164062
2.0879681110,-0.7968750000,0.7358398438,-0.4682617188,-90.3320312500,9.9182128906,-8.3618164062
2.0906710625,-0.2202148438,0.9409179688,-0.2534179688,-90.3320312500,9.9182128906,-22.0947265625
2.0933790207,-0.2202148438,0.9409179688,-0.2534179688,-82.0922851562,4.2419433594,-22.0947265625
2.0960872173,-0.2202148438,0.9409179688,-0.2534179688,-82.0922851562,4.2419433594,-32.2265625000
2.0988001823,-0.2202148438,0.9409179688,-0.2534179688,-58.2733154297,0.5493164062,-32.2265625000
2.1016101837,-0.2460937500,0.9428710938,0.0195312500,-58.2733154297,0.5493164062,-39.7491455078
2.1043131351,-0.2460937500,0.9428710938,0.0195312500,-20.3399658203,-1.7242431641,-39.7491455078
2.1070241928,-0.2460937500,0.9428710938,0.0195312500,-20.3399658203,-1.7242431641,-49.1638183594
2.1097249985,-0.2460937500,0.7543945312,0.2446289062,21.1486816406,-4.3640136719,-49.1638183594
2.1124281883,-0.4614257812,0.7543945312,0.2446289062,21.1486816406,-4.3640136719,-56.9000244141
2.1151320934,-0.4614257812,0.7543945312,0.2446289062,60.7910156250,-8.5449218750,-56.9000244141
2.1178181171,-0.4614257812,0.7543945312,0.2446289062,60.7910156250,-8.5449218750,-60.8062744141
2.1203970909,-0.7460937500,0.4697265625,0.3090820312,86.5325927734,-10.7421875000,-61.7828369141
2.1229751110,-0.7460937500,0.4697265625,0.3090820312,86.5325927734,-10.7421875000,-61.7828369141
2.1255512238,-0.7460937500,0.4697265625,0.3090820312,95.9777832031,-11.6729736328,-64.3920898438
2.1281340122,-0.7460937500,0.4697265625,0.3090820312,95.9777832031,-11.6729736328,-64.3920898438
2.1307101250,-0.8212890625,0.1689453125,0.2460937500,96.8627929688,-11.9018554688,-65.1245117188
2.1332859993,-0.8212890625,0.1689453125,0.2460937500,96.8627929688,-11.9018554688,-65.1245117188
2.1358621120,-0.8212890625,0.1689453125,0.2460937500,92.7429199219,-9.9029541016,-64.8956298828
2.1385781765,-0.8212890625,0.1689453125,0.2460937500,92.7429199219,-9.9029541016,-64.8956298828
2.1411511898,-0.6982421875,0.0239257812,0.1997070312,85.9069824219,-6.7138671875,-63.5375976562
2.1437270641,-0.6982421875,0.0239257812,0.1997070312,85.9069824219,-6.7138671875,-63.5375976562
2.1462972164,-0.6982421875,0.0239257812,0.1997070312,77.6672363281,-4.0283203125,-61.2030029297
2.1490631104,-0.6982421875,0.0239257812,0.1997070312,77.6672363281,-4.0283203125,-61.2030029297
2.1517701149,-0.5854492188,-0.0434570312,0.1352539062,69.5800781250,-1.6174316406,-57.3883056641
2.1544680595,-0.5854492188,-0.0434570312,0.1352539062,69.5800781250,-1.6174316406,-57.3883056641
2.1571841240,-0.5854492188,-0.0434570312,0.1352539062,59.6008300781,-0.4882812500,-52.6428222656
2.1598901749,-0.5854492188,-0.0434570312,0.1284179688,59.6008300781,-0.4882812500,-52.6428222656
2.1626000404,-0.5224609375,-0.0566406250,0.1284179688,48.3093261719,-1.3885498047,-49.3164062500
2.1654071808,-0.5224609375,-0.0566406250,0.1284179688,48.3093261719,-1.3885498047,-49.3164062500
2.1681241989,-0.5224609375,-0.0566406250,0.1284179688,37.2314453125,-2.8381347656,-45.4406738281
2.1708271503,-0.5278320312,0.0336914062,0.0263671875,37.2314453125,-2.8381347656,-45.4406738281
2.1735260487,-0.5278320312,0.0336914062,0.0263671875,29.6630859375,-2.7923583984,-40.5731201172
2.1762320995,-0.5278320312,0.0336914062,0.0263671875,29.6630859375,-2.7923583984,-40.5731201172
2.1788229942,-0.5278320312,0.0336914062,0.0263671875,27.4353027344,-2.3498535156,-36.6516113281
2.1813931465,-0.5234375000,0.1416015625,-0.0161132812,27.4353027344,-2.3498535156,-36.6516113281
2.1839640141,-0.5234375000,0.1416015625,-0.0161132812,27.4353027344,-3.5095214844,-33.1726074219
2.1865460873,-0.5234375000,0.1416015625,-0.0161132812,27.5115966797,-3.5095214844,-33.1726074219
2.1892471313,-0.5234375000,0.1416015625,-0.0161132812,27.5115966797,-4.6386718750,-29.9835205078
2.1919531822,-0.5161132812,0.0991210938,-0.0415039062,29.7088623047,-4.6386718750,-29.9835205078
2.1946589947,-0.5161132812,0.0991210938,-0.0415039062,29.7088623047,-5.4016113281,-26.4434814453
2.1973800659,-0.5161132812,0.0991210938,-0.0415039062,31.0668945312,-5.4016113281,-26.4434814453
2.2000870705,-0.5161132812,0.0991210938,-0.0795898438,31.0668945312,-4.5776367188,-22.3541259766
2.2028641701,-0.5458984375,0.0571289062,-0.0795898438,27.4505615234,-4.5776367188,-22.3541259766
2.2055881023,-0.5458984375,0.0571289062,-0.0795898438,19.6380615234,-4.5013427734,-18.0206298828
2.2086272240,-0.5458984375,0.0571289062,-0.0795898438,20.8282470703,-4.5013427734,-18.0206298828
2.2113330364,-0.5698242188,0.0253906250,-0.0541992188,12.8021240234,-4.6997070312,-14.0075683594
2.2140350342,-0.5698242188,0.0253906250,-0.0541992188,12.8021240234,-4.6997070312,-14.0075683594
2.2167510986,-0.5698242188,0.0253906250,-0.0541992188,3.0670166016,-5.0506591797,-10.0097656250
2.2194540501,-0.5698242188,0.0253906250,-0.0541992188,3.0670166016,-5.0506591797,-10.0097656250
2.2221560478,-0.6093750000,0.0229492188,-0.0390625000,-6.8511962891,-4.8828125000,-5.7525634766
2.2248539925,-0.6093750000,0.0229492188,-0.0390625000,-6.8511962891,-4.8828125000,-5.7525634766
2.2275671959,-0.6093750000,0.0229492188,-0.0390625000,-14.1906738281,-4.3334960938,-2.3956298828
2.2303721905,-0.6093750000,0.0229492188,0.0185546875,-14.1906738281,-4.3334960938,-2.3956298828
2.2330760956,-0.6362304688,0.0258789062,0.0185546875,-18.8446044922,-3.3416748047,0.6256103516
2.2357811928,-0.6362304688,0.0258789062,0.0185546875,-18.8446044922,-3.3416748047,0.6256103516
2.2383940220,-0.6362304688,0.0258789062,0.0185546875,-22.7508544922,-2.5177001953,3.1127929688
2.2409651279,-0.6362304688,0.0961914062,0.0180664062,-20.7519531250,-2.5177001953,3.1127929688
2.2435321808,-0.6943359375,0.0961914062,0.0180664062,-20.7519531250,-2.5177001953,5.3710937500
2.2461040020,-0.6943359375,0.0961914062,0.0180664062,-22.3999023438,-2.1514892578,5.3710937500
2.2486791611,-0.6943359375,0.0961914062,0.0180664062,-22.3999023438,-2.1514892578,7.7056884766
2.2512481213,-0.6943359375,0.1459960938,0.0429687500,-24.1088867188,-2.5024414062,7.7056884766
2.2538170815,-0.7358398438,0.1459960938,0.0429687500,-24.1088867188,-2.5024414062,7.7056884766
2.2565212250,-0.7358398438,0.1459960938,0.0429687500,-25.9704589844,-2.9144287109,9.5214843750
2.2590920925,-0.7358398438,0.1459960938,0.0429687500,-25.9704589844,-2.9144287109,9.5214843750
2.2616620064,-0.7788085938,0.1201171875,0.0444335938,-27.8167724609,-3.7231445312,9.9182128906
2.2642381191,-0.7788085938,0.1201171875,0.0444335938,-27.8167724609,-3.7231445312,9.9182128906
2.2669742107,-0.7788085938,0.1201171875,0.0444335938,-29.6020507812,-4.4860839844,10.5438232422
2.2695481777,-0.7788085938,0.1201171875,0.0444335938,-29.6020507812,-4.4860839844,10.5438232422
2.2721250057,-0.8325195312,0.1401367188,0.0429687500,-30.5023193359,-4.2114257812,11.6119384766
2.2747001648,-0.8325195312,0.1401367188,0.0429687500,-30.5023193359,-4.2114257812,11.6119384766
2.2773342133,-0.8325195312,0.1401367188,0.0429687500,-30.7159423828,-2.7923583984,13.0004882812
2.2800412178,-0.8325195312,0.1401367188,0.0429687500,-30.7159423828,-2.7923583984,13.0004882812
2.2827501297,-0.8608398438,0.1635742188,0.0288085938,-30.2581787109,-1.9226074219,13.1225585938
2.2854511738,-0.8608398438,0.1635742188,0.0288085938,-30.2581787109,-1.9226074219,13.1225585938
2.2881660461,-0.8608398438,0.1635742188,0.0288085938,-28.7628173828,-1.9378662109,12.4969482422
2.2908701897,-0.8608398438,0.1635742188,0.0341796875,-28.7628173828,-1.9378662109,12.4969482422
2.2936871052,-0.8535156250,0.2153320312,0.0341796875,-26.6723632812,-2.1057128906,12.0697021484
2.2964022160,-0.8535156250,0.2153320312,0.0341796875,-26.6723632812,-2.1057128906,12.0697021484
2.2991092205,-0.8535156250,0.2153320312,0.0341796875,-23.2849121094,-1.6174316406,11.8103027344
2.3018090725,-0.8535156250,0.2583007812,0.0239257812,-23.2849121094,-1.6174316406,11.8103027344
2.3045151234,-0.8359375000,0.2583007812,0.0239257812,-19.9890136719,-1.5563964844,10.4064941406
2.3072052002,-0.8359375000,0.2583007812,0.0239257812,-19.9890136719,-1.5563964844,10.4064941406
2.3097770214,-0.8359375000,0.2583007812,0.0239257812,-16.1132812500,-0.9307861328,8.9569091797
2.3123490810,-0.7924804688,0.2758789062,0.0209960938,-16.1132812500,-0.9307861328,8.9569091797
2.3149170876,-0.7924804688,0.2758789062,0.0209960938,-12.5579833984,-0.5645751953,7.6904296875
2.3176980019,-0.7924804688,0.2758789062,0.0209960938,-12.5579833984,-0.5645751953,7.6904296875
2.3202650547,-0.7924804688,0.2758789062,0.0209960938,-10.6964111328,-0.9613037109,6.4086914062
2.3230252266,-0.7446289062,0.2797851562,0.0336914062,-10.6964111328,-0.9613037109,6.4086914062
2.3256101608,-0.7446289062,0.2797851562,0.0336914062,-8.5449218750,-1.1901855469,4.7607421875
2.3289752007,-0.7446289062,0.2797851562,0.0336914062,-8.5449218750,-1.1901855469,4.7607421875
2.3315382004,-0.7446289062,0.2797851562,0.0673828125,-6.9732666016,-1.2664794922,2.0751953125
2.3340981007,-0.7324218750,0.2719726562,0.0673828125,-6.9732666016,-1.2664794922,2.0751953125
2.3367271423,-0.7324218750,0.2719726562,0.0673828125,-5.9204101562,-1.7700195312,0.2136230469
2.3392901421,-0.7324218750,0.2719726562,0.0673828125,-5.9204101562,-1.7700195312,0.2136230469
2.3418540955,-0.7324218750,0.2524414062,0.0810546875,-2.0141601562,-1.9683837891,-1.5411376953
2.3444161415,-0.7441406250,0.2524414062,0.0810546875,-3.5705566406,-1.9683837891,-1.5411376953
2.3469800949,-0.7441406250,0.2524414062,0.0810546875,-3.5705566406,-1.9683837891,-3.1890869141
2.3495380878,-0.7441406250,0.2524414062,0.0810546875,-0.7934570312,-1.1138916016,-3.1890869141
2.3520960808,-0.7441406250,0.2304687500,0.0825195312,-0.7934570312,-1.1138916016,-4.9743652344
2.3546531200,-0.7460937500,0.2304687500,0.0825195312,0.3662109375,-1.0681152344,-4.9743652344
2.3573679924,-0.7460937500,0.2304687500,0.0825195312,0.3662109375,-1.0681152344,-4.9743652344
2.3599359989,-0.7460937500,0.2304687500,0.0825195312,1.3275146484,-1.2359619141,-6.4086914062
2.3624951839,-0.7358398438,0.2060546875,0.0561523438,1.3275146484,-1.2359619141,-6.4086914062
2.3650541306,-0.7358398438,0.2060546875,0.0561523438,1.2817382812,-1.7242431641,-7.3699951172
2.3676590919,-0.7358398438,0.2060546875,0.0561523438,1.2817382812,-1.7242431641,-7.3699951172
2.3702211380,-0.7358398438,0.2060546875,0.0561523438,1.0833740234,-1.2664794922,-7.9498291016
2.3727781773,-0.7094726562,0.2138671875,0.0537109375,1.0833740234,-1.2664794922,-7.9498291016
2.3753390312,-0.7094726562,0.2138671875,0.0537109375,0.2441406250,-0.9765625000,-9.0332031250
2.3780040741,-0.7094726562,0.2138671875,0.0537109375,0.2441406250,-0.9765625000,-9.0332031250
2.3805770874,-0.7094726562,0.2138671875,0.0537109375,0.6256103516,-1.0528564453,-9.6893310547
2.3831441402,-0.6967773438,0.2172851562,0.0517578125,0.6256103516,-1.0528564453,-9.6893310547
2.3857140541,-0.6967773438,0.2172851562,0.0517578125,1.1138916016,-0.7781982422,-9.8724365234
2.3884570599,-0.6967773438,0.2172851562,0.0517578125,1.1138916016,-0.7781982422,-9.8724365234
2.3911590576,-0.6967773438,0.2172851562,0.0517578125,2.0446777344,-1.4038085938,-10.1623535156
2.3938601017,-0.6914062500,0.2016601562,0.0327148438,2.0446777344,-1.4038085938,-10.1623535156
2.3966271877,-0.6914062500,0.2016601562,0.0327148438,3.6926269531,-1.2512207031,-10.3149414062
2.3993279934,-0.6914062500,0.2016601562,0.0327148438,3.6926269531,-1.2512207031,-10.3149414062
2.4020330906,-0.6914062500,0.2016601562,0.0297851562,4.6691894531,-1.4038085938,-10.0097656250
2.4047341347,-0.6987304688,0.1782226562,0.0297851562,4.6691894531,-1.4038085938,-10.0097656250
2.4074862003,-0.6987304688,0.1782226562,0.0297851562,6.2561035156,-1.3122558594,-9.5062255859
2.4101881981,-0.6987304688,0.1782226562,0.0297851562,6.2561035156,-1.3122558594,-9.5062255859
2.4128901958,-0.6987304688,0.1699218750,0.0278320312,7.2937011719,-1.5563964844,-8.5144042969
2.4155881405,-0.6987304688,0.1699218750,0.0278320312,7.2937011719,-1.5563964844,-8.5144042969
2.4182062149,-0.6987304688,0.1699218750,0.0278320312,7.0190429688,-1.9378662109,-8.0871582031
2.4208700657,-0.6987304688,0.1699218750,0.0278320312,7.0190429688,-1.9378662109,-8.0871582031
2.4234402180,-0.7050781250,0.1772460938,0.0122070312,7.0190429688,-2.3040771484,-7.7362060547
2.4260091782,-0.7050781250,0.1772460938,0.0122070312,7.3089599609,-2.3040771484,-7.7362060547
2.4287431240,-0.7050781250,0.1772460938,0.0122070312,7.3089599609,-1.9836425781,-6.9580078125
2.4314382076,-0.7050781250,0.1772460938,0.0122070312,6.4544677734,-1.9836425781,-6.9580078125
2.4341380596,-0.7016601562,0.1694335938,0.0063476562,6.4544677734,-2.0446777344,-5.6304931641
2.4368820190,-0.7016601562,0.1694335938,0.0063476562,6.1645507812,-2.0446777344,-5.6304931641
2.4395771027,-0.7016601562,0.1694335938,0.0063476562,6.1645507812,-2.7160644531,-4.8217773438
2.4422740936,-0.7016601562,0.1694335938,0.0195312500,5.9661865234,-2.7160644531,-4.8217773438
2.4450840950,-0.6977539062,0.1606445312,0.0195312500,5.9661865234,-2.2277832031,-4.3945312500
2.4481830597,-0.6977539062,0.1606445312,0.0195312500,4.6081542969,-2.2277832031,-4.3945312500
2.4508810043,-0.6977539062,0.1606445312,0.0195312500,4.2724609375,-2.1667480469,-3.7384033203
2.4535820484,-0.7089843750,0.1640625000,0.0297851562,4.2724609375,-2.1667480469,-3.7384033203
2.4562811852,-0.7089843750,0.1640625000,0.0297851562,2.7313232422,-1.9683837891,-2.8839111328
2.4589900970,-0.7089843750,0.1640625000,0.0297851562,2.7313232422,-1.9683837891,-2.8839111328
2.4616842270,-0.7089843750,0.1640625000,0.0297851562,1.7700195312,-1.9531250000,-1.9378662109
2.4643762112,-0.7241210938,0.1596679688,0.0322265625,1.7700195312,-1.9531250000,-1.9378662109
2.4670631886,-0.7241210938,0.1596679688,0.0322265625,1.7700195312,-1.8157958984,-1.1749267578
2.4696230888,-0.7241210938,0.1596679688,0.0322265625,1.1444091797,-1.8157958984,-1.1749267578
2.4721879959,-0.7241210938,0.1596679688,0.0322265625,1.1444091797,-1.8157958984,-0.0762939453
2.4747540951,-0.7343750000,0.1284179688,0.0341796875,-0.1983642578,-1.2359619141,-0.0762939453
2.4773271084,-0.7343750000,0.1284179688,0.0341796875,-0.1983642578,-1.2359619141,0.7629394531
2.4798960686,-0.7343750000,0.1284179688,0.0341796875,-0.9460449219,-0.1068115234,0.7629394531
2.4824581146,-0.7343750000,0.1284179688,0.0341796875,-0.9460449219,-0.1068115234,0.7629394531
2.4850270748,-0.7304687500,0.1352539062,0.0483398438,-1.9073486328,0.4119873047,1.7852783203
2.4877450466,-0.7304687500,0.1352539062,0.0483398438,-1.9073486328,0.4119873047,1.7852783203
2.4903171062,-0.7304687500,0.1352539062,0.0483398438,-3.0212402344,0.0915527344,3.1280517578
2.4928841591,-0.7304687500,0.1352539062,0.0483398438,-3.0212402344,0.0915527344,3.1280517578
2.4954490662,-0.7270507812,0.1381835938,0.0483398438,-5.2490234375,-0.2746582031,4.0740966797
2.4981582165,-0.7270507812,0.1381835938,0.0483398438,-5.2490234375,-0.2746582031,4.0740966797
2.5007240772,-0.7270507812,0.1381835938,0.0483398438,-6.9580078125,-0.8087158203,3.8452148438
2.5032911301,-0.7270507812,0.1616210938,0.0541992188,-6.9580078125,-0.8087158203,3.8452148438
2.5058581829,-0.7226562500,0.1616210938,0.0541992188,-7.6904296875,-0.5035400391,3.4027099609
2.5085442066,-0.7226562500,0.1616210938,0.0541992188,-7.6904296875,-0.5035400391,3.4027099609
2.5111072063,-0.7226562500,0.1616210938,0.0541992188,-8.1481933594,-0.2746582031,3.6468505859
2.5136740208,-0.7226562500,0.2163085938,0.0336914062,-8.1481933594,-0.2746582031,3.6468505859
2.5162441730,-0.7211914062,0.2163085938,0.0336914062,-7.9040527344,0.0762939453,3.6621093750
2.5188140869,-0.7211914062,0.2163085938,0.0336914062,-7.9040527344,0.0762939453,3.6621093750
2.5213840008,-0.7211914062,0.2163085938,0.0336914062,-3.9978027344,-0.1373291016,3.2348632812
2.5239491463,-0.7250976562,0.2329101562,0.0405273438,-7.0343017578,-0.1373291016,3.2348632812
2.5265231133,-0.7250976562,0.2329101562,0.0405273438,-7.0343017578,-0.1373291016,2.3498535156
2.5291681290,-0.7250976562,0.2329101562,0.0405273438,-5.8288574219,-0.7781982422,2.3498535156
2.5317330360,-0.7250976562,0.2329101562,0.0405273438,-5.8288574219,-0.7781982422,1.1291503906
2.5343031883,-0.7285156250,0.2416992188,0.0546875000,-4.4250488281,-0.8697509766,1.1291503906
2.5370512009,-0.7285156250,0.2416992188,0.0546875000,-4.4250488281,-0.8697509766,-0.0762939453
2.5397109985,-0.7285156250,0.2416992188,0.0546875000,-2.7008056641,-0.1983642578,-0.0762939453
2.5424790382,-0.7285156250,0.2416992188,0.0546875000,-2.7008056641,-0.1983642578,-0.0762939453
2.5450601578,-0.7304687500,0.2197265625,0.0385742188,-0.4272460938,0.3051757812,-1.1291503906
2.5476920605,-0.7304687500,0.2197265625,0.0385742188,-0.4272460938,0.3051757812,-1.1291503906
2.5503621101,-0.7304687500,0.2197265625,0.0385742188,0.9460449219,-0.3967285156,-1.6174316406
2.5529260635,-0.7304687500,0.2197265625,0.0385742188,0.9460449219,-0.3967285156,-1.6174316406
2.5554971695,-0.7333984375,0.2236328125,0.0263671875,1.4038085938,-0.4577636719,-2.6245117188
2.5580642223,-0.7333984375,0.2236328125,0.0263671875,1.4038085938,-0.4577636719,-2.6245117188
2.5606310368,-0.7333984375,0.2236328125,0.0263671875,1.8157958984,-0.8544921875,-3.6163330078
2.5631921291,-0.7333984375,0.2236328125,0.0263671875,1.8157958984,-0.8544921875,-3.6163330078
2.5657560825,-0.7314453125,0.2089843750,0.0200195312,1.8768310547,-0.5645751953,-3.8146972656
2.5683841705,-0.7314453125,0.2089843750,0.0200195312,1.8768310547,-0.5645751953,-3.8146972656
2.5709450245,-0.7314453125,0.2089843750,0.0200195312,2.7160644531,-0.3204345703,-3.7078857422
2.5735051632,-0.7314453125,0.2089843750,0.0258789062,2.7160644531,-0.3204345703,-3.7078857422
2.5760722160,-0.7114257812,0.2119140625,0.0258789062,3.2348632812,-0.4882812500,-4.8217773438
2.5786430836,-0.7114257812,0.2119140625,0.0258789062,3.2348632812,-0.4882812500,-4.8217773438
2.5812079906,-0.7114257812,0.2119140625,0.0258789062,3.2348632812,-0.8850097656,-5.7067871094
2.5837681293,-0.7114257812,0.2119140625,0.0249023438,3.6468505859,-0.8850097656,-5.7067871094
2.5863320827,-0.6938476562,0.2221679688,0.0249023438,3.6468505859,-0.8850097656,-6.3476562500
2.5890920162,-0.6938476562,0.2221679688,0.0249023438,4.4860839844,-0.9918212891,-6.3476562500
2.5916550159,-0.6938476562,0.2221679688,0.0249023438,4.4860839844,-0.9918212891,-6.6986083984
2.5942211151,-0.6938476562,0.2026367188,0.0332031250,5.6304931641,-1.1291503906,-6.6986083984
2.5968329906,-0.7041015625,0.2026367188,0.0332031250,5.6304931641,-1.1291503906,-6.6986083984
2.5993881226,-0.7041015625,0.2026367188,0.0332031250,6.1492919922,-1.6021728516,-6.8817138672
2.6019589901,-0.7041015625,0.2026367188,0.0332031250,6.1492919922,-1.6021728516,-6.8817138672
2.6045219898,-0.7041015625,0.1811523438,0.0390625000,6.5002441406,-1.3427734375,-6.8969726562
2.6071181297,-0.7128906250,0.1811523438,0.0390625000,6.5002441406,-1.3427734375,-6.8969726562
2.6096870899,-0.7128906250,0.1811523438,0.0390625000,6.7749023438,-1.2817382812,-6.6528320312
2.6123511791,-0.7128906250,0.1811523438,0.0390625000,6.7749023438,-1.2817382812,-6.6528320312
2.6149170399,-0.7080078125,0.1728515625,0.0336914062,6.0882568359,-1.8005371094,-6.1950683594
2.6174960136,-0.7080078125,0.1728515625,0.0336914062,6.0882568359,-1.8005371094,-6.1950683594
2.6200590134,-0.7080078125,0.1728515625,0.0336914062,6.1950683594,-1.4343261719,-5.3558349609
2.6226291656,-0.7080078125,0.1728515625,0.0336914062,6.1950683594,-1.4343261719,-5.3558349609
2.6251900196,-0.7114257812,0.1425781250,0.0410156250,5.5847167969,-0.7934570312,-4.7302246094
2.6277990341,-0.7114257812,0.1425781250,0.0410156250,5.5847167969,-0.7934570312,-4.7302246094
2.6303691864,-0.7114257812,0.1425781250,0.0410156250,5.5847167969,-0.4272460938,-3.5400390625
2.6329331398,-0.7114257812,0.1425781250,0.0410156250,4.0893554688,-0.4272460938,-3.5400390625
2.6354980469,-0.7021484375,0.1435546875,0.0424804688,4.0893554688,-0.2136230469,-2.0294189453
2.6381850243,-0.7021484375,0.1435546875,0.0424804688,3.7536621094,-0.2136230469,-2.0294189453
2.6407401562,-0.7021484375,0.1435546875,0.0424804688,3.7536621094,-0.2136230469,-0.8850097656
2.6433091164,-0.7021484375,0.1435546875,0.0424804688,3.2348632812,-0.5493164062,-0.8850097656
2.6458690166,-0.6987304688,0.1440429688,0.0439453125,3.2348632812,-0.5493164062,0.2136230469
2.6485970020,-0.6987304688,0.1440429688,0.0439453125,2.5329589844,-0.6103515625,0.2136230469
2.6512651443,-0.6987304688,0.1440429688,0.0439453125,2.5329589844,-0.6103515625,1.4038085938
2.6541121006,-0.6987304688,0.1440429688,0.0439453125,2.5024414062,-0.9460449219,1.4038085938
2.6571061611,-0.7143554688,0.1147460938,0.0434570312,2.5024414062,-0.9460449219,3.0822753906
2.6596741676,-0.7143554688,0.1147460938,0.0434570312,1.5411376953,-1.0681152344,3.0822753906
2.6622390747,-0.7143554688,0.1147460938,0.0434570312,1.5411376953,-1.0681152344,6.9885253906
2.6648070812,-0.7143554688,0.0971679688,0.0283203125,0.6713867188,-1.0528564453,5.2185058594
2.6674690247,-0.7314453125,0.0971679688,0.0283203125,0.6713867188,-1.0528564453,9.1247558594
2.6701622009,-0.7314453125,0.0971679688,0.0283203125,-0.7171630859,-0.9307861328,7.9498291016
2.6728630066,-0.7314453125,0.0971679688,0.0283203125,-0.7171630859,-0.9307861328,7.9498291016
2.6756691933,-0.7402343750,0.0932617188,0.0380859375,-1.0375976562,-0.4730224609,11.0168457031
2.6783912182,-0.7402343750,0.0932617188,0.0380859375,-1.0375976562,-0.4730224609,14.9230957031
2.6810910702,-0.7402343750,0.0932617188,0.0380859375,-2.0751953125,0.3662109375,13.7939453125
2.6837971210,-0.7402343750,0.0932617188,0.0380859375,-2.0751953125,0.3662109375,17.7001953125
2.6865081787,-0.7382812500,0.0952148438,0.0258789062,-2.8076171875,1.2512207031,16.4947509766
2.6890799999,-0.7382812500,0.0952148438,0.0258789062,-2.8076171875,1.2512207031,16.4947509766
2.6916451454,-0.7382812500,0.0952148438,0.0258789062,-2.4108886719,0.9765625000,19.9432373047
2.6942210197,-0.7382812500,0.0952148438,0.0258789062,-2.4108886719,0.9765625000,19.9432373047
2.6967911720,-0.7294921875,0.0957031250,0.0292968750,-1.6479492188,1.0833740234,23.5443115234
2.6993670464,-0.7294921875,0.0957031250,0.0292968750,-1.6479492188,1.0833740234,23.5443115234
2.7019360065,-0.7294921875,0.0957031250,0.0292968750,-1.3885498047,0.8850097656,27.8472900391
2.7045080662,-0.7294921875,0.0957031250,0.0292968750,-1.3885498047,0.8850097656,27.8472900391
2.7072072029,-0.7241210938,0.0937500000,0.0107421875,-0.8544921875,0.1068115234,32.2265625000
2.7098391056,-0.7241210938,0.0937500000,0.0107421875,-0.8544921875,0.1068115234,32.2265625000
2.7124102116,-0.7241210938,0.0937500000,0.0107421875,-0.0457763672,-0.5340576172,36.5753173828
2.7149841785,-0.7241210938,0.0937500000,-0.0034179688,-0.0457763672,-0.5340576172,36.5753173828
2.7176210880,-0.7133789062,0.0708007812,-0.0034179688,0.7171630859,-1.7852783203,41.7785644531
2.7204020023,-0.7133789062,0.0708007812,-0.0034179688,0.7171630859,-1.7852783203,41.7785644531
2.7230880260,-0.7133789062,0.0708007812,-0.0034179688,1.1901855469,-3.3264160156,47.0123291016
2.7257730961,-0.7133789062,0.0219726562,-0.0019531250,1.1901855469,-3.3264160156,47.0123291016
2.7284591198,-0.7338867188,0.0219726562,-0.0019531250,1.5411376953,-4.7760009766,52.3529052734
2.7312290668,-0.7338867188,0.0219726562,-0.0019531250,1.5411376953,-4.7760009766,52.3529052734
2.7339072227,-0.7338867188,0.0219726562,-0.0019531250,0.8697509766,-6.2103271484,57.9833984375
2.7366490364,-0.7739257812,0.0166015625,-0.0190429688,0.8697509766,-6.2103271484,57.9833984375
2.7395482063,-0.7739257812,0.0166015625,-0.0190429688,-0.9613037109,-6.3934326172,63.5681152344
2.7422521114,-0.7739257812,0.0166015625,-0.0190429688,-0.9613037109,-6.3934326172,63.5681152344
2.7449362278,-0.7739257812,0.0166015625,-0.0190429688,-2.9449462891,-5.9967041016,68.4356689453
2.7476541996,-0.8002929688,0.0361328125,-0.0380859375,-2.9449462891,-5.9967041016,68.4356689453
2.7504110336,-0.8002929688,0.0361328125,-0.0380859375,-4.5623779297,-7.2479248047,72.3724365234
2.7530901432,-0.8002929688,0.0361328125,-0.0380859375,-4.5623779297,-7.2479248047,72.3724365234
2.7557740211,-0.8002929688,0.0883789062,-0.0541992188,-7.9345703125,-9.0179443359,75.7446289062
2.7583911419,-0.7993164062,0.0883789062,-0.0541992188,-7.9345703125,-9.0179443359,75.7446289062
2.7609930038,-0.7993164062,0.0883789062,-0.0541992188,-7.9345703125,-9.1552734375,78.9794921875
2.7635660172,-0.7993164062,0.0883789062,-0.0541992188,-11.1236572266,-9.1552734375,78.9794921875
2.7661421299,-0.7993164062,0.1474609375,-0.0541992188,-11.1236572266,-8.8043212891,82.0312500000
2.7687540054,-0.8076171875,0.1474609375,-0.0541992188,-13.5650634766,-8.8043212891,82.0312500000
2.7713310719,-0.8076171875,0.1474609375,-0.0541992188,-13.5650634766,-8.8043212891,84.4573974609
2.7741210461,-0.8076171875,0.1474609375,-0.0541992188,-16.6015625000,-8.9416503906,84.4573974609
2.7771511078,-0.7866210938,0.1679687500,-0.0717773438,-16.6015625000,-8.4381103516,86.1053466797
2.7798562050,-0.7866210938,0.1679687500,-0.0717773438,-19.3176269531,-8.4381103516,86.1053466797
2.7825601101,-0.7866210938,0.1679687500,-0.0717773438,-23.2238769531,-6.4849853516,87.6770019531
2.7852702141,-0.7866210938,0.1679687500,-0.0717773438,-19.7143554688,-6.4849853516,87.6770019531
2.7879920006,-0.7514648438,0.2285156250,-0.0336914062,-19.7143554688,-4.0588378906,88.0432128906
2.7906980515,-0.7514648438,0.2285156250,-0.0336914062,-20.6756591797,-4.0588378906,88.0432128906
2.7934041023,-0.7514648438,0.2285156250,-0.0336914062,-20.6756591797,-4.4403076172,88.2568359375
2.7961041927,-0.7514648438,0.2817382812,-0.0019531250,-24.3530273438,-4.4403076172,88.2568359375
2.7988200188,-0.6826171875,0.2817382812,-0.0019531250,-24.3530273438,-5.8441162109,87.7685546875
2.8015270233,-0.6826171875,0.2817382812,-0.0019531250,-27.6794433594,-5.8441162109,87.7685546875
2.8043520451,-0.6826171875,0.2817382812,-0.0019531250,-27.6794433594,-5.6457519531,86.7919921875
2.8070771694,-0.5981445312,0.2978515625,0.0800781250,-29.8004150391,-5.6457519531,86.7919921875
2.8096489906,-0.5981445312,0.2978515625,0.0800781250,-29.8004150391,-5.6457519531,85.8306884766
2.8122241497,-0.5981445312,0.2978515625,0.0800781250,-31.2194824219,-4.4555664062,85.8306884766
2.8148040771,-0.5981445312,0.2978515625,0.0800781250,-31.2194824219,-4.4555664062,85.4949951172
2.8174381256,-0.5297851562,0.3344726562,0.1225585938,-30.8380126953,-3.3111572266,85.4949951172
2.8200170994,-0.5297851562,0.3344726562,0.1225585938,-30.8380126953,-3.3111572266,85.4949951172
2.8225891590,-0.5297851562,0.3344726562,0.1225585938,-29.1748046875,-2.5329589844,85.0830078125
2.8251631260,-0.5297851562,0.3344726562,0.1225585938,-29.1748046875,-2.5329589844,85.0830078125
2.8277971745,-0.4106445312,0.3349609375,0.1479492188,-25.3753662109,-2.0446777344,84.6099853516
2.8303680420,-0.4106445312,0.3349609375,0.1479492188,-25.3753662109,-2.0446777344,84.6099853516
2.8329441547,-0.4106445312,0.3349609375,0.1479492188,-20.4010009766,-2.5634765625,83.9843750000
2.8355200291,-0.4106445312,0.3349609375,0.1479492188,-20.4010009766,-2.5634765625,83.9843750000
2.8382601738,-0.2460937500,0.3911132812,0.1738281250,-16.0522460938,-4.0588378906,82.1685791016
2.8409690857,-0.2460937500,0.3911132812,0.1738281250,-16.0522460938,-4.0588378906,82.1685791016
2.8436751366,-0.2460937500,0.3911132812,0.1738281250,-13.0462646484,-6.6375732422,79.7424316406
2.8463871479,-0.2460937500,0.3911132812,0.1889648438,-13.0462646484,-6.6375732422,79.7424316406
2.8490910530,-0.0751953125,0.4321289062,0.1889648438,-11.1846923828,-9.6740722656,77.8350830078
2.8517889977,-0.0751953125,0.4321289062,0.1889648438,-11.1846923828,-9.6740722656,77.8350830078
2.8544940948,-0.0751953125,0.4321289062,0.1889648438,-7.9650878906,-12.5732421875,76.7669677734
2.8572092056,0.0834960938,0.2993164062,0.1420898438,-7.9650878906,-12.5732421875,76.7669677734
2.8599100113,0.0834960938,0.2993164062,0.1420898438,-4.7454833984,-14.4500732422,75.4394531250
2.8626170158,0.0834960938,0.2993164062,0.1420898438,-4.7454833984,-14.4500732422,75.4394531250
2.8653230667,0.0834960938,0.2993164062,0.1420898438,-4.4250488281,-15.8691406250,72.4029541016
2.8680660725,0.0527343750,0.2880859375,0.3413085938,-4.4250488281,-15.8691406250,72.4029541016
2.8706481457,0.0527343750,0.2880859375,0.3413085938,-10.9710693359,-19.1955566406,70.9686279297
2.8732221127,0.0527343750,0.2880859375,0.3413085938,-10.9710693359,-19.1955566406,70.9686279297
2.8758020401,0.0527343750,0.2880859375,0.3413085938,-17.1356201172,-21.9573974609,73.1201171875
2.8785300255,-0.5366210938,0.3691406250,0.3520507812,-17.1356201172,-21.9573974609,73.1201171875
2.8812370300,-0.5366210938,0.3691406250,0.3520507812,-14.1754150391,-20.0195312500,77.9418945312
2.8839490414,-0.5366210938,0.3691406250,0.3520507812,-14.1754150391,-20.0195312500,77.9418945312
2.8866991997,-0.5366210938,0.3691406250,0.0322265625,-5.9814453125,-16.4489746094,82.2753906250
2.8894040585,-1.4785156250,0.3447265625,0.0322265625,-5.9814453125,-16.4489746094,82.2753906250
2.8921160698,-1.4785156250,0.3447265625,0.0322265625,-0.1220703125,-15.1214599609,83.3892822266
2.8950371742,-1.4785156250,0.3447265625,0.0322265625,-0.1220703125,-15.1214599609,83.3892822266
2.8980681896,-1.8720703125,0.1899414062,-0.2851562500,1.2512207031,-11.5966796875,85.9069824219
2.9007771015,-1.8720703125,0.1899414062,-0.2851562500,1.2512207031,-11.5966796875,85.9069824219
2.9034841061,-1.8720703125,0.1899414062,-0.2851562500,6.3323974609,-3.0059814453,92.9718017578
2.9061892033,-1.8720703125,0.1899414062,-0.2851562500,6.3323974609,-3.0059814453,92.9718017578
2.9089040756,-1.2685546875,0.2080078125,-0.2656250000,1.1444091797,1.8310546875,99.7161865234
2.9116060734,-1.2685546875,0.2080078125,-0.2656250000,1.1444091797,1.8310546875,99.7161865234
2.9143080711,-1.2685546875,0.2080078125,-0.2656250000,-16.5252685547,2.0599365234,99.7161865234
2.9169909954,-1.2685546875,0.4580078125,-0.0048828125,-16.5252685547,2.0599365234,99.7161865234
2.9195702076,-0.7617187500,0.3930664062,-0.0048828125,-27.8930664062,0.2746582031,98.1750488281
2.9221441746,-0.7617187500,0.3930664062,-0.0048828125,-27.8930664062,0.2746582031,98.1750488281
2.9247181416,-0.7617187500,0.3930664062,-0.0048828125,-29.7088623047,0.3356933594,96.8627929688
2.9273030758,-0.7617187500,0.4985351562,0.2041015625,-29.7088623047,0.3356933594,96.8627929688
2.9298791885,-0.3759765625,0.4985351562,0.2041015625,-28.5644531250,1.5869140625,95.1690673828
2.9325621128,-0.3759765625,0.4985351562,0.2041015625,-28.5644531250,1.5869140625,95.1690673828
2.9351420403,-0.3759765625,0.4985351562,0.2041015625,-24.6582031250,1.9836425781,91.5832519531
2.9377222061,-0.1259765625,0.5595703125,0.2675781250,-25.1312255859,1.9836425781,91.5832519531
2.9403002262,-0.2280273438,0.5595703125,0.2675781250,-25.1312255859,1.9836425781,86.9445800781
2.9428730011,-0.2280273438,0.5595703125,0.2675781250,-17.2882080078,1.0528564453,86.9445800781
2.9454450607,-0.2280273438,0.5595703125,0.2675781250,-17.2882080078,-2.8533935547,82.1228027344
2.9481680393,-0.4428710938,0.5463867188,0.2304687500,-6.5002441406,-0.8239746094,82.1228027344
2.9507350922,-0.4428710938,0.5463867188,0.2304687500,-6.5002441406,-0.8239746094,77.7893066406
2.9533011913,-0.4428710938,0.5463867188,0.2304687500,0.5645751953,-1.7089843750,77.7893066406
2.9558720589,-0.4428710938,0.5463867188,0.2304687500,0.5645751953,-1.7089843750,77.7893066406
2.9586691856,-0.5747070312,0.4868164062,0.1333007812,3.6773681641,-2.0141601562,75.3021240234
2.9613749981,-0.5747070312,0.4868164062,0.1333007812,3.6773681641,-2.0141601562,71.3958740234
2.9640781879,-0.5747070312,0.4868164062,0.1333007812,3.4942626953,-1.2207031250,73.1964111328
2.9667880535,-0.5747070312,0.4868164062,0.1333007812,3.4942626953,-1.2207031250,73.1964111328
2.9693610668,-0.6416015625,0.4453125000,0.0820312500,0.2441406250,-0.1525878906,69.9920654297
2.9719350338,-0.6416015625,0.4453125000,0.0820312500,0.2441406250,-0.1525878906,69.9920654297
2.9745051861,-0.6416015625,0.4453125000,0.0820312500,-2.5482177734,-1.0681152344,66.2231445312
2.9771301746,-0.6416015625,0.4453125000,-0.0429687500,-2.5482177734,-1.0681152344,66.2231445312
2.9798331261,-0.5991210938,0.5107421875,-0.0058593750,-5.3863525391,-3.7841796875,62.7136230469
2.9825479984,-0.5991210938,0.5107421875,-0.0058593750,-5.3863525391,-3.7841796875,62.7136230469
2.9852490425,-0.5991210938,0.5107421875,-0.0058593750,-7.4768066406,-4.7454833984,59.4940185547
2.9879651070,-0.5991210938,0.6186523438,-0.0214843750,-7.4768066406,-4.7454833984,59.4940185547
2.9906721115,-0.4926757812,0.6186523438,-0.0214843750,-10.4217529297,-4.0588378906,57.3577880859
2.9933772087,-0.4926757812,0.6186523438,-0.0214843750,-10.4217529297,-4.0588378906,57.3577880859
2.9961900711,-0.4926757812,0.6186523438,-0.0214843750,-13.4887695312,-3.1127929688,53.7719726562
2.9988040924,-0.5078125000,0.5825195312,0.0107421875,-13.4887695312,-3.1127929688,53.7719726562
3.0013751984,-0.5078125000,0.5825195312,0.0107421875,-15.7928466797,-2.7465820312,48.7518310547
3.0039532185,-0.5078125000,0.5825195312,0.0107421875,-15.7928466797,-2.7465820312,48.7518310547
3.0067601204,-0.5078125000,0.5825195312,0.0107421875,-15.4266357422,-2.8991699219,44.9066162109
3.0094470978,-0.4960937500,0.5478515625,0.1064453125,-15.4266357422,-2.8991699219,44.9066162109
3.0122311115,-0.4960937500,0.5478515625,0.1064453125,-14.0533447266,-3.4179687500,41.7633056641
3.0150740147,-0.4960937500,0.5478515625,0.1064453125,-14.0533447266,-3.4179687500,41.7633056641
3.0181012154,-0.4960937500,0.6718750000,0.1816406250,-13.1072998047,-4.1503906250,36.7736816406
3.0206770897,-0.4526367188,0.6718750000,0.1816406250,-13.1072998047,-4.1503906250,36.7736816406
3.0232470036,-0.4526367188,0.6718750000,0.1816406250,-9.8876953125,-5.3253173828,29.8614501953
3.0258212090,-0.4526367188,0.6718750000,0.1816406250,-9.8876953125,-5.3253173828,29.8614501953
3.0285382271,-0.4526367188,0.7792968750,0.1391601562,-3.9062500000,-6.4392089844,22.0947265625
3.0312330723,-0.4902343750,0.7792968750,0.1391601562,-3.9062500000,-6.4392089844,22.0947265625
3.0339181423,-0.4902343750,0.7792968750,0.1391601562,0.8392333984,-6.3781738281,14.8468017578
3.0367190838,-0.4902343750,0.7792968750,0.1391601562,0.8392333984,-6.3781738281,14.8468017578
3.0393810272,-0.5297851562,0.6933593750,0.0532226562,3.7231445312,-6.2408447266,8.0871582031
3.0420360565,-0.5297851562,0.6933593750,0.0532226562,3.7231445312,-6.2408447266,8.0871582031
3.0446901321,-0.5297851562,0.6933593750,0.0532226562,2.9296875000,-4.9896240234,2.3956298828
3.0473411083,-0.5297851562,0.6933593750,0.0532226562,2.9296875000,-4.9896240234,2.3956298828
3.0499100685,-0.4985351562,0.6337890625,0.0712890625,-0.0610351562,-2.7313232422,-1.8157958984
3.0524840355,-0.4985351562,0.6337890625,0.0712890625,-0.0610351562,-2.7313232422,-1.8157958984
3.0550432205,-0.4985351562,0.6337890625,0.0712890625,-2.9144287109,-0.3051757812,-7.3699951172
3.0576550961,-0.4985351562,0.6337890625,0.0712890625,-2.9144287109,-0.3051757812,-7.3699951172
3.0603220463,-0.5356445312,0.6728515625,0.1240234375,-2.9144287109,1.5258789062,-13.6260986328
3.0628981590,-0.5356445312,0.6728515625,0.1240234375,-3.4790039062,1.5258789062,-13.6260986328
3.0654671192,-0.5356445312,0.6728515625,0.1240234375,-3.4790039062,2.0751953125,-20.7977294922
3.0681560040,-0.5356445312,0.6728515625,0.1718750000,-3.4484863281,2.0751953125,-20.7977294922
3.0707261562,-0.5415039062,0.6918945312,0.1718750000,-3.4484863281,2.0751953125,-28.2135009766
3.0733010769,-0.5415039062,0.6918945312,0.1718750000,-1.9531250000,3.5247802734,-28.2135009766
3.0758690834,-0.5415039062,0.6918945312,0.1718750000,-1.9531250000,3.5247802734,-36.2701416016
3.0786230564,-0.5415039062,0.7456054688,0.1528320312,0.4425048828,4.6691894531,-36.2701416016
3.0813171864,-0.5488281250,0.7456054688,0.1528320312,0.4425048828,4.6691894531,-44.9066162109
3.0840060711,-0.5488281250,0.7456054688,0.1528320312,2.9754638672,4.5928955078,-44.9066162109
3.0867040157,-0.5488281250,0.7456054688,0.1528320312,2.9754638672,4.5928955078,-53.9855957031
3.0893921852,-0.6157226562,0.7563476562,0.1235351562,5.5236816406,5.8898925781,-53.9855957031
3.0920841694,-0.6157226562,0.7563476562,0.1235351562,5.5236816406,5.8898925781,-65.7043457031
3.0947761536,-0.6157226562,0.7563476562,0.1235351562,8.4381103516,7.1411132812,-62.7288818359
3.0974771976,-0.6157226562,0.7563476562,0.1235351562,8.4381103516,7.1411132812,-70.5413818359
3.1001660824,-0.6596679688,0.7504882812,0.1411132812,10.8184814453,9.0179443359,-71.1364746094
3.1028571129,-0.6596679688,0.7504882812,0.1411132812,10.8184814453,9.0179443359,-78.9489746094
3.1055450439,-0.6596679688,0.7504882812,0.1411132812,14.2822265625,11.5203857422,-79.2083740234
3.1082830429,-0.6596679688,0.7504882812,0.1411132812,14.2822265625,11.5203857422,-87.0208740234
3.1110100746,-0.7045898438,0.7661132812,0.1640625000,19.5007324219,13.0004882812,-86.8225097656
3.1137042046,-0.7045898438,0.7661132812,0.1640625000,19.5007324219,13.0004882812,-86.8225097656
3.1164090633,-0.7045898438,0.7661132812,0.1640625000,24.3682861328,14.2822265625,-95.0317382812
3.1191351414,-0.7045898438,0.7177734375,0.1557617188,24.3682861328,14.2822265625,-95.0317382812
3.1218521595,-0.8349609375,0.7177734375,0.1557617188,27.6947021484,14.9536132812,-102.9052734375
3.1246531010,-0.8349609375,0.7177734375,0.1557617188,27.6947021484,14.9536132812,-110.7177734375
3.1273660660,-0.8349609375,0.7177734375,0.1557617188,28.5797119141,16.8304443359,-110.0769042969
3.1300711632,-0.9545898438,0.6733398438,0.0932617188,28.5797119141,16.8304443359,-113.9831542969
3.1328830719,-0.9545898438,0.6733398438,0.0932617188,27.8472900391,18.9971923828,-116.1804199219
3.1356041431,-0.9545898438,0.6733398438,0.0932617188,27.8472900391,18.9971923828,-122.4670410156
3.1386392117,-0.9545898438,0.6733398438,0.0932617188,24.6124267578,20.5993652344,-122.4670410156
3.1413550377,-1.0747070312,0.7460937500,0.0444335938,24.6124267578,20.5993652344,-128.1433105469
3.1440582275,-1.0747070312,0.7460937500,0.0444335938,20.2484130859,22.1710205078,-128.1433105469
3.1467862129,-1.0747070312,0.7460937500,0.0444335938,20.2484130859,22.1710205078,-133.7280273438
3.1494960785,-1.0747070312,0.7128906250,-0.0385742188,17.7459716797,23.5290527344,-133.7280273438
3.1522099972,-1.3979492188,0.7128906250,-0.0385742188,17.7459716797,23.5290527344,-137.5732421875
3.1549170017,-1.3979492188,0.7128906250,-0.0385742188,20.6604003906,25.1159667969,-137.5732421875
3.1576302052,-1.3979492188,0.7128906250,-0.0385742188,20.6604003906,25.1159667969,-142.3187255859
3.1603472233,-1.6093750000,0.5698242188,-0.0664062500,26.6571044922,25.8789062500,-142.3187255859
3.1630551815,-1.6093750000,0.5698242188,-0.0664062500,26.6571044922,25.8789062500,-148.3306884766
3.1657600403,-1.6093750000,0.5698242188,-0.0664062500,30.0903320312,26.6113281250,-148.3306884766
3.1683881283,-1.6093750000,0.5698242188,-0.0664062500,30.0903320312,26.6113281250,-156.1431884766
3.1709630489,-1.5493164062,0.5771484375,-0.0483398438,30.5328369141,25.9552001953,-152.8167724609
3.1735460758,-1.5493164062,0.5771484375,-0.0483398438,30.5328369141,25.9552001953,-152.8167724609
3.1761209965,-1.5493164062,0.5771484375,-0.0483398438,30.8685302734,23.1628417969,-156.8145751953
3.1787011623,-1.5493164062,0.5771484375,-0.0483398438,30.8685302734,23.1628417969,-156.8145751953
3.1812851429,-1.5297851562,0.3881835938,-0.0400390625,33.2946777344,18.7835693359,-160.7360839844
3.1838691235,-1.5297851562,0.3881835938,-0.0400390625,33.2946777344,18.7835693359,-160.7360839844
3.1865251064,-1.5297851562,0.3881835938,-0.0400390625,38.4521484375,13.7939453125,-164.7186279297
3.1891121864,-1.5297851562,0.3881835938,0.0849609375,38.4521484375,13.7939453125,-164.7186279297
3.1917932034,-1.4687500000,0.1181640625,0.0390625000,44.2962646484,8.8348388672,-170.6085205078
3.1943750381,-1.4687500000,0.1181640625,0.0390625000,44.2962646484,8.8348388672,-170.6085205078
3.1970551014,-1.4687500000,0.1181640625,0.0390625000,49.6368408203,3.4484863281,-178.4515380859
3.1997640133,-1.4687500000,-0.0371093750,0.1147460938,49.6368408203,3.4484863281,-178.4515380859
3.2024741173,-1.3486328125,-0.0371093750,0.1147460938,54.9163818359,0.0000000000,-186.7675781250
3.2051742077,-1.3486328125,-0.0371093750,0.1147460938,54.9163818359,0.0000000000,-186.7675781250
3.2078850269,-1.3486328125,-0.0371093750,0.1147460938,60.3179931641,-1.8615722656,-193.5882568359
3.2105970383,-1.1342773438,-0.1098632812,0.1762695312,60.3179931641,-1.8615722656,-193.5882568359
3.2133030891,-1.1342773438,-0.1098632812,0.1762695312,66.0247802734,-2.8076171875,-199.0509033203
3.2160201073,-1.1342773438,-0.1098632812,0.1762695312,66.0247802734,-2.8076171875,-199.0509033203
3.2186272144,-1.1342773438,-0.1098632812,0.1762695312,70.0073242188,-1.7547607422,-203.0334472656
3.2212002277,-0.8129882812,-0.0131835938,0.0551757812,70.0073242188,-1.7547607422,-203.0334472656
3.2237751484,-0.8129882812,-0.0131835938,0.0551757812,67.5811767578,0.9613037109,-203.0181884766
3.2264091969,-0.8129882812,-0.0131835938,0.0551757812,67.5811767578,0.9613037109,-203.0181884766
3.2291162014,-0.8129882812,-0.0131835938,0.0551757812,57.6477050781,5.3405761719,-200.1800537109
3.2318251133,-0.5390625000,-0.0141601562,-0.0029296875,57.6477050781,5.3405761719,-200.1800537109
3.2345340252,-0.5390625000,-0.0141601562,-0.0029296875,43.7927246094,10.9710693359,-194.9005126953
3.2372992039,-0.5390625000,-0.0141601562,-0.0029296875,43.7927246094,10.9710693359,-194.9005126953
3.2400062084,-0.5390625000,-0.0141601562,0.0078125000,29.1442871094,16.6473388672,-187.1643066406
3.2427101135,-0.3916015625,-0.0566406250,0.0078125000,29.1442871094,16.6473388672,-187.1643066406
3.2454230785,-0.3916015625,-0.0566406250,0.0078125000,14.2822265625,23.0407714844,-176.2390136719
3.2481451035,-0.3916015625,-0.0566406250,0.0078125000,14.2822265625,23.0407714844,-176.2390136719
3.2508580685,-0.4165039062,0.0561523438,-0.0649414062,1.6326904297,30.9143066406,-160.0646972656
3.2537901402,-0.4165039062,0.0561523438,-0.0649414062,1.6326904297,30.9143066406,-160.0646972656
3.2570412159,-0.4165039062,0.0561523438,-0.0649414062,-16.3574218750,37.0025634766,-141.8914794922
3.2596261501,-0.4165039062,0.0561523438,-0.0649414062,-16.3574218750,37.0025634766,-141.8914794922
3.2622001171,-0.5375976562,0.2446289062,0.0405273438,-39.6270751953,39.1540527344,-124.7253417969
3.2647771835,-0.5375976562,0.2446289062,0.0405273438,-39.6270751953,39.1540527344,-124.7253417969
3.2674160004,-0.5375976562,0.2446289062,0.0405273438,-59.2956542969,40.7714843750,-106.5673828125
3.2701251507,-0.5375976562,0.2446289062,0.1342773438,-59.2956542969,40.7714843750,-106.5673828125
3.2728312016,-0.5869140625,0.5341796875,0.1342773438,-69.4427490234,41.7480468750,-86.7462158203
3.2755401134,-0.5869140625,0.5341796875,0.1342773438,-69.4427490234,41.7480468750,-86.7462158203
3.2782940865,-0.5869140625,0.5341796875,0.1342773438,-61.9354248047,38.3453369141,-70.5413818359
3.2810080051,-0.3754882812,0.7333984375,0.1289062500,-61.9354248047,38.3453369141,-70.5413818359
3.2837121487,-0.3754882812,0.7333984375,0.1289062500,-46.1883544922,32.5622558594,-59.6771240234
3.2864301205,-0.3754882812,0.7333984375,0.1289062500,-46.1883544922,32.5622558594,-59.6771240234
3.2890160084,-0.3754882812,0.7333984375,0.1289062500,-41.7175292969,23.7121582031,-49.6215820312
3.2915902138,-0.1855468750,0.6708984375,0.1777343750,-41.7175292969,23.7121582031,-49.6215820312
3.2941710949,-0.1855468750,0.6708984375,0.1777343750,-41.7175292969,15.7623291016,-42.7398681641
3.2967541218,-0.1855468750,0.6708984375,0.1777343750,-45.0286865234,15.7623291016,-42.7398681641
3.2993340492,-0.1855468750,0.6708984375,0.1777343750,-45.0286865234,15.7623291016,-40.1153564453
3.3019151688,-0.1196289062,0.2983398438,-0.0258789062,-40.3900146484,11.2457275391,-40.1153564453
3.3044950962,-0.1196289062,0.2983398438,-0.0258789062,-40.3900146484,11.2457275391,-36.1633300781
3.3072152138,-0.1196289062,0.2983398438,-0.0258789062,-33.4930419922,7.4462890625,-36.1633300781
3.3097951412,-0.1196289062,0.2983398438,-0.0258789062,-33.4930419922,7.4462890625,-28.3508300781
3.3123710155,-0.1542968750,0.1611328125,-0.0332031250,-29.7851562500,3.2043457031,-30.4260253906
3.3149511814,-0.1542968750,0.1611328125,-0.0332031250,-29.7851562500,3.2043457031,-30.4260253906
3.3176860809,-0.1542968750,0.1611328125,-0.0332031250,-24.9938964844,1.1138916016,-26.0162353516
3.3204810619,-0.1542968750,0.1611328125,-0.0478515625,-24.9938964844,1.1138916016,-26.0162353516
3.3231780529,-0.1992187500,0.0385742188,-0.0478515625,-18.8446044922,0.6713867188,-22.9644775391
3.3258621693,-0.1992187500,0.0385742188,-0.0478515625,-18.8446044922,0.6713867188,-22.9644775391
3.3285601139,-0.1992187500,0.0385742188,-0.0478515625,-13.8702392578,0.1068115234,-20.7366943359
3.3312511444,-0.1992187500,-0.0053710938,-0.0336914062,-13.8702392578,0.1068115234,-20.7366943359
3.3339400291,-0.1342773438,-0.0053710938,-0.0336914062,-10.2233886719,-1.3885498047,-17.7154541016
3.3366761208,-0.1342773438,-0.0053710938,-0.0336914062,-10.2233886719,-1.3885498047,-17.7154541016
3.3393661976,-0.1342773438,-0.0053710938,-0.0336914062,-7.1258544922,-3.4484863281,-15.2435302734
3.3420531750,-0.0390625000,-0.0463867188,0.0292968750,-7.1258544922,-3.4484863281,-15.2435302734
