# time_stamp before, Acceleration x, Acceleration y, Acceleration z, Gyro x, Gyro y, Gyro z
0.0000000000,-0.7353515625,0.0625000000,0.0107421875,-0.3967285156,-0.4882812500,-0.2136230469
0.0025558472,-0.7353515625,0.0625000000,0.0107421875,-0.0915527344,-0.6408691406,-0.2136230469
0.0051159859,-0.7368164062,0.0659179688,0.0029296875,-0.0915527344,-0.6408691406,-0.2593994141
0.0076599121,-0.7368164062,0.0659179688,0.0029296875,-0.1525878906,-0.8392333984,-0.2593994141
0.0102229118,-0.7368164062,0.0659179688,0.0029296875,-0.1525878906,-0.8392333984,-0.2593994141
0.0127758980,-0.7368164062,0.0659179688,0.0029296875,-0.8544921875,-0.4577636719,-0.1831054688
0.0153269768,-0.7397460938,0.0625000000,0.0092773438,-0.8544921875,-0.4577636719,-0.1831054688
0.0180449486,-0.7397460938,0.0625000000,0.0092773438,-1.0223388672,-0.5493164062,-0.0915527344
0.0206079483,-0.7397460938,0.0625000000,0.0092773438,-1.0223388672,-0.5493164062,-0.0915527344
0.0231728554,-0.7397460938,0.0625000000,0.0092773438,-0.6256103516,-0.5035400391,0.1678466797
0.0257408619,-0.7358398438,0.0664062500,0.0234375000,-0.6256103516,-0.5035400391,0.1678466797
0.0283939838,-0.7358398438,0.0664062500,0.0234375000,-0.5340576172,-0.3662109375,0.3814697266
0.0309660435,-0.7358398438,0.0664062500,0.0234375000,-0.5340576172,-0.3662109375,0.3814697266
0.0335240364,-0.7358398438,0.0664062500,0.0234375000,-0.9002685547,-0.3509521484,0.0457763672
0.0360908508,-0.7348632812,0.0654296875,0.0083007812,-0.9002685547,-0.3509521484,0.0457763672
0.0388288498,-0.7348632812,0.0654296875,0.0083007812,-0.3814697266,-0.4425048828,-0.1373291016
0.0414910316,-0.7348632812,0.0654296875,0.0083007812,-0.3814697266,-0.4425048828,-0.1373291016
0.0441548824,-0.7348632812,0.0654296875,0.0068359375,-0.6103515625,-0.2441406250,0.0152587891
0.0468149185,-0.7358398438,0.0625000000,0.0068359375,-0.6103515625,-0.2441406250,0.0152587891
0.0495250225,-0.7358398438,0.0625000000,0.0068359375,-0.8392333984,-0.3356933594,0.1525878906
0.0523939133,-0.7358398438,0.0625000000,0.0068359375,-0.8392333984,-0.3356933594,0.1525878906
0.0550909042,-0.7382812500,0.0634765625,0.0170898438,-0.5493164062,-0.1983642578,0.1373291016
0.0578389168,-0.7382812500,0.0634765625,0.0170898438,-0.5493164062,-0.1983642578,0.1373291016
0.0605430603,-0.7382812500,0.0634765625,0.0170898438,-0.5645751953,-0.1831054688,0.2593994141
0.0632350445,-0.7382812500,0.0634765625,0.0170898438,-0.5645751953,-0.1831054688,0.2593994141
0.0659358501,-0.7416992188,0.0610351562,0.0146484375,-0.8850097656,-0.1678466797,0.0457763672
0.0687508583,-0.7416992188,0.0610351562,0.0146484375,-0.8850097656,-0.1678466797,0.0457763672
0.0714490414,-0.7416992188,0.0610351562,0.0146484375,-0.7476806641,0.0305175781,0.0762939453
0.0741529465,-0.7416992188,0.0610351562,0.0156250000,-0.7476806641,0.0305175781,0.0762939453
0.0768470764,-0.7392578125,0.0649414062,0.0156250000,-0.4425048828,-0.0915527344,0.1220703125
0.0795588493,-0.7392578125,0.0649414062,0.0156250000,-0.4425048828,-0.0915527344,0.1220703125
0.0822658539,-0.7392578125,0.0649414062,0.0156250000,-0.5645751953,-0.0610351562,0.1220703125
0.0853390694,-0.7358398438,0.0634765625,0.0146484375,-0.5645751953,-0.0610351562,0.1220703125
0.0884840488,-0.7358398438,0.0634765625,0.0146484375,-0.5950927734,-0.3051757812,0.1068115234
0.0911848545,-0.7358398438,0.0634765625,0.0146484375,-0.5950927734,-0.3051757812,0.1068115234
0.0938830376,-0.7358398438,0.0634765625,0.0146484375,-0.4577636719,-0.4272460938,0.0457763672
0.0965869427,-0.7407226562,0.0629882812,0.0180664062,-0.4577636719,-0.4272460938,0.0457763672
0.0992958546,-0.7407226562,0.0629882812,0.0180664062,-0.4119873047,-0.5340576172,0.1373291016
0.1019868851,-0.7407226562,0.0629882812,0.0180664062,-0.4119873047,-0.5340576172,0.1373291016
0.1046910286,-0.7407226562,0.0629882812,0.0209960938,-0.6713867188,-0.5187988281,0.1525878906
0.1073870659,-0.7319335938,0.0625000000,0.0209960938,-0.6713867188,-0.5187988281,0.1525878906
0.1101059914,-0.7319335938,0.0625000000,0.0209960938,-0.6561279297,-0.5493164062,-0.1220703125
0.1127998829,-0.7319335938,0.0625000000,0.0209960938,-0.6561279297,-0.5493164062,-0.1220703125
0.1155018806,-0.7392578125,0.0634765625,0.0087890625,-1.0528564453,-0.5798339844,-0.1678466797
0.1182980537,-0.7392578125,0.0634765625,0.0087890625,-1.0528564453,-0.5798339844,-0.1678466797
0.1208648682,-0.7392578125,0.0634765625,0.0087890625,-0.4272460938,0.0457763672,-0.1525878906
0.1234309673,-0.7392578125,0.0634765625,0.0087890625,-0.4272460938,0.0457763672,-0.1525878906
0.1260030270,-0.7348632812,0.0664062500,0.0146484375,-0.1983642578,-0.1525878906,-0.1068115234
0.1286258698,-0.7348632812,0.0664062500,0.0146484375,-0.1983642578,-0.1525878906,-0.1068115234
0.1311969757,-0.7348632812,0.0664062500,0.0146484375,-0.3509521484,-0.1678466797,0.0000000000
0.1337630749,-0.7348632812,0.0664062500,0.0146484375,-0.3509521484,-0.1678466797,0.0000000000
0.1363298893,-0.7358398438,0.0668945312,0.0229492188,-0.3509521484,-0.0610351562,-0.0305175781
0.1390199661,-0.7358398438,0.0668945312,0.0229492188,-0.4272460938,-0.0610351562,-0.0305175781
0.1415898800,-0.7358398438,0.0668945312,0.0229492188,-0.4272460938,-0.1373291016,-0.3356933594
0.1441528797,-0.7358398438,0.0668945312,0.0229492188,-0.6408691406,-0.1373291016,-0.3356933594
0.1467268467,-0.7338867188,0.0659179688,0.0161132812,-0.6408691406,-0.1373291016,-0.0915527344
0.1494770050,-0.7338867188,0.0659179688,0.0161132812,-0.3204345703,-0.3662109375,-0.0915527344
0.1521780491,-0.7338867188,0.0659179688,0.0161132812,-0.3204345703,-0.3662109375,0.0305175781
0.1548728943,-0.7338867188,0.0659179688,0.0200195312,-0.3051757812,-0.3814697266,0.0305175781
0.1575748920,-0.7358398438,0.0620117188,0.0200195312,-0.3051757812,-0.3814697266,-0.2136230469
0.1602730751,-0.7358398438,0.0620117188,0.0200195312,-0.5645751953,-0.2288818359,-0.2136230469
0.1629669666,-0.7358398438,0.0620117188,0.0200195312,-0.5645751953,-0.2288818359,-0.2593994141
0.1656630039,-0.7358398438,0.0664062500,0.0244140625,-0.6561279297,-0.0305175781,-0.2593994141
0.1683778763,-0.7363281250,0.0664062500,0.0244140625,-0.6561279297,-0.0305175781,-0.5340576172
0.1710729599,-0.7363281250,0.0664062500,0.0244140625,-0.4425048828,-0.1831054688,-0.5340576172
0.1737689972,-0.7363281250,0.0664062500,0.0244140625,-0.4425048828,-0.1831054688,-0.4882812500
0.1764628887,-0.7333984375,0.0615234375,0.0112304688,-0.2136230469,0.0610351562,-0.4882812500
0.1791038513,-0.7333984375,0.0615234375,0.0112304688,-0.2136230469,0.0610351562,-0.4882812500
0.1817798615,-0.7333984375,0.0615234375,0.0112304688,-0.4425048828,0.0152587891,-0.2136230469
0.1843440533,-0.7333984375,0.0615234375,0.0112304688,-0.4425048828,0.0152587891,-0.2136230469
0.1869029999,-0.7368164062,0.0683593750,0.0083007812,-0.6256103516,-0.1678466797,-0.0610351562
0.1896889210,-0.7368164062,0.0683593750,0.0083007812,-0.6256103516,-0.1678466797,-0.0610351562
0.1922528744,-0.7368164062,0.0683593750,0.0083007812,-0.2746582031,-0.1220703125,0.0152587891
0.1948239803,-0.7368164062,0.0683593750,0.0083007812,-0.2746582031,-0.1220703125,0.0152587891
0.1973900795,-0.7397460938,0.0664062500,0.0107421875,-0.4730224609,-0.3051757812,-0.2746582031
0.2001428604,-0.7397460938,0.0664062500,0.0107421875,-0.4730224609,-0.3051757812,-0.2746582031
0.2028379440,-0.7397460938,0.0664062500,0.0107421875,-0.3814697266,-0.1373291016,-0.2746582031
0.2057230473,-0.7397460938,0.0664062500,0.0195312500,-0.3814697266,-0.1373291016,-0.2746582031
0.2086970806,-0.7387695312,0.0693359375,0.0195312500,0.0457763672,-0.3204345703,-0.3204345703
0.2112679482,-0.7387695312,0.0693359375,0.0195312500,0.0457763672,-0.3204345703,-0.3204345703
0.2138400078,-0.7387695312,0.0693359375,0.0195312500,-0.4119873047,-0.2441406250,-0.3204345703
0.2164099216,-0.7319335938,0.0585937500,0.0166015625,-0.4119873047,-0.2441406250,-0.3204345703
0.2193150520,-0.7319335938,0.0585937500,0.0166015625,0.0152587891,-0.0305175781,-0.3814697266
0.2220158577,-0.7319335938,0.0585937500,0.0166015625,0.0152587891,-0.0305175781,-0.3814697266
0.2247128487,-0.7319335938,0.0585937500,0.0166015625,-0.0152587891,0.1678466797,-0.3356933594
0.2274079323,-0.7407226562,0.0595703125,0.0209960938,-0.0152587891,0.1678466797,-0.3356933594
0.2301208973,-0.7407226562,0.0595703125,0.0209960938,0.2441406250,0.1983642578,-0.1373291016
0.2328128815,-0.7407226562,0.0595703125,0.0209960938,0.2441406250,0.1983642578,-0.1373291016
0.2355110645,-0.7407226562,0.0595703125,0.0209960938,0.0457763672,-0.2593994141,-0.3051757812
0.2382328510,-0.7363281250,0.0629882812,0.0205078125,0.0457763672,-0.2593994141,-0.3051757812
0.2407958508,-0.7363281250,0.0629882812,0.0205078125,0.3356933594,-0.7629394531,-0.3967285156
0.2433619499,-0.7363281250,0.0629882812,0.0205078125,0.3356933594,-0.7629394531,-0.3967285156
0.2460329533,-0.7363281250,0.0629882812,0.0122070312,0.2593994141,-0.4272460938,-0.3356933594
0.2486999035,-0.7338867188,0.0639648438,0.0122070312,0.2593994141,-0.4272460938,-0.3356933594
0.2514050007,-0.7338867188,0.0639648438,0.0122070312,0.3662109375,-0.6713867188,-0.4272460938
0.2541038990,-0.7338867188,0.0639648438,0.0122070312,0.3662109375,-0.6713867188,-0.4272460938
0.2568008900,-0.7397460938,0.0566406250,0.0122070312,-0.2746582031,-0.1678466797,-0.1831054688
0.2594249249,-0.7397460938,0.0566406250,0.0122070312,-0.2746582031,-0.1678466797,-0.1831054688
0.2619910240,-0.7397460938,0.0566406250,0.0122070312,-0.6256103516,-0.3356933594,-0.1373291016
0.2645659447,-0.7397460938,0.0566406250,0.0122070312,-0.6256103516,-0.3356933594,-0.1373291016
0.2671308517,-0.7348632812,0.0654296875,0.0141601562,-0.3662109375,0.2746582031,-0.1220703125
0.2697460651,-0.7348632812,0.0654296875,0.0141601562,-0.3662109375,0.2746582031,-0.1220703125
0.2723209858,-0.7348632812,0.0654296875,0.0141601562,-0.3662109375,0.1373291016,-0.3509521484
0.2748868465,-0.7348632812,0.0654296875,0.0141601562,-0.1678466797,0.1373291016,-0.3509521484
0.2774548531,-0.7319335938,0.0634765625,0.0200195312,-0.1678466797,-0.4730224609,-0.0915527344
0.2802898884,-0.7319335938,0.0634765625,0.0200195312,-0.0457763672,-0.4730224609,-0.0915527344
0.2829830647,-0.7319335938,0.0634765625,0.0200195312,-0.0457763672,-0.4730224609,-0.1373291016
0.2856850624,-0.7319335938,0.0634765625,0.0200195312,0.0152587891,-0.3204345703,-0.1373291016
0.2883870602,-0.7412109375,0.0629882812,0.0166015625,0.0152587891,3.5858154297,-0.3356933594
0.2910859585,-0.7412109375,0.0629882812,0.0166015625,-0.2746582031,0.0305175781,-0.3356933594
0.2937870026,-0.7412109375,0.0629882812,0.0166015625,-0.2746582031,-3.8757324219,-0.2899169922
0.2964789867,-0.7412109375,0.0629882812,0.0190429688,-0.0610351562,-0.2441406250,-0.2899169922
0.2991859913,-0.7402343750,0.0620117188,0.0190429688,-0.0610351562,-0.2441406250,-0.4272460938
0.3018848896,-0.7402343750,0.0620117188,0.0190429688,-0.0762939453,-0.4425048828,-0.4272460938
0.3045799732,-0.7402343750,0.0620117188,0.0190429688,-0.0762939453,-0.4425048828,-0.4425048828
0.3072750568,-0.7421875000,0.0649414062,0.0141601562,-0.2136230469,-0.0305175781,-0.4425048828
0.3099789619,-0.7421875000,0.0649414062,0.0141601562,-0.2136230469,-0.0305175781,-0.6103515625
0.3125488758,-0.7421875000,0.0649414062,0.0141601562,-0.1373291016,-0.3509521484,-0.6103515625
0.3151199818,-0.7421875000,0.0649414062,0.0141601562,-0.1373291016,-0.3509521484,-0.6103515625
0.3176898956,-0.7377929688,0.0639648438,0.0166015625,-0.6866455078,-0.3204345703,-0.4425048828
0.3203880787,-0.7377929688,0.0639648438,0.0166015625,-0.6866455078,-0.3204345703,-0.4425048828
0.3230929375,-0.7377929688,0.0639648438,0.0166015625,-0.5493164062,-0.3509521484,-0.4882812500
0.3258528709,-0.7377929688,0.0639648438,0.0166015625,-0.5493164062,-0.3509521484,-0.4882812500
0.3285610676,-0.7392578125,0.0600585938,0.0058593750,-0.0762939453,-0.1831054688,-0.3356933594
0.3312549591,-0.7392578125,0.0600585938,0.0058593750,-0.0762939453,-0.1831054688,-0.3356933594
0.3342108727,-0.7392578125,0.0600585938,0.0058593750,-0.4425048828,-0.2441406250,0.0610351562
0.3368930817,-0.7392578125,0.0600585938,0.0161132812,-0.4425048828,-0.2441406250,-0.0610351562
0.3398659229,-0.7348632812,0.0595703125,0.0161132812,-0.3204345703,-0.3356933594,-0.0610351562
0.3431320190,-0.7348632812,0.0595703125,0.0161132812,-0.2746582031,-0.0457763672,-0.2746582031
0.3459949493,-0.7348632812,0.0595703125,0.0161132812,-0.2746582031,-0.0457763672,-0.2746582031
0.3486459255,-0.7368164062,0.0678710938,0.0195312500,3.6315917969,-0.2746582031,-0.3509521484
0.3512148857,-0.7368164062,0.0678710938,0.0195312500,0.0305175781,-0.2746582031,-0.3509521484
0.3537800312,-0.7368164062,0.0678710938,0.0195312500,0.0305175781,-0.2593994141,-0.2288818359
0.3564598560,-0.7368164062,0.0678710938,0.0195312500,-0.1525878906,-0.2593994141,-0.2288818359
0.3591020107,-0.7324218750,0.0673828125,0.0141601562,-0.1525878906,3.6468505859,-0.0915527344
0.3617670536,-0.7324218750,0.0673828125,0.0141601562,-0.3509521484,0.2441406250,-0.0915527344
0.3644349575,-0.7324218750,0.0673828125,0.0141601562,-0.3509521484,0.2441406250,-0.3051757812
0.3671319485,-0.7324218750,0.0673828125,0.0112304688,-0.1831054688,0.0152587891,-0.3051757812
0.3697679043,-0.7319335938,0.0698242188,0.0112304688,-0.1831054688,0.0152587891,-0.1525878906
0.3723330498,-0.7319335938,0.0698242188,0.0112304688,-0.0152587891,-0.0152587891,-0.1525878906
0.3749978542,-0.7319335938,0.0698242188,0.0112304688,-0.0152587891,-0.0152587891,-0.1525878906
0.3776040077,-0.7319335938,0.0600585938,0.0126953125,0.1983642578,-0.4882812500,-0.3967285156
0.3801698685,-0.7333984375,0.0600585938,0.0126953125,0.1983642578,-0.4882812500,-0.3967285156
0.3827400208,-0.7333984375,0.0600585938,0.0126953125,0.4119873047,-0.3967285156,-0.7171630859
0.3853089809,-0.7333984375,0.0600585938,0.0126953125,0.4119873047,-0.3967285156,-0.7171630859
0.3880269527,-0.7304687500,0.0634765625,0.0146484375,0.1525878906,-0.4882812500,-0.4577636719
0.3905980587,-0.7304687500,0.0634765625,0.0146484375,0.1525878906,-0.4882812500,-0.4577636719
0.3931760788,-0.7304687500,0.0634765625,0.0146484375,-0.1525878906,-0.4272460938,-0.3967285156
0.3957419395,-0.7304687500,0.0634765625,0.0146484375,-0.1525878906,-0.4272460938,-0.3967285156
0.3984279633,-0.7382812500,0.0620117188,0.0122070312,-0.5798339844,0.0152587891,-0.2136230469
0.4009950161,-0.7382812500,0.0620117188,0.0122070312,-0.5798339844,0.0152587891,-0.2136230469
0.4035570621,-0.7382812500,0.0620117188,0.0122070312,-0.5493164062,-0.2441406250,-0.6561279297
0.4061269760,-0.7382812500,0.0620117188,0.0122070312,-0.5493164062,-0.2441406250,-0.6561279297
0.4087560177,-0.7358398438,0.0620117188,0.0200195312,-0.0915527344,-0.5798339844,-0.7781982422
0.4114480019,-0.7358398438,0.0620117188,0.0200195312,-0.0915527344,-0.5798339844,-0.7781982422
0.4141528606,-0.7358398438,0.0620117188,0.0200195312,-0.3051757812,-0.1678466797,-0.6256103516
0.4168488979,-0.7358398438,0.0620117188,0.0200195312,-0.3051757812,-0.1678466797,-0.6256103516
0.4195609093,-0.7397460938,0.0649414062,0.0200195312,-0.3662109375,0.2593994141,-0.6408691406
0.4222588539,-0.7397460938,0.0649414062,0.0200195312,-0.3662109375,0.2593994141,-0.6408691406
0.4249539375,-0.7397460938,0.0649414062,0.0200195312,-0.1220703125,0.0610351562,-0.5340576172
0.4276559353,-0.7397460938,0.0649414062,0.0185546875,-0.1220703125,0.0610351562,-0.5340576172
0.4303529263,-0.7368164062,0.0659179688,0.0185546875,-0.1983642578,0.1373291016,-0.3509521484
0.4330458641,-0.7368164062,0.0659179688,0.0185546875,-0.1983642578,0.1373291016,-0.3509521484
0.4357500076,-0.7368164062,0.0659179688,0.0185546875,-0.3051757812,-0.1373291016,-0.2441406250
0.4384980202,-0.7416992188,0.0590820312,0.0146484375,-0.3051757812,-0.1373291016,-0.2441406250
0.4413049221,-0.7416992188,0.0590820312,0.0146484375,-0.2136230469,-0.2899169922,-0.3356933594
0.4440009594,-0.7416992188,0.0590820312,0.0146484375,-0.2136230469,-0.2899169922,-0.3356933594
0.4466938972,-0.7416992188,0.0590820312,0.0146484375,0.0915527344,0.0610351562,-0.2746582031
0.4493319988,-0.7363281250,0.0634765625,0.0102539062,0.0915527344,0.0610351562,-0.2746582031
0.4518928528,-0.7363281250,0.0634765625,0.0102539062,0.0915527344,-0.2288818359,-0.4272460938
0.4545149803,-0.7363281250,0.0634765625,0.0102539062,0.3662109375,-0.2288818359,-0.4272460938
0.4570829868,-0.7363281250,0.0634765625,0.0102539062,0.3662109375,-0.2288818359,-0.6103515625
0.4597759247,-0.7343750000,0.0605468750,0.0122070312,-0.0305175781,-0.3509521484,-0.6103515625
0.4624719620,-0.7343750000,0.0605468750,0.0122070312,-0.0305175781,3.5552978516,-0.3356933594
0.4651689529,-0.7343750000,0.0605468750,0.0122070312,-0.4882812500,0.1373291016,-0.3356933594
0.4678719044,-0.7343750000,0.0605468750,0.0078125000,-0.4882812500,0.1373291016,-0.2441406250
0.4705729485,-0.7343750000,0.0668945312,0.0078125000,-0.3509521484,0.0457763672,-0.2441406250
0.4732739925,-0.7343750000,0.0668945312,0.0078125000,-0.3509521484,0.0457763672,-0.1525878906
0.4759728909,-0.7343750000,0.0668945312,0.0078125000,-0.5187988281,0.1068115234,-0.1525878906
0.4786829948,-0.7343750000,0.0615234375,0.0146484375,-0.5187988281,0.1068115234,-0.3967285156
0.4813740253,-0.7299804688,0.0615234375,0.0146484375,-0.3967285156,-0.2441406250,-0.3967285156
0.4841749668,-0.7299804688,0.0615234375,0.0146484375,-0.3967285156,-0.2441406250,-0.2899169922
0.4869179726,-0.7299804688,0.0615234375,0.0146484375,-0.4577636719,0.0305175781,-0.2899169922
0.4898009300,-0.7387695312,0.0639648438,0.0117187500,-0.4577636719,-3.8757324219,-0.4425048828
0.4923620224,-0.7387695312,0.0639648438,0.0117187500,-0.1068115234,-0.3051757812,-0.4425048828
0.4949250221,-0.7387695312,0.0639648438,0.0117187500,-0.1068115234,-0.3051757812,-0.3051757812
0.4974930286,-0.7387695312,0.0639648438,0.0117187500,-0.1525878906,-0.4425048828,-0.3051757812
0.5000629425,-0.7397460938,0.0649414062,0.0180664062,-0.1525878906,-0.4425048828,-0.3051757812
0.5026240349,-0.7397460938,0.0649414062,0.0180664062,-0.4272460938,-0.3662109375,-0.0915527344
0.5053009987,-0.7397460938,0.0649414062,0.0180664062,-0.4272460938,-0.3662109375,-0.0915527344
0.5079219341,-0.7397460938,0.0649414062,0.0180664062,-0.3356933594,-0.1678466797,-0.1220703125
0.5104899406,-0.7387695312,0.0703125000,0.0117187500,-0.3356933594,-0.1678466797,-0.1220703125
0.5130519867,-0.7387695312,0.0703125000,0.0117187500,-0.5035400391,0.2288818359,-0.1525878906
0.5156118870,-0.7387695312,0.0703125000,0.0117187500,-0.5035400391,0.2288818359,-0.1525878906
0.5181858540,-0.7387695312,0.0703125000,0.0117187500,-0.3662109375,0.1983642578,0.0305175781
0.5207560062,-0.7319335938,0.0678710938,0.0122070312,-0.3662109375,0.1983642578,0.0305175781
0.5233180523,-0.7319335938,0.0678710938,0.0122070312,-0.6103515625,0.2746582031,-0.0457763672
0.5258839130,-0.7319335938,0.0678710938,0.0122070312,-0.6103515625,0.2746582031,-0.0457763672
0.5285859108,-0.7319335938,0.0678710938,0.0107421875,-0.5035400391,0.1220703125,-0.0915527344
0.5311539173,-0.7338867188,0.0620117188,0.0107421875,-0.5035400391,0.1220703125,-0.0915527344
0.5337190628,-0.7338867188,0.0620117188,0.0107421875,-0.5035400391,-0.1373291016,-0.2441406250
0.5362770557,-0.7338867188,0.0620117188,0.0107421875,-0.1220703125,-0.1373291016,-0.2441406250
0.5389568806,-0.7338867188,0.0629882812,0.0097656250,-0.1220703125,-0.2746582031,-0.0457763672
0.5415210724,-0.7373046875,0.0629882812,0.0097656250,0.3814697266,-0.2746582031,-0.0457763672
0.5440900326,-0.7373046875,0.0629882812,0.0097656250,0.3814697266,-0.2746582031,-0.0457763672
0.5466589928,-0.7373046875,0.0629882812,0.0097656250,0.1678466797,-0.1678466797,-0.0457763672
0.5492310524,-0.7373046875,0.0688476562,0.0161132812,0.1678466797,-0.1678466797,-0.0457763672
0.5517959595,-0.7353515625,0.0688476562,0.0161132812,0.1373291016,0.1068115234,-0.2441406250
0.5543589592,-0.7353515625,0.0688476562,0.0161132812,0.1373291016,0.1068115234,-0.2441406250
0.5569188595,-0.7353515625,0.0688476562,0.0161132812,0.2899169922,-0.0915527344,-0.1220703125
0.5595960617,-0.7324218750,0.0644531250,0.0117187500,0.2899169922,-0.0915527344,-0.1220703125
0.5622959137,-0.7324218750,0.0644531250,0.0117187500,-0.3204345703,0.2899169922,-0.5187988281
0.5649938583,-0.7324218750,0.0644531250,0.0117187500,-0.3204345703,0.2899169922,-0.5187988281
0.5678439140,-0.7324218750,0.0644531250,0.0117187500,-0.2288818359,0.0152587891,-0.4425048828
0.5705349445,-0.7431640625,0.0688476562,0.0205078125,-0.2288818359,0.0152587891,-0.4425048828
0.5732350349,-0.7431640625,0.0688476562,0.0205078125,-0.1525878906,-0.0610351562,-0.2441406250
0.5759310722,-0.7431640625,0.0688476562,0.0205078125,-0.1525878906,-0.0610351562,-0.2441406250
0.5786759853,-0.7431640625,0.0688476562,0.0205078125,0.0152587891,-0.2746582031,-0.4272460938
0.5813829899,-0.7299804688,0.0654296875,0.0083007812,0.0152587891,-0.2746582031,-0.4272460938
0.5840768814,-0.7299804688,0.0654296875,0.0083007812,-0.4272460938,0.1220703125,-0.6103515625
0.5867750645,-0.7299804688,0.0654296875,0.0083007812,-0.4272460938,0.1220703125,-0.6103515625
0.5894930363,-0.7299804688,0.0625000000,0.0068359375,-0.1983642578,0.2288818359,-0.5645751953
0.5921959877,-0.7314453125,0.0625000000,0.0068359375,-0.1983642578,0.2288818359,-0.5645751953
0.5950000286,-0.7314453125,0.0625000000,0.0068359375,0.3051757812,-0.4882812500,-0.3204345703
0.5977149010,-0.7314453125,0.0625000000,0.0068359375,0.3051757812,-0.4882812500,-0.3204345703
0.6002850533,-0.7397460938,0.0629882812,0.0141601562,-0.2593994141,-0.3051757812,-0.2288818359
0.6028540134,-0.7397460938,0.0629882812,0.0141601562,-0.2593994141,-0.3051757812,-0.2288818359
0.6054210663,-0.7397460938,0.0629882812,0.0141601562,-0.5035400391,-0.0915527344,-0.3204345703
0.6080069542,-0.7397460938,0.0629882812,0.0141601562,-0.5035400391,-0.0915527344,-0.3204345703
0.6107089520,-0.7319335938,0.0664062500,0.0117187500,-0.6256103516,0.1678466797,-0.3204345703
0.6134090424,-0.7319335938,0.0664062500,0.0117187500,-0.6256103516,0.1678466797,-0.3204345703
0.6161098480,-0.7319335938,0.0664062500,0.0117187500,-0.5187988281,0.3051757812,-0.5340576172
0.6188578606,-0.7319335938,0.0664062500,0.0117187500,-0.5187988281,0.3051757812,-0.5340576172
0.6215598583,-0.7421875000,0.0693359375,0.0117187500,-0.6713867188,0.3509521484,-0.3967285156
0.6242558956,-0.7421875000,0.0693359375,0.0117187500,-0.6713867188,0.3509521484,-0.3967285156
0.6269569397,-0.7421875000,0.0693359375,0.0117187500,-0.6103515625,-0.0457763672,-0.7171630859
0.6295950413,-0.7421875000,0.0693359375,0.0112304688,-0.6103515625,-0.0457763672,-0.7171630859
0.6322698593,-0.7363281250,0.0678710938,0.0112304688,-0.0762939453,0.0457763672,-0.7476806641
0.6348400116,-0.7363281250,0.0678710938,0.0112304688,-0.0762939453,0.0457763672,-0.7476806641
0.6374030113,-0.7363281250,0.0678710938,0.0112304688,0.5798339844,-0.0762939453,-1.2969970703
0.6400949955,-0.7363281250,0.0659179688,0.0112304688,0.5798339844,-0.0762939453,-1.2969970703
0.6426630020,-0.7333984375,0.0659179688,0.0112304688,0.4882812500,-0.1983642578,-0.8544921875
0.6452329159,-0.7333984375,0.0659179688,0.0112304688,0.4882812500,-0.1983642578,-0.8544921875
0.6479649544,-0.7333984375,0.0659179688,0.0112304688,0.4882812500,-0.6103515625,-0.7019042969
0.6505320072,-0.7441406250,0.0644531250,0.0092773438,0.4730224609,-0.6103515625,-0.7019042969
0.6530990601,-0.7441406250,0.0644531250,0.0092773438,0.4730224609,-0.6103515625,-0.7934570312
0.6556599140,-0.7441406250,0.0644531250,0.0092773438,0.2136230469,-0.6103515625,-0.7934570312
0.6583030224,-0.7441406250,0.0644531250,0.0092773438,0.2136230469,-0.6103515625,-1.1901855469
0.6610000134,-0.7416992188,0.0610351562,0.0087890625,0.2136230469,-0.4882812500,-1.1901855469
0.6636948586,-0.7416992188,0.0610351562,0.0087890625,0.2136230469,-0.4882812500,-1.1138916016
0.6663968563,-0.7416992188,0.0610351562,0.0087890625,0.3204345703,-0.6256103516,-1.1138916016
0.6691038609,-0.7416992188,0.0610351562,0.0087890625,0.3204345703,-0.6256103516,-0.8239746094
0.6718020439,-0.7353515625,0.0620117188,0.0073242188,0.1983642578,-0.2746582031,-0.8239746094
0.6744990349,-0.7353515625,0.0620117188,0.0073242188,0.1983642578,-0.2746582031,-0.5187988281
0.6771950722,-0.7353515625,0.0620117188,0.0073242188,-0.5035400391,0.1525878906,-0.5187988281
0.6799068451,-0.7353515625,0.0620117188,0.0151367188,-0.5035400391,0.1525878906,-0.5645751953
0.6825990677,-0.7397460938,0.0595703125,0.0151367188,-0.4730224609,-0.1678466797,-0.5645751953
0.6852960587,-0.7397460938,0.0595703125,0.0151367188,-0.4730224609,-0.1678466797,-0.3356933594
0.6879949570,-0.7397460938,0.0595703125,0.0151367188,-0.8239746094,-0.4425048828,-0.3356933594
0.6907870770,-0.7397460938,0.0576171875,0.0214843750,-0.8239746094,-0.4425048828,-0.3356933594
0.6933720112,-0.7387695312,0.0576171875,0.0214843750,-0.3509521484,-0.5645751953,-0.5187988281
0.6960449219,-0.7387695312,0.0576171875,0.0214843750,-0.3509521484,-0.5645751953,-0.5187988281
0.6987919807,-0.7387695312,0.0576171875,0.0214843750,-0.4882812500,0.0152587891,-0.4577636719
0.7013590336,-0.7319335938,0.0659179688,0.0175781250,-0.4882812500,0.0152587891,-0.4577636719
0.7040510178,-0.7319335938,0.0659179688,0.0175781250,-0.5493164062,0.1373291016,-0.7171630859
0.7069950104,-0.7319335938,0.0659179688,0.0175781250,-0.5493164062,0.1373291016,-0.7171630859
0.7097258568,-0.7319335938,0.0659179688,0.0175781250,-0.4882812500,0.0152587891,-0.5950927734
0.7124290466,-0.7319335938,0.0639648438,0.0092773438,-0.4882812500,0.0152587891,-0.5950927734
0.7151310444,-0.7319335938,0.0639648438,0.0092773438,-0.8392333984,-0.1373291016,-0.4882812500
0.7178659439,-0.7319335938,0.0639648438,0.0092773438,-0.8392333984,-0.1373291016,-0.4882812500
0.7205669880,-0.7319335938,0.0639648438,0.0161132812,-0.5645751953,-0.0305175781,-0.4730224609
0.7232589722,-0.7402343750,0.0610351562,0.0161132812,-0.5645751953,-0.0305175781,-0.4730224609
0.7259640694,-0.7402343750,0.0610351562,0.0161132812,-0.6256103516,-0.3356933594,-0.6103515625
0.7286739349,-0.7402343750,0.0610351562,0.0161132812,-0.6256103516,-0.3356933594,-0.6103515625
0.7313740253,-0.7368164062,0.0659179688,0.0097656250,-0.2899169922,-0.5035400391,-0.2593994141
0.7340719700,-0.7368164062,0.0659179688,0.0097656250,-0.2899169922,-0.5035400391,3.6468505859
0.7367739677,-0.7368164062,0.0659179688,0.0097656250,-0.7019042969,-0.2441406250,0.0610351562
0.7393929958,-0.7368164062,0.0659179688,0.0097656250,-0.7019042969,-0.2441406250,0.0610351562
0.7419629097,-0.7319335938,0.0541992188,0.0092773438,-0.8850097656,-0.1220703125,-0.0305175781
0.7445349693,-0.7319335938,0.0541992188,0.0092773438,-0.8850097656,-0.1220703125,-0.0305175781
0.7471020222,-0.7319335938,0.0541992188,0.0092773438,-0.9613037109,-0.5035400391,-0.1831054688
0.7497479916,-0.7319335938,0.0541992188,0.0092773438,-0.9613037109,-0.5035400391,-0.1831054688
0.7523109913,-0.7382812500,0.0620117188,0.0166015625,-1.2817382812,-0.5340576172,-0.3662109375
0.7548768520,-0.7382812500,0.0620117188,0.0166015625,-1.2817382812,-0.5340576172,-0.3662109375
0.7574489117,-0.7382812500,0.0620117188,0.0166015625,-0.5340576172,-0.0610351562,-0.3051757812
0.7603518963,-0.7382812500,0.0620117188,0.0166015625,-0.5340576172,-0.0610351562,-0.3051757812
0.7630338669,-0.7241210938,0.0703125000,0.0039062500,-0.6561279297,-0.1831054688,-0.2136230469
0.7657179832,-0.7241210938,0.0703125000,0.0039062500,-0.6561279297,-0.1831054688,-0.2136230469
0.7684030533,-0.7241210938,0.0703125000,0.0039062500,-0.6561279297,-0.5798339844,-0.5798339844
0.7710859776,-0.7241210938,0.0703125000,0.0117187500,-0.6561279297,-0.5798339844,-0.5798339844
0.7737610340,-0.7353515625,0.0654296875,0.0117187500,-0.3662109375,-0.8087158203,-0.6866455078
0.7764370441,-0.7353515625,0.0654296875,0.0117187500,-0.3662109375,-0.8087158203,-0.6866455078
0.7791390419,-0.7353515625,0.0654296875,0.0117187500,-0.0305175781,-0.6713867188,-0.8392333984
0.7818179131,-0.7382812500,0.0654296875,0.0161132812,-0.0305175781,-0.6713867188,-0.8392333984
0.7845010757,-0.7382812500,0.0654296875,0.0161132812,-0.3662109375,0.0915527344,-0.6561279297
0.7871840000,-0.7382812500,0.0654296875,0.0161132812,-0.3662109375,0.0915527344,-0.6561279297
0.7898769379,-0.7382812500,0.0654296875,0.0161132812,-0.1525878906,0.0152587891,-0.5798339844
0.7925610542,-0.7348632812,0.0693359375,0.0126953125,-0.1525878906,0.0152587891,-0.5798339844
0.7952320576,-0.7348632812,0.0693359375,0.0126953125,0.1525878906,-0.4425048828,-0.5187988281
0.7979218960,-0.7348632812,0.0693359375,0.0126953125,0.1525878906,-0.4425048828,-0.5187988281
0.8006060123,-0.7348632812,0.0693359375,0.0126953125,0.1373291016,-0.6408691406,-0.8392333984
0.8032848835,-0.7338867188,0.0576171875,0.0156250000,0.1373291016,-0.6408691406,-0.8392333984
0.8059618473,-0.7338867188,0.0576171875,0.0156250000,-0.0610351562,-0.5798339844,-1.0223388672
0.8086659908,-0.7338867188,0.0576171875,0.0156250000,-0.0610351562,-0.5798339844,-1.0223388672
0.8113639355,-0.7338867188,0.0576171875,0.0205078125,0.1373291016,-0.3051757812,-0.6866455078
0.8142080307,-0.7338867188,0.0581054688,0.0205078125,0.1373291016,-0.3051757812,-0.6866455078
0.8169159889,-0.7338867188,0.0581054688,0.0205078125,0.4272460938,-0.3204345703,-0.7019042969
0.8199200630,-0.7338867188,0.0581054688,0.0205078125,0.4272460938,-0.3204345703,-0.7019042969
0.8226258755,-0.7421875000,0.0532226562,0.0117187500,0.3509521484,-0.5645751953,-0.8239746094
0.8254270554,-0.7421875000,0.0532226562,0.0117187500,0.3509521484,-0.5645751953,-0.8239746094
0.8281419277,-0.7421875000,0.0532226562,0.0117187500,0.5493164062,-0.3356933594,-0.6256103516
0.8308360577,-0.7421875000,0.0532226562,0.0117187500,0.5493164062,-0.3356933594,-0.6256103516
0.8335359097,-0.7358398438,0.0585937500,0.0083007812,-0.1525878906,-0.2288818359,-0.2288818359
0.8362360001,-0.7358398438,0.0585937500,0.0083007812,-0.1525878906,-0.2288818359,-0.2288818359
0.8389379978,-0.7358398438,0.0585937500,0.0083007812,-0.3662109375,-0.2899169922,-0.1220703125
0.8416280746,-0.7358398438,0.0585937500,0.0117187500,-0.3662109375,-0.2899169922,-0.1220703125
0.8443319798,-0.7377929688,0.0625000000,0.0117187500,-0.5645751953,-0.4119873047,0.0000000000
0.8470289707,-0.7377929688,0.0625000000,0.0117187500,-0.5645751953,-0.4119873047,0.0000000000
0.8496420383,-0.7377929688,0.0625000000,0.0117187500,-0.5340576172,-0.5340576172,-0.2746582031
0.8522069454,-0.7377929688,0.0747070312,0.0083007812,-0.5340576172,-0.5340576172,-0.2746582031
0.8547718525,-0.7377929688,0.0747070312,0.0083007812,-0.5340576172,-0.7171630859,-0.7019042969
0.8573460579,-0.7377929688,0.0747070312,0.0083007812,-0.5493164062,-0.7171630859,-0.7019042969
0.8599679470,-0.7377929688,0.0747070312,0.0083007812,-0.5493164062,-0.7171630859,-0.9307861328
0.8625340462,-0.7294921875,0.0747070312,0.0141601562,-0.2441406250,-0.5950927734,-0.9307861328
0.8651020527,-0.7294921875,0.0747070312,0.0141601562,-0.2441406250,-0.5950927734,-0.8697509766
0.8677308559,-0.7294921875,0.0747070312,0.0141601562,-0.7324218750,-0.1068115234,-0.8697509766
0.8703219891,-0.7294921875,0.0747070312,0.0141601562,-0.7324218750,-0.1068115234,-0.8697509766
0.8728899956,-0.7236328125,0.0668945312,0.0083007812,-0.4882812500,-0.7171630859,-0.8239746094
0.8754608631,-0.7236328125,0.0668945312,0.0083007812,-0.4882812500,-0.7171630859,-0.8239746094
0.8781790733,-0.7236328125,0.0668945312,0.0083007812,-0.3509521484,-0.7171630859,-0.7019042969
0.8808789253,-0.7236328125,0.0668945312,0.0083007812,-0.3509521484,-0.7171630859,-0.7019042969
0.8835790157,-0.7333984375,0.0541992188,0.0175781250,-0.3509521484,-0.6866455078,-0.8392333984
0.8862779140,-0.7333984375,0.0541992188,0.0175781250,-0.3509521484,-0.6866455078,-0.8392333984
0.8890318871,-0.7333984375,0.0541992188,0.0175781250,-0.3204345703,-0.4882812500,-0.9002685547
0.8916029930,-0.7333984375,0.0541992188,0.0175781250,-0.3204345703,-0.4882812500,-0.9002685547
0.8941669464,-0.7221679688,0.0483398438,0.0151367188,-0.3051757812,-0.2288818359,-0.3814697266
0.8967308998,-0.7221679688,0.0483398438,0.0151367188,-0.3051757812,-0.2288818359,-0.3814697266
0.8993930817,-0.7221679688,0.0483398438,0.0151367188,-0.1831054688,0.1983642578,0.0762939453
0.9020938873,-0.7221679688,0.0483398438,0.0219726562,-0.1831054688,0.1983642578,0.0762939453
0.9047889709,-0.7309570312,0.0576171875,0.0219726562,0.0762939453,0.5950927734,0.5645751953
0.9074900150,-0.7309570312,0.0576171875,0.0219726562,0.0762939453,0.5950927734,0.5645751953
0.9100608826,-0.7309570312,0.0576171875,0.0219726562,0.5340576172,0.2288818359,0.5187988281
0.9126319885,-0.7309570312,0.0717773438,0.0234375000,0.5340576172,0.2288818359,0.5187988281
0.9151959419,-0.7290039062,0.0717773438,0.0234375000,0.9765625000,0.2441406250,0.3509521484
0.9178500175,-0.7290039062,0.0717773438,0.0234375000,0.9765625000,0.2441406250,0.3509521484
0.9205489159,-0.7290039062,0.0717773438,0.0234375000,1.6326904297,-0.1983642578,0.4119873047
0.9232430458,-0.7290039062,0.0664062500,0.0214843750,1.6326904297,-0.1983642578,0.4119873047
0.9259388447,-0.7290039062,0.0664062500,0.0214843750,2.4414062500,-0.3051757812,0.6713867188
0.9286808968,-0.7290039062,0.0664062500,0.0214843750,2.4414062500,-0.3051757812,0.6713867188
0.9313769341,-0.7290039062,0.0664062500,0.0214843750,2.7770996094,0.1373291016,0.8544921875
0.9343059063,-0.7270507812,0.0625000000,0.0195312500,2.7770996094,0.1373291016,0.8544921875
0.9369969368,-0.7270507812,0.0625000000,0.0195312500,3.4942626953,0.3662109375,1.2664794922
0.9397709370,-0.7270507812,0.0625000000,0.0195312500,3.4942626953,0.3662109375,1.2664794922
0.9423449039,-0.7270507812,0.0625000000,0.0195312500,4.0283203125,0.1068115234,1.4648437500
0.9449069500,-0.7451171875,0.0590820312,0.0112304688,4.0283203125,0.1068115234,1.4648437500
0.9474780560,-0.7451171875,0.0590820312,0.0112304688,4.1198730469,-0.0457763672,1.4190673828
0.9501788616,-0.7451171875,0.0590820312,0.0112304688,4.1198730469,-0.0457763672,1.4190673828
0.9529938698,-0.7451171875,0.0629882812,0.0117187500,4.0588378906,-0.0915527344,1.8615722656
0.9556999207,-0.7500000000,0.0629882812,0.0117187500,4.0588378906,-0.0915527344,1.8615722656
0.9583950043,-0.7500000000,0.0629882812,0.0117187500,4.1351318359,-0.3509521484,1.5411376953
0.9610910416,-0.7500000000,0.0629882812,0.0117187500,4.1351318359,-0.3509521484,1.5411376953
0.9637899399,-0.7333984375,0.0532226562,0.0053710938,4.1961669922,-0.0915527344,1.4801025391
0.9664819241,-0.7333984375,0.0532226562,0.0053710938,4.1961669922,-0.0915527344,1.4801025391
0.9691178799,-0.7333984375,0.0532226562,0.0053710938,0.2899169922,-0.1525878906,1.4343261719
0.9716858864,-0.7333984375,0.0532226562,0.0053710938,3.3874511719,-0.1525878906,1.4343261719
0.9742488861,-0.7338867188,0.0610351562,0.0058593750,3.3874511719,-0.1525878906,1.6479492188
0.9768159389,-0.7338867188,0.0610351562,0.0058593750,1.9226074219,-0.0762939453,1.6479492188
0.9794259071,-0.7338867188,0.0610351562,0.0058593750,1.9226074219,-0.0762939453,1.7547607422
0.9819920063,-0.7338867188,0.0610351562,0.0058593750,1.9378662109,-0.1525878906,1.7547607422
0.9845619202,-0.7397460938,0.0649414062,0.0122070312,1.9378662109,-0.1525878906,1.7547607422
0.9871289730,-0.7397460938,0.0649414062,0.0122070312,1.4190673828,0.2288818359,2.4871826172
0.9897429943,-0.7397460938,0.0649414062,0.0122070312,1.4190673828,0.2288818359,2.4871826172
0.9923038483,-0.7397460938,0.0649414062,0.0122070312,1.9378662109,0.2441406250,2.7618408203
0.9948699474,-0.7309570312,0.0703125000,0.0083007812,1.9378662109,0.2441406250,2.7618408203
0.9974448681,-0.7309570312,0.0703125000,0.0083007812,2.2125244141,0.1678466797,3.0059814453
1.0002999306,-0.7309570312,0.0703125000,0.0083007812,2.2125244141,0.1678466797,3.0059814453
1.0029790401,-0.7309570312,0.0703125000,0.0112304688,2.1667480469,0.1831054688,3.0364990234
1.0056579113,-0.7358398438,0.0546875000,0.0112304688,2.1667480469,0.1831054688,3.0364990234
1.0083448887,-0.7358398438,0.0546875000,0.0112304688,1.9378662109,0.4425048828,3.6621093750
1.0110330582,-0.7358398438,0.0546875000,0.0112304688,1.9378662109,0.4425048828,3.6621093750
1.0137150288,-0.7358398438,0.0473632812,0.0224609375,2.1514892578,0.7171630859,4.1809082031
1.0165019035,-0.7216796875,0.0473632812,0.0224609375,2.1514892578,0.7171630859,4.1809082031
1.0191888809,-0.7216796875,0.0473632812,0.0224609375,2.6550292969,0.5035400391,4.8980712891
1.0218629837,-0.7216796875,0.0473632812,0.0224609375,2.6550292969,0.5035400391,4.8980712891
1.0245430470,-0.7373046875,0.0507812500,0.0205078125,2.9449462891,0.5187988281,5.4321289062
1.0272278786,-0.7373046875,0.0507812500,0.0205078125,2.9449462891,0.5187988281,5.4321289062
1.0299139023,-0.7373046875,0.0507812500,0.0205078125,3.0975341797,0.7324218750,6.3781738281
1.0325949192,-0.7373046875,0.0507812500,0.0205078125,3.0975341797,0.7324218750,6.3781738281
1.0352749825,-0.7509765625,0.0454101562,0.0161132812,3.4027099609,0.9002685547,7.4768066406
1.0379660130,-0.7509765625,0.0454101562,0.0161132812,3.4027099609,0.9002685547,7.4768066406
1.0406239033,-0.7509765625,0.0454101562,0.0161132812,3.3569335938,0.2288818359,8.4991455078
1.0432779789,-0.7509765625,0.0454101562,-0.1088867188,3.3569335938,0.2288818359,8.4991455078
1.0459358692,-0.7397460938,0.0249023438,-0.0014648438,2.2735595703,-0.7019042969,9.4146728516
1.0487248898,-0.7397460938,0.0249023438,-0.0014648438,2.2735595703,-0.7019042969,9.4146728516
1.0514230728,-0.7397460938,0.0249023438,-0.0014648438,1.2359619141,-0.7781982422,9.8724365234
1.0543658733,-0.7568359375,-0.0166015625,0.0161132812,1.2359619141,-0.7781982422,9.8724365234
1.0570540428,-0.7568359375,-0.0166015625,0.0161132812,0.5035400391,-0.3509521484,10.2233886719
1.0601739883,-0.7568359375,-0.0166015625,0.0161132812,0.5035400391,-0.3509521484,10.2233886719
1.0628819466,-0.7568359375,-0.0166015625,0.0161132812,-1.2817382812,-0.0915527344,11.4746093750
1.0655829906,-0.7539062500,0.0493164062,-0.0063476562,-1.2817382812,-0.0915527344,11.4746093750
1.0683000088,-0.7539062500,0.0493164062,-0.0063476562,-2.8839111328,-0.0610351562,13.2141113281
1.0709998608,-0.7539062500,0.0493164062,-0.0063476562,-2.8839111328,-0.0610351562,13.2141113281
1.0737040043,-0.7539062500,0.0493164062,0.0068359375,-3.5858154297,-0.2746582031,13.7481689453
1.0764150620,-0.7407226562,0.0717773438,0.0068359375,-3.5858154297,-0.2746582031,13.7481689453
1.0790600777,-0.7407226562,0.0717773438,0.0068359375,-3.7384033203,-0.5645751953,13.9923095703
1.0817279816,-0.7407226562,0.0717773438,0.0068359375,-3.7384033203,-0.5645751953,13.9923095703
1.0843029022,-0.7407226562,0.0537109375,0.0014648438,-3.8757324219,-1.0986328125,13.6871337891
1.0868740082,-0.7382812500,0.0537109375,0.0014648438,-3.8757324219,-1.0986328125,13.6871337891
1.0894510746,-0.7382812500,0.0537109375,0.0014648438,-3.4332275391,-1.2207031250,14.1448974609
1.0920190811,-0.7382812500,0.0537109375,0.0014648438,-3.4332275391,-1.2207031250,14.1448974609
1.0945839882,-0.7382812500,0.0737304688,0.0073242188,-3.0822753906,-1.0070800781,15.1367187500
1.0971539021,-0.7402343750,0.0737304688,0.0073242188,-3.0822753906,-1.0070800781,15.1367187500
1.0997960567,-0.7402343750,0.0737304688,0.0073242188,-3.0822753906,-1.0528564453,15.5639648438
1.1023609638,-0.7402343750,0.0737304688,0.0073242188,-3.3111572266,-1.0528564453,15.5639648438
1.1049270630,-0.7299804688,0.0722656250,0.0166015625,-3.3111572266,-1.0528564453,15.8996582031
1.1074900627,-0.7299804688,0.0722656250,0.0166015625,-2.4871826172,-1.0375976562,15.8996582031
1.1101489067,-0.7299804688,0.0722656250,0.0166015625,-2.4871826172,-1.0375976562,16.7236328125
1.1127119064,-0.7299804688,0.0722656250,0.0166015625,-1.2207031250,-1.0070800781,16.7236328125
1.1152770519,-0.7314453125,0.0698242188,0.0244140625,-1.2207031250,-1.0070800781,16.7236328125
1.1179950237,-0.7314453125,0.0698242188,0.0244140625,0.2593994141,-1.3885498047,17.6849365234
1.1205580235,-0.7314453125,0.0698242188,0.0244140625,0.2593994141,-1.3885498047,17.6849365234
1.1231238842,-0.7314453125,0.0698242188,0.0244140625,0.9307861328,-1.7547607422,18.5546875000
1.1256918907,-0.7407226562,0.0703125000,0.0014648438,0.9307861328,-1.7547607422,18.5546875000
1.1282889843,-0.7407226562,0.0703125000,0.0014648438,1.4801025391,-1.9073486328,19.3786621094
1.1308648586,-0.7407226562,0.0703125000,0.0014648438,1.4801025391,-1.9073486328,19.3786621094
1.1334269047,-0.7407226562,0.0703125000,0.0014648438,2.1209716797,-2.3498535156,20.9350585938
1.1359939575,-0.7314453125,0.0546875000,-0.0024414062,2.1209716797,-2.3498535156,20.9350585938
1.1386539936,-0.7314453125,0.0546875000,-0.0024414062,2.5329589844,-2.5939941406,22.6898193359
1.1413509846,-0.7314453125,0.0546875000,-0.0024414062,2.5329589844,-2.5939941406,22.6898193359
1.1440548897,-0.7314453125,0.0546875000,0.1225585938,1.8920898438,-3.4637451172,24.6124267578
1.1468689442,-0.7319335938,0.0102539062,0.0000000000,1.8920898438,-3.4637451172,24.6124267578
1.1494929790,-0.7319335938,0.0102539062,0.0000000000,1.3580322266,-4.4860839844,26.3671875000
1.1520638466,-0.7319335938,0.0102539062,0.0000000000,1.3580322266,-4.4860839844,26.3671875000
1.1546339989,-0.7319335938,0.0102539062,-0.0209960938,0.5798339844,-4.7302246094,28.3203125000
1.1572060585,-0.7573242188,0.0078125000,-0.0209960938,0.5798339844,-4.7302246094,28.3203125000
1.1599409580,-0.7573242188,0.0078125000,-0.0209960938,-0.9002685547,-4.4097900391,30.5633544922
1.1626410484,-0.7573242188,0.0078125000,-0.0209960938,-0.9002685547,-4.4097900391,30.5633544922
1.1653418541,-0.7573242188,0.0356445312,-0.0283203125,-3.0822753906,-4.4555664062,32.9437255859
1.1681900024,-0.7563476562,0.0356445312,-0.0283203125,-3.0822753906,-4.4555664062,32.9437255859
1.1708600521,-0.7563476562,0.0356445312,-0.0283203125,-4.4403076172,-5.4473876953,34.9578857422
1.1735918522,-0.7563476562,0.0356445312,-0.0283203125,-4.4403076172,-5.4473876953,34.9578857422
1.1764419079,-0.7514648438,0.0273437500,-0.0009765625,-4.6234130859,-5.7678222656,37.5518798828
1.1794219017,-0.7514648438,0.0273437500,-0.0009765625,-4.6234130859,-5.7678222656,37.5518798828
1.1819930077,-0.7514648438,0.0273437500,-0.0009765625,-6.7901611328,-5.5389404297,39.9475097656
1.1845629215,-0.7514648438,0.0273437500,-0.0009765625,-6.7901611328,-5.5389404297,39.9475097656
1.1871368885,-0.7226562500,0.0493164062,-0.0004882812,-9.1705322266,-5.7525634766,42.1905517578
1.1898210049,-0.7226562500,0.0493164062,-0.0004882812,-9.1705322266,-5.7525634766,42.1905517578
1.1925220490,-0.7226562500,0.0493164062,-0.0004882812,-10.6964111328,-5.7525634766,44.1894531250
1.1952328682,-0.7226562500,0.0771484375,0.0048828125,-10.6964111328,-5.7525634766,44.1894531250
1.1979498863,-0.6938476562,0.0771484375,0.0048828125,-12.2070312500,-6.5307617188,46.3256835938
1.2006609440,-0.6938476562,0.0771484375,0.0048828125,-12.2070312500,-6.5307617188,46.3256835938
1.2033638954,-0.6938476562,0.0771484375,0.0048828125,-11.7034912109,-7.5073242188,48.5687255859
1.2060709000,-0.6958007812,0.0971679688,0.0190429688,-11.7034912109,-7.5073242188,48.5687255859
1.2087419033,-0.6958007812,0.0971679688,0.0190429688,-9.3994140625,-8.9263916016,51.1932373047
1.2114279270,-0.6958007812,0.0971679688,0.0190429688,-9.3994140625,-8.9263916016,51.1932373047
1.2139959335,-0.6958007812,0.0971679688,0.0190429688,-5.4931640625,-10.1165771484,54.0466308594
1.2165720463,-0.7363281250,0.0781250000,0.0039062500,-6.1798095703,-10.1165771484,54.0466308594
1.2191970348,-0.7363281250,0.0781250000,0.0039062500,-6.1798095703,-10.1165771484,56.3812255859
1.2217700481,-0.7363281250,0.0781250000,0.0039062500,-3.4942626953,-10.5743408203,56.3812255859
1.2243449688,-0.7363281250,0.0781250000,0.0039062500,-3.4942626953,-10.5743408203,58.5174560547
1.2269189358,-0.7631835938,0.0410156250,-0.0341796875,-1.1901855469,-10.6964111328,58.5174560547
1.2295949459,-0.7631835938,0.0410156250,-0.0341796875,-1.1901855469,-10.6964111328,62.4237060547
1.2321648598,-0.7631835938,0.0410156250,-0.0341796875,-0.3509521484,-11.5966796875,60.8673095703
1.2347340584,-0.7631835938,0.0410156250,-0.0341796875,-0.3509521484,-11.5966796875,60.8673095703
1.2373139858,-0.7705078125,0.0444335938,-0.0361328125,-0.7019042969,-12.2375488281,63.5375976562
1.2400350571,-0.7705078125,0.0444335938,-0.0361328125,-0.7019042969,-12.2375488281,63.5375976562
1.2427408695,-0.7705078125,0.0444335938,-0.0361328125,-1.6479492188,-12.6953125000,66.0400390625
1.2454540730,-0.7705078125,0.0444335938,-0.0566406250,-1.6479492188,-12.6953125000,66.0400390625
1.2481729984,-0.7539062500,0.0395507812,-0.0566406250,-4.4555664062,-12.5427246094,68.2983398438
1.2508800030,-0.7539062500,0.0395507812,-0.0566406250,-4.4555664062,-12.5427246094,68.2983398438
1.2535879612,-0.7539062500,0.0395507812,-0.0566406250,-9.5520019531,-12.7410888672,70.0531005859
1.2562930584,-0.6923828125,0.1010742188,-0.0185546875,-9.5520019531,-12.7410888672,70.0531005859
1.2590060234,-0.6923828125,0.1010742188,-0.0185546875,-15.0146484375,-13.1835937500,71.9757080078
1.2617130280,-0.6923828125,0.1010742188,-0.0185546875,-15.0146484375,-13.1835937500,71.9757080078
1.2644288540,-0.6923828125,0.1010742188,-0.0185546875,-19.8822021484,-15.2130126953,73.1658935547
1.2671399117,-0.6684570312,0.2407226562,0.0493164062,-19.8822021484,-15.2130126953,73.1658935547
1.2697839737,-0.6684570312,0.2407226562,0.0493164062,-22.5830078125,-17.8375244141,73.0438232422
1.2723689079,-0.6684570312,0.2407226562,0.0493164062,-22.5830078125,-17.8375244141,73.0438232422
1.2750530243,-0.6684570312,0.2407226562,0.0493164062,-22.0947265625,-19.1497802734,71.9757080078
1.2776219845,-0.6767578125,0.3242187500,0.0698242188,-22.0947265625,-19.1497802734,71.9757080078
1.2802100182,-0.6767578125,0.3242187500,0.0698242188,-18.1121826172,-18.7988281250,70.6024169922
1.2827930450,-0.6767578125,0.3242187500,0.0698242188,-18.1121826172,-18.7988281250,70.6024169922
1.2853720188,-0.6767578125,0.3242187500,0.0698242188,-13.0004882812,-18.6004638672,69.1833496094
1.2879738808,-0.6494140625,0.2714843750,0.0664062500,-13.0004882812,-18.6004638672,69.1833496094
1.2906839848,-0.6494140625,0.2714843750,0.0664062500,-8.4686279297,-18.4783935547,67.5964355469
1.2933950424,-0.6494140625,0.2714843750,0.0664062500,-8.4686279297,-18.4783935547,67.5964355469
1.2962288857,-0.6494140625,0.1577148438,0.0214843750,-6.1798095703,-17.8833007812,66.2841796875
1.2992639542,-0.6040039062,0.1577148438,0.0214843750,-6.1798095703,-17.8833007812,66.2841796875
1.3019719124,-0.6040039062,0.1577148438,0.0214843750,-7.7819824219,-14.8162841797,66.2994384766
1.3046810627,-0.6040039062,0.1577148438,0.0214843750,-7.7819824219,-14.8162841797,66.2994384766
1.3073909283,-0.5688476562,0.1025390625,0.0366210938,-12.9089355469,-11.9171142578,67.3828125000
1.3101148605,-0.5688476562,0.1025390625,0.0366210938,-12.9089355469,-11.9171142578,67.3828125000
1.3128268719,-0.5688476562,0.1025390625,0.0366210938,-21.6827392578,-11.4288330078,69.9615478516
1.3155410290,-0.5688476562,0.1025390625,0.0366210938,-21.6827392578,-11.4288330078,69.9615478516
1.3183090687,-0.6596679688,0.2490234375,0.1293945312,-30.2429199219,-13.1988525391,71.7773437500
1.3210189342,-0.6596679688,0.2490234375,0.1293945312,-30.2429199219,-13.1988525391,71.7773437500
1.3237290382,-0.6596679688,0.2490234375,0.1293945312,-34.0270996094,-15.1824951172,72.5250244141
1.3264329433,-0.6596679688,0.4990234375,0.1816406250,-34.0270996094,-15.1824951172,72.5250244141
1.3290870190,-0.8129882812,0.3994140625,0.1816406250,-30.9295654297,-16.9830322266,71.5637207031
1.3316590786,-0.8129882812,0.3994140625,0.1816406250,-30.9295654297,-16.9830322266,71.5637207031
1.3342349529,-0.8129882812,0.3994140625,0.1816406250,-21.7132568359,-16.5405273438,70.2819824219
1.3368198872,-0.8129882812,0.3164062500,0.0512695312,-21.7132568359,-16.5405273438,70.2819824219
1.3395528793,-0.8032226562,0.3164062500,0.0512695312,-9.4604492188,-14.2059326172,70.4040527344
1.3421330452,-0.8032226562,0.3164062500,0.0512695312,-9.4604492188,-14.2059326172,70.4040527344
1.3447039127,-0.8032226562,0.3164062500,0.0512695312,2.2583007812,-11.9781494141,71.8536376953
1.3472719193,-0.6259765625,0.0566406250,-0.0541992188,0.6713867188,-11.9781494141,71.8536376953
1.3499598503,-0.6259765625,0.0566406250,-0.0541992188,0.6713867188,-10.4980468750,74.0051269531
1.3525290489,-0.6259765625,0.0566406250,-0.0541992188,4.5928955078,-10.4980468750,74.0051269531
1.3551030159,-0.6259765625,0.0566406250,-0.0541992188,4.5928955078,-10.4980468750,77.6824951172
1.3577868938,-0.5874023438,-0.0488281250,0.0092773438,0.9307861328,-9.5672607422,77.6824951172
1.3605098724,-0.5874023438,-0.0488281250,0.0092773438,0.9307861328,-9.5672607422,82.4584960938
1.3632230759,-0.5874023438,-0.0488281250,0.0092773438,-6.8817138672,-9.5520019531,82.4584960938
1.3659219742,-0.5874023438,-0.0488281250,0.0092773438,-6.8817138672,-9.5520019531,87.0819091797
1.3686649799,-0.7358398438,0.0649414062,0.1020507812,-16.1285400391,-10.6964111328,87.0819091797
1.3713819981,-0.7358398438,0.0649414062,0.1020507812,-16.1285400391,-10.6964111328,90.2099609375
1.3740990162,-0.7358398438,0.0649414062,0.1020507812,-23.4680175781,-11.6271972656,90.2099609375
1.3768138885,-0.7358398438,0.1899414062,0.1118164062,-23.4680175781,-11.6271972656,91.6442871094
1.3794529438,-0.8032226562,0.1557617188,0.1118164062,-27.4810791016,-11.4898681641,91.6442871094
1.3820309639,-0.8032226562,0.1557617188,0.1118164062,-27.4810791016,-11.4898681641,91.6442871094
1.3846099377,-0.8032226562,0.1557617188,0.1118164062,-27.8015136719,-11.0321044922,93.2006835938
1.3871810436,-0.8032226562,0.1347656250,0.0112304688,-27.8015136719,-11.0321044922,93.2006835938
1.3898010254,-0.6606445312,0.1347656250,0.0112304688,-24.2767333984,-10.5743408203,95.0317382812
1.3923850060,-0.6606445312,0.1347656250,0.0112304688,-24.2767333984,-10.5743408203,95.0317382812
1.3949620724,-0.6606445312,0.1347656250,0.0112304688,-21.7895507812,-11.0626220703,96.7407226562
1.3975949287,-0.5356445312,0.1132812500,-0.0390625000,-21.7895507812,-11.0626220703,96.7407226562
1.4003040791,-0.5517578125,0.1132812500,-0.0390625000,-23.7274169922,-12.7563476562,98.5260009766
1.4031229019,-0.5517578125,0.1132812500,-0.0390625000,-23.7274169922,-12.7563476562,98.5260009766
1.4059269428,-0.5517578125,0.1132812500,-0.0390625000,-28.6407470703,-14.1448974609,100.2655029297
1.4086790085,-0.5615234375,0.2070312500,0.0366210938,-28.6407470703,-14.1448974609,100.2655029297
1.4113819599,-0.5615234375,0.2070312500,0.0366210938,-34.3017578125,-14.9536132812,101.8371582031
1.4141619205,-0.5615234375,0.2070312500,0.0366210938,-34.3017578125,-14.9536132812,101.8371582031
1.4168639183,-0.5615234375,0.2070312500,0.0366210938,-38.4063720703,-16.5252685547,102.1728515625
1.4206779003,-0.5629882812,0.3193359375,0.1040039062,-38.4063720703,-17.7612304688,100.9063720703
1.4232530594,-0.5629882812,0.3193359375,0.1040039062,-38.7268066406,-17.7612304688,100.9063720703
1.4258270264,-0.5629882812,0.3193359375,0.1040039062,-38.7268066406,-17.7612304688,99.4567871094
1.4284789562,-0.6596679688,0.4125976562,0.1484375000,-37.2161865234,-18.7988281250,99.4567871094
1.4310550690,-0.6596679688,0.4125976562,0.1484375000,-37.2161865234,-18.7988281250,95.5505371094
1.4336309433,-0.6596679688,0.4125976562,0.1484375000,-31.0363769531,-17.8680419922,97.0764160156
1.4362039566,-0.6596679688,0.4125976562,0.1484375000,-31.0363769531,-17.8680419922,97.0764160156
1.4388308525,-0.6777343750,0.4238281250,0.1035156250,-20.2484130859,-16.7083740234,95.5657958984
1.4414029121,-0.6777343750,0.4238281250,0.1035156250,-20.2484130859,-16.7083740234,95.5657958984
1.4439740181,-0.6777343750,0.4238281250,0.1035156250,-10.9863281250,-15.9606933594,94.0551757812
1.4465448856,-0.6777343750,0.4238281250,0.1035156250,-10.9863281250,-15.9606933594,94.0551757812
1.4491279125,-0.6850585938,0.4980468750,0.1210937500,-6.6528320312,-15.0756835938,90.7745361328
1.4516980648,-0.6850585938,0.4980468750,0.1210937500,-6.6528320312,-15.0756835938,90.7745361328
1.4542710781,-0.6850585938,0.4980468750,0.1210937500,-5.6457519531,-14.2822265625,87.8448486328
1.4568409920,-0.6850585938,0.4980468750,0.1210937500,-5.6457519531,-14.2822265625,87.8448486328
1.4594368935,-0.6503906250,0.5810546875,0.0683593750,-4.3334960938,-14.0533447266,85.3271484375
1.4620108604,-0.6503906250,0.5810546875,0.0683593750,-4.3334960938,-14.0533447266,85.3271484375
1.4645829201,-0.6503906250,0.5810546875,0.0683593750,-2.0904541016,-13.4277343750,82.1380615234
1.4672648907,-0.6503906250,0.5810546875,0.0683593750,-2.0904541016,-13.4277343750,82.1380615234
1.4699459076,-0.5722656250,0.5639648438,0.0683593750,1.8157958984,-12.9089355469,79.1168212891
1.4725229740,-0.5722656250,0.5639648438,0.0683593750,0.6561279297,-12.9089355469,79.1168212891
1.4750959873,-0.5722656250,0.5639648438,0.0683593750,0.6561279297,-12.9089355469,76.7669677734
1.4777450562,-0.5722656250,0.5639648438,0.0986328125,3.2348632812,-12.2528076172,76.7669677734
1.4804620743,-0.6235351562,0.5126953125,0.0986328125,3.2348632812,-12.0391845703,74.2034912109
1.4831640720,-0.6235351562,0.5126953125,0.0986328125,5.3405761719,-12.0391845703,74.2034912109
1.4858629704,-0.6235351562,0.5126953125,0.0986328125,5.3405761719,-12.0391845703,71.2280273438
1.4885828495,-0.6054687500,0.3945312500,0.0566406250,6.9274902344,-12.8784179688,71.2280273438
1.4912879467,-0.6054687500,0.3945312500,0.0566406250,6.9274902344,-12.8784179688,69.7021484375
1.4939939976,-0.6054687500,0.3945312500,0.0566406250,9.0332031250,-13.8702392578,69.7021484375
1.4967000484,-0.6054687500,0.3945312500,0.0566406250,9.0332031250,-13.8702392578,68.8476562500
1.4994108677,-0.5913085938,0.4194335938,0.0927734375,10.2233886719,-12.8631591797,68.8476562500
1.5021219254,-0.5913085938,0.4194335938,0.0927734375,10.2233886719,-8.9569091797,67.0166015625
1.5048239231,-0.5913085938,0.4194335938,0.0927734375,8.2397460938,-10.9405517578,67.0166015625
1.5075318813,-0.5913085938,0.4194335938,0.0927734375,8.2397460938,-10.9405517578,63.7359619141
1.5101490021,-0.6494140625,0.5488281250,0.0820312500,4.4250488281,-10.3302001953,63.7359619141
1.5127198696,-0.6494140625,0.5488281250,0.0820312500,4.4250488281,-10.3302001953,60.3790283203
1.5152950287,-0.6494140625,0.5488281250,0.0820312500,5.5084228516,-9.6435546875,60.3790283203
1.5179450512,-0.6494140625,0.5488281250,0.0615234375,5.5084228516,-9.6435546875,56.4727783203
1.5206429958,-0.6254882812,0.6010742188,0.0615234375,10.6048583984,-7.5073242188,56.4575195312
1.5233428478,-0.6254882812,0.6010742188,0.0615234375,10.6048583984,-7.5073242188,52.5512695312
1.5260438919,-0.6254882812,0.6010742188,0.0615234375,14.8773193359,-3.7231445312,51.8798828125
1.5287590027,-0.5004882812,0.5346679688,0.0883789062,14.8773193359,-3.7231445312,47.9736328125
1.5315699577,-0.5913085938,0.5346679688,0.0883789062,15.0451660156,-2.0141601562,46.8902587891
1.5343608856,-0.5913085938,0.5346679688,0.0883789062,15.0451660156,-2.0141601562,39.0777587891
1.5370600224,-0.5913085938,0.5346679688,0.0883789062,13.0462646484,-0.8697509766,42.9382324219
1.5401680470,-0.5249023438,0.5625000000,0.1118164062,13.0462646484,-0.8697509766,39.1540527344
1.5428669453,-0.5249023438,0.5625000000,0.1118164062,10.9710693359,-0.9460449219,39.1540527344
1.5455708504,-0.5249023438,0.5625000000,0.1118164062,10.9710693359,-0.9460449219,34.4848632812
1.5482878685,-0.5249023438,0.5625000000,0.1225585938,11.2915039062,-0.8697509766,34.4848632812
1.5509910583,-0.5283203125,0.6557617188,0.1225585938,11.2915039062,-0.8697509766,29.1137695312
1.5536930561,-0.5283203125,0.6557617188,0.1225585938,11.9934082031,-0.3662109375,29.1137695312
1.5563950539,-0.5283203125,0.6557617188,0.1225585938,11.9934082031,-0.3662109375,23.6053466797
1.5590400696,-0.5283203125,0.6660156250,0.0937500000,13.2446289062,-0.0610351562,23.6053466797
1.5616128445,-0.5537109375,0.6660156250,0.0937500000,13.2446289062,-0.0610351562,15.7928466797
1.5641839504,-0.5537109375,0.6660156250,0.0937500000,16.4947509766,-0.9002685547,17.9901123047
1.5667538643,-0.5537109375,0.6660156250,0.0937500000,16.4947509766,-0.9002685547,17.9901123047
1.5693399906,-0.4765625000,0.6357421875,0.0678710938,17.9443359375,-4.1046142578,10.8795166016
1.5719130039,-0.4765625000,0.6357421875,0.0678710938,17.9443359375,-4.1046142578,10.8795166016
1.5744850636,-0.4765625000,0.6357421875,0.0678710938,15.2130126953,-7.7514648438,2.8533935547
1.5770530701,-0.4765625000,0.6357421875,0.0678710938,15.2130126953,-7.7514648438,2.8533935547
1.5796329975,-0.4780273438,0.6811523438,0.0346679688,11.2304687500,-10.3454589844,-4.6234130859
1.5822069645,-0.4780273438,0.6811523438,0.0346679688,11.2304687500,-10.3454589844,-4.6234130859
1.5847809315,-0.4780273438,0.6811523438,0.0346679688,6.9885253906,-13.5955810547,-12.4664306641
1.5873520374,-0.4780273438,0.6811523438,0.0346679688,6.9885253906,-13.5955810547,-12.4664306641
1.5900909901,-0.4233398438,0.7177734375,0.0341796875,5.4473876953,-15.5181884766,-20.8892822266
1.5926618576,-0.4233398438,0.7177734375,0.0341796875,5.4473876953,-15.5181884766,-20.8892822266
1.5953490734,-0.4233398438,0.7177734375,0.0341796875,7.2479248047,-16.2658691406,-28.0761718750
1.5980339050,-0.4233398438,0.7177734375,0.0341796875,7.2479248047,-16.2658691406,-28.0761718750
1.6007559299,-0.4648437500,0.6914062500,0.0595703125,9.5825195312,-17.0135498047,-35.7055664062
1.6034619808,-0.4648437500,0.6914062500,0.0595703125,9.5825195312,-17.0135498047,-35.7055664062
1.6061730385,-0.4648437500,0.6914062500,0.0595703125,11.7340087891,-17.2119140625,-43.5180664062
1.6088340282,-0.4648437500,0.6914062500,0.0761718750,11.7340087891,-17.2119140625,-43.5180664062
1.6114089489,-0.5883789062,0.6718750000,0.0761718750,11.7340087891,-16.9525146484,-50.0640869141
1.6139829159,-0.5883789062,0.6718750000,0.0761718750,14.3432617188,-16.9525146484,-50.0640869141
1.6165580750,-0.5883789062,0.6718750000,0.0761718750,14.3432617188,-16.9525146484,-55.7250976562
1.6192200184,-0.5883789062,0.6718750000,0.0981445312,18.5699462891,-16.3879394531,-55.7250976562
1.6219289303,-0.6772460938,0.6762695312,0.0981445312,18.5699462891,-12.4816894531,-61.9659423828
1.6246409416,-0.6772460938,0.6762695312,0.0981445312,26.2756347656,-14.8010253906,-61.9659423828
1.6273469925,-0.6772460938,0.6762695312,0.0981445312,26.2756347656,-10.8947753906,-69.6716308594
1.6300940514,-0.7592773438,0.6904296875,0.1855468750,35.7208251953,-11.0931396484,-69.6716308594
1.6328029633,-0.7592773438,0.6904296875,0.1855468750,35.7208251953,-7.1868896484,-77.1942138672
1.6355068684,-0.7592773438,0.6904296875,0.1855468750,46.6308593750,-7.5836181641,-77.1942138672
1.6382188797,-0.7592773438,0.6904296875,0.1855468750,46.6308593750,-7.5836181641,-83.7402343750
1.6409230232,-0.7695312500,0.6064453125,0.2656250000,58.3496093750,-4.2266845703,-83.7402343750
1.6436269283,-0.7695312500,0.6064453125,0.2656250000,58.3496093750,-0.3204345703,-89.3249511719
1.6463320255,-0.7695312500,0.6064453125,0.2656250000,67.5048828125,-1.2817382812,-89.3249511719
1.6490838528,-0.7695312500,0.6064453125,0.2656250000,67.5048828125,2.6245117188,-95.1690673828
1.6517839432,-0.7949218750,0.6181640625,0.2548828125,73.3184814453,0.8697509766,-95.1690673828
1.6545848846,-0.7949218750,0.6181640625,0.2548828125,73.3184814453,0.8697509766,-104.8431396484
1.6577298641,-0.7949218750,0.6181640625,0.2548828125,75.9124755859,2.1820068359,-104.8431396484
1.6604230404,-0.8374023438,0.6904296875,0.2939453125,75.9124755859,4.3334960938,-115.6005859375
1.6630020142,-0.8374023438,0.6904296875,0.2939453125,75.1037597656,4.3334960938,-115.6005859375
1.6655759811,-0.8374023438,0.6904296875,0.2939453125,75.1037597656,8.2397460938,-125.0762939453
1.6681809425,-0.8374023438,0.6904296875,0.2939453125,70.5413818359,8.0261230469,-125.0762939453
1.6708860397,-0.9243164062,0.7285156250,0.2392578125,70.5413818359,11.9323730469,-135.3302001953
1.6735939980,-0.9243164062,0.7285156250,0.2392578125,66.6656494141,13.3209228516,-135.3302001953
1.6762959957,-0.9243164062,0.7285156250,0.2392578125,66.6656494141,17.2271728516,-147.6135253906
1.6790049076,-0.9243164062,0.7285156250,0.2392578125,63.7207031250,19.0124511719,-147.6135253906
1.6817140579,-1.0693359375,0.8540039062,0.3212890625,63.7207031250,26.8249511719,-159.5306396484
1.6844239235,-1.0693359375,0.8540039062,0.3212890625,59.2956542969,25.1922607422,-159.5306396484
1.6871290207,-1.0693359375,0.8540039062,0.3212890625,59.2956542969,29.0985107422,-169.2047119141
1.6897718906,-1.0693359375,0.8540039062,0.3447265625,60.5773925781,29.2968750000,-169.2047119141
1.6923489571,-1.5117187500,1.0561523438,0.3447265625,60.5773925781,29.2968750000,-180.3283691406
1.6949238777,-1.5117187500,1.0561523438,0.3447265625,65.9332275391,31.4636230469,-180.3283691406
1.6974999905,-1.5117187500,1.0561523438,0.3447265625,65.9332275391,31.4636230469,-180.3283691406
1.7000799179,-1.5117187500,0.6811523438,0.0595703125,73.0895996094,35.7208251953,-195.3887939453
1.7026598454,-2.3945312500,0.6923828125,0.0595703125,73.0895996094,35.7208251953,-195.3887939453
1.7052359581,-2.3945312500,0.6923828125,0.0595703125,81.3598632812,38.6810302734,-207.8399658203
1.7079830170,-2.3945312500,0.6923828125,0.0595703125,81.3598632812,38.6810302734,-207.8399658203
1.7105560303,-2.6445312500,0.1689453125,0.0517578125,84.5184326172,37.6586914062,-215.4541015625
1.7132859230,-2.7363281250,0.1689453125,0.0517578125,84.5184326172,37.6586914062,-215.4541015625
1.7158679962,-2.7363281250,0.1689453125,0.0517578125,80.7800292969,32.3181152344,-220.9777832031
1.7187149525,-2.7363281250,0.1689453125,0.0517578125,80.7800292969,32.3181152344,-220.9777832031
1.7212879658,-2.6694335938,-0.3154296875,0.0727539062,75.3784179688,22.7508544922,-226.5777587891
1.7239720821,-2.6694335938,-0.3154296875,0.0727539062,75.3784179688,22.7508544922,-226.5777587891
1.7265429497,-2.6694335938,-0.3154296875,0.0727539062,72.8302001953,10.3302001953,-237.8082275391
1.7292418480,-2.6694335938,-0.3154296875,0.0727539062,72.8302001953,10.3302001953,-237.8082275391
1.7318098545,-2.5620117188,-0.7475585938,0.1308593750,69.9310302734,10.0860595703,-257.9040527344
1.7347040176,-2.5620117188,-0.7475585938,0.1308593750,69.9310302734,10.0860595703,-257.9040527344
1.7372798920,-2.5620117188,-0.7475585938,0.1308593750,69.4122314453,23.1170654297,-286.6210937500
1.7398579121,-2.5620117188,-0.7475585938,0.0058593750,69.4122314453,23.1170654297,-286.6210937500
1.7424330711,-1.1474609375,-0.6816406250,0.0463867188,65.6585693359,27.7252197266,-301.8646240234
1.7450048923,-1.1474609375,-0.6816406250,0.0463867188,65.6585693359,27.7252197266,-301.8646240234
1.7476098537,-1.1474609375,-0.6816406250,0.0463867188,46.0968017578,22.3541259766,-291.7633056641
1.7501850128,-1.1474609375,-0.6816406250,0.1562500000,46.0968017578,22.3541259766,-291.7633056641
1.7527539730,-0.6083984375,0.0107421875,0.1562500000,46.0968017578,20.7824707031,-269.5770263672
1.7553269863,-0.6083984375,0.0107421875,0.1562500000,17.2576904297,20.7824707031,-269.5770263672
1.7579128742,-0.6083984375,0.0107421875,0.1562500000,17.2576904297,20.7824707031,-244.3389892578
1.7604858875,-0.6083984375,0.7607421875,0.1538085938,0.5798339844,27.6947021484,-244.3389892578
1.7630569935,-0.8583984375,0.8315429688,0.1538085938,0.5798339844,27.6947021484,-209.1827392578
1.7656269073,-0.8583984375,0.8315429688,0.1538085938,-1.4190673828,36.9262695312,-209.1827392578
1.7682819366,-0.8583984375,0.8315429688,0.1538085938,-1.4190673828,36.9262695312,-209.1827392578
1.7708580494,-0.8583984375,1.6318359375,0.4780273438,4.2724609375,39.7949218750,-162.3840332031
1.7734260559,-1.0483398438,1.6318359375,0.4780273438,4.2724609375,39.7949218750,-162.3840332031
1.7759928703,-1.0483398438,1.6318359375,0.4780273438,9.9792480469,37.0330810547,-115.9210205078
1.7787408829,-1.0483398438,1.6318359375,0.4780273438,9.9792480469,37.0330810547,-115.9210205078
1.7813129425,-0.4233398438,1.2377929688,0.5805664062,21.9268798828,23.9257812500,-80.3527832031
1.7838890553,-0.3989257812,1.2377929688,0.5805664062,21.9268798828,23.9257812500,-80.3527832031
1.7864639759,-0.3989257812,1.2377929688,0.5805664062,20.7519531250,-2.8381347656,-45.7916259766
1.7892658710,-0.3989257812,1.2377929688,0.5805664062,20.7519531250,-2.8381347656,-45.7916259766
1.7918410301,0.0048828125,0.5307617188,0.4252929688,-7.2326660156,-24.0020751953,-8.6517333984
1.7944068909,0.0048828125,0.5307617188,0.4252929688,-7.2326660156,-24.0020751953,-8.6517333984
1.7969720364,0.0048828125,0.5307617188,0.4252929688,-24.7192382812,-35.9191894531,15.8386230469
1.7995879650,0.0048828125,0.5307617188,0.4252929688,-24.7192382812,-35.9191894531,15.8386230469
1.8021619320,-0.3383789062,0.2270507812,-0.0288085938,-23.4985351562,-35.9954833984,37.8417968750
1.8047389984,-0.3383789062,0.2270507812,-0.0288085938,-23.4985351562,-35.9954833984,37.8417968750
1.8073089123,-0.3383789062,0.2270507812,-0.0288085938,-27.4047851562,-32.7606201172,63.8885498047
1.8100140095,-0.3383789062,0.2270507812,-0.0288085938,-28.3508300781,-32.7606201172,63.8885498047
1.8127279282,-0.5283203125,0.3115234375,-0.1821289062,-32.2570800781,-28.1982421875,82.5653076172
1.8154590130,-0.5283203125,0.3115234375,-0.1821289062,-32.7758789062,-28.1982421875,82.5653076172
1.8182258606,-0.5283203125,0.3115234375,-0.1821289062,-32.7758789062,-25.1617431641,93.5363769531
1.8209040165,-0.5283203125,0.3115234375,-0.1132812500,-32.2875976562,-25.1617431641,93.5363769531
1.8237080574,-0.3642578125,0.3652343750,-0.1132812500,-24.4750976562,-27.4658203125,100.1281738281
1.8263189793,-0.3642578125,0.3652343750,-0.1132812500,-26.0314941406,-27.4658203125,100.1281738281
1.8289780617,-0.3642578125,0.3652343750,-0.1132812500,-26.0314941406,-31.7840576172,103.1341552734
1.8315529823,-0.3642578125,0.2578125000,-0.0952148438,-14.4805908203,-31.7840576172,103.1341552734
1.8341329098,-0.2290039062,0.2578125000,-0.0952148438,-14.4805908203,-31.7840576172,103.1036376953
1.8367009163,-0.2290039062,0.2578125000,-0.0952148438,-2.6855468750,-35.6750488281,103.1036376953
1.8392870426,-0.2290039062,0.2578125000,-0.0952148438,-2.6855468750,-35.6750488281,102.6000976562
1.8418600559,-0.2290039062,0.0883789062,-0.1513671875,7.6293945312,-37.5976562500,102.6000976562
1.8444280624,-0.1894531250,0.0883789062,-0.1513671875,7.6293945312,-37.5976562500,102.6000976562
1.8469960690,-0.1894531250,0.0883789062,-0.1513671875,15.9301757812,-38.8488769531,101.0131835938
1.8496098518,-0.1894531250,0.0883789062,-0.1513671875,15.9301757812,-38.8488769531,101.0131835938
1.8522930145,-0.1674804688,-0.0410156250,-0.1655273438,20.8740234375,-39.3981933594,99.0142822266
1.8548700809,-0.1674804688,-0.0410156250,-0.1655273438,20.8740234375,-39.3981933594,99.0142822266
1.8574409485,-0.1674804688,-0.0410156250,-0.1655273438,23.0255126953,-39.3066406250,96.8017578125
1.8601448536,-0.1674804688,-0.0410156250,-0.1655273438,23.0255126953,-39.3066406250,96.8017578125
1.8627228737,-0.1342773438,-0.1416015625,-0.1533203125,21.6064453125,-37.7807617188,93.9941406250
1.8652949333,-0.1342773438,-0.1416015625,-0.1533203125,21.6064453125,-37.7807617188,93.9941406250
1.8680169582,-0.1342773438,-0.1416015625,-0.1533203125,18.3410644531,-35.8276367188,91.0491943359
1.8705940247,-0.1342773438,-0.1416015625,-0.1533203125,18.3410644531,-35.8276367188,91.0491943359
1.8731698990,-0.0859375000,-0.3012695312,-0.1533203125,14.6026611328,-33.8439941406,86.4105224609
1.8757469654,-0.0859375000,-0.3012695312,-0.1533203125,14.6026611328,-33.8439941406,86.4105224609
1.8784430027,-0.0859375000,-0.3012695312,-0.1533203125,10.6353759766,-31.9366455078,80.2459716797
1.8811378479,-0.0859375000,-0.3012695312,-0.1533203125,10.6353759766,-31.9366455078,80.2459716797
1.8838310242,-0.0639648438,-0.4780273438,-0.2099609375,7.3547363281,-30.4718017578,72.4945068359
1.8865189552,-0.0639648438,-0.4780273438,-0.2099609375,7.3547363281,-30.4718017578,72.4945068359
1.8892149925,-0.0639648438,-0.4780273438,-0.2099609375,4.5623779297,-27.0538330078,62.8814697266
1.8919029236,-0.0639648438,-0.6030273438,-0.3061523438,4.5623779297,-27.0538330078,62.8814697266
1.8945889473,-0.0756835938,-0.5839843750,-0.3061523438,0.7324218750,-21.4385986328,53.0700683594
1.8972768784,-0.0756835938,-0.5839843750,-0.3061523438,0.7324218750,-21.4385986328,53.0700683594
1.8999760151,-0.0756835938,-0.5839843750,-0.3061523438,-3.5705566406,-16.0827636719,43.1671142578
1.9026598930,-0.0078125000,-0.5312500000,-0.3457031250,-3.5705566406,-16.0827636719,43.1671142578
1.9053459167,-0.0078125000,-0.5312500000,-0.3457031250,-7.4768066406,-11.7797851562,32.0281982422
1.9080839157,-0.0078125000,-0.5312500000,-0.3457031250,-7.2326660156,-11.7797851562,32.0281982422
1.9107940197,-0.0078125000,-0.5312500000,-0.3457031250,-7.5531005859,-8.7585449219,20.7366943359
1.9134979248,0.0678710938,-0.3852539062,-0.3393554688,-7.5531005859,-8.7585449219,20.7366943359
1.9163229465,0.0678710938,-0.3852539062,-0.3393554688,-5.8898925781,-6.6375732422,8.4533691406
1.9190709591,0.0678710938,-0.3852539062,-0.3393554688,-5.8898925781,-6.6375732422,8.4533691406
1.9217660427,0.0678710938,-0.3852539062,-0.2866210938,-1.6937255859,-3.6773681641,-2.9907226562
1.9244608879,0.0908203125,-0.2177734375,-0.2866210938,-1.6937255859,-3.6773681641,-2.9907226562
1.9271590710,0.0908203125,-0.2177734375,-0.2866210938,5.3863525391,-1.8463134766,-14.0228271484
1.9298710823,0.0908203125,-0.2177734375,-0.2866210938,5.3863525391,-1.8463134766,-14.0228271484
1.9325699806,0.0908203125,-0.1118164062,-0.2080078125,12.7563476562,0.2593994141,-23.6053466797
1.9353599548,0.0600585938,-0.1118164062,-0.2080078125,12.7563476562,0.2593994141,-23.6053466797
1.9384908676,0.0600585938,-0.1118164062,-0.2080078125,18.8446044922,2.5329589844,-31.4483642578
1.9412000179,0.0600585938,-0.1118164062,-0.2080078125,18.8446044922,2.5329589844,-31.4483642578
1.9438989162,-0.0102539062,-0.0625000000,-0.1625976562,24.0173339844,5.0659179688,-37.9486083984
1.9466030598,-0.0102539062,-0.0625000000,-0.1625976562,24.0173339844,5.0659179688,-37.9486083984
1.9492449760,-0.0102539062,-0.0625000000,-0.1625976562,26.7181396484,7.9650878906,-42.1142578125
1.9518220425,-0.0102539062,-0.0625000000,-0.1625976562,26.7181396484,7.9650878906,-42.1142578125
1.9543960094,-0.0708007812,-0.0395507812,-0.1289062500,26.7181396484,9.1400146484,-44.4793701172
1.9569699764,-0.0708007812,-0.0395507812,-0.1289062500,25.8483886719,9.1400146484,-44.4793701172
1.9597120285,-0.0708007812,-0.0395507812,-0.1289062500,21.9421386719,9.0179443359,-46.1730957031
1.9624118805,-0.0708007812,-0.0395507812,-0.1069335938,22.1099853516,9.0179443359,-46.1730957031
1.9651138783,-0.0971679688,-0.0463867188,-0.1069335938,18.2037353516,9.0484619141,-47.1649169922
1.9678609371,-0.0971679688,-0.0463867188,-0.1069335938,18.2952880859,9.0484619141,-47.1649169922
1.9704349041,-0.0971679688,-0.0463867188,-0.1069335938,18.2952880859,9.7351074219,-48.1262207031
1.9730129242,-0.0971679688,-0.0517578125,-0.0947265625,15.1367187500,9.7351074219,-48.1262207031
1.9755899906,-0.1191406250,-0.0517578125,-0.0947265625,15.1367187500,9.7351074219,-49.1333007812
1.9781708717,-0.1191406250,-0.0517578125,-0.0947265625,12.1307373047,9.8114013672,-49.1333007812
1.9808549881,-0.1191406250,-0.0517578125,-0.0947265625,12.1307373047,9.8114013672,-49.1943359375
1.9834289551,-0.1191406250,-0.0698242188,-0.1083984375,9.3841552734,9.7961425781,-49.1943359375
1.9860038757,-0.1191406250,-0.0698242188,-0.1083984375,9.3841552734,9.7961425781,-49.1943359375
1.9887409210,-0.1191406250,-0.0698242188,-0.1083984375,6.0272216797,10.1928710938,-49.1485595703
1.9913170338,-0.1191406250,-0.0698242188,-0.1083984375,6.0272216797,10.1928710938,-49.1485595703
1.9938919544,-0.1074218750,-0.0878906250,-0.1313476562,2.9754638672,11.2457275391,-49.5147705078
1.9964690208,-0.1074218750,-0.0878906250,-0.1313476562,2.9754638672,11.2457275391,-49.5147705078
1.9991550446,-0.1074218750,-0.0878906250,-0.1313476562,0.2288818359,12.7105712891,-49.5605468750
2.0017268658,-0.1074218750,-0.0878906250,-0.1313476562,0.2288818359,12.7105712891,-49.5605468750
2.0042989254,-0.1127929688,-0.1142578125,-0.1499023438,-2.1820068359,14.3280029297,-49.8199462891
2.0068769455,-0.1127929688,-0.1142578125,-0.1499023438,-2.1820068359,14.3280029297,-49.8199462891
2.0095539093,-0.1127929688,-0.1142578125,-0.1499023438,-4.4555664062,16.2506103516,-50.2319335938
2.0122408867,-0.1127929688,-0.1142578125,-0.1499023438,-4.4555664062,16.2506103516,-50.2319335938
2.0149290562,-0.1118164062,-0.1044921875,-0.1464843750,-6.9427490234,17.7459716797,-50.8728027344
2.0176260471,-0.1118164062,-0.1044921875,-0.1464843750,-6.9427490234,17.7459716797,-50.8728027344
2.0203158855,-0.1118164062,-0.1044921875,-0.1464843750,-9.4146728516,18.5699462891,-50.9643554688
2.0230069160,-0.1118164062,-0.1044921875,-0.1152343750,-9.4146728516,18.5699462891,-50.9643554688
2.0256960392,-0.0966796875,-0.0605468750,-0.1152343750,-11.8713378906,19.1040039062,-51.3305664062
2.0283949375,-0.0966796875,-0.0605468750,-0.1152343750,-11.8713378906,19.1040039062,-51.3305664062
2.0310940742,-0.0966796875,-0.0605468750,-0.1152343750,-13.1072998047,19.3176269531,-51.7425537109
2.0337879658,-0.0600585938,0.0083007812,-0.0698242188,-13.1072998047,19.3176269531,-51.7425537109
2.0364849567,-0.0600585938,0.0083007812,-0.0698242188,-12.9241943359,18.7377929688,-52.1392822266
2.0391728878,-0.0600585938,0.0083007812,-0.0698242188,-12.9241943359,18.7377929688,-52.1392822266
2.0418419838,-0.0600585938,0.0083007812,-0.0698242188,-11.9171142578,18.4020996094,-53.1463623047
2.0446219444,-0.0654296875,0.0771484375,-0.0449218750,-11.9171142578,18.4020996094,-53.1463623047
2.0472910404,-0.0654296875,0.0771484375,-0.0449218750,-10.6048583984,18.2189941406,-54.0008544922
2.0500490665,-0.0654296875,0.0771484375,-0.0449218750,-10.6048583984,18.2189941406,-54.0008544922
2.0526309013,-0.0654296875,0.0771484375,-0.0449218750,-9.0332031250,18.3258056641,-54.4281005859
2.0555000305,-0.0727539062,0.0874023438,-0.0410156250,-9.0332031250,18.3258056641,-54.4281005859
2.0583300591,-0.0727539062,0.0874023438,-0.0410156250,-7.5683593750,18.3715820312,-54.5654296875
2.0610518456,-0.0727539062,0.0874023438,-0.0410156250,-7.5683593750,18.3715820312,-54.5654296875
2.0637550354,-0.0727539062,0.0654296875,-0.0327148438,-6.9732666016,18.6767578125,-54.1992187500
2.0664620399,-0.0732421875,0.0654296875,-0.0327148438,-6.9732666016,18.6767578125,-54.1992187500
2.0691790581,-0.0732421875,0.0654296875,-0.0327148438,-8.4991455078,18.6920166016,-53.3752441406
2.0718820095,-0.0732421875,0.0654296875,-0.0327148438,-8.4991455078,18.6920166016,-53.3752441406
2.0745909214,-0.0605468750,0.0429687500,-0.0161132812,-10.3912353516,18.9819335938,-52.7038574219
2.0772979259,-0.0605468750,0.0429687500,-0.0161132812,-10.3912353516,18.9819335938,-52.7038574219
2.0800139904,-0.0605468750,0.0429687500,-0.0161132812,-11.8713378906,19.0124511719,-51.3305664062
2.0827238560,-0.0605468750,0.0429687500,-0.0161132812,-11.8713378906,19.0124511719,-51.3305664062
2.0854320526,-0.0517578125,0.0356445312,0.0224609375,-13.3666992188,18.5852050781,-49.2858886719
2.0881369114,-0.0517578125,0.0356445312,0.0224609375,-13.3666992188,18.5852050781,-49.2858886719
2.0907158852,-0.0517578125,0.0356445312,0.0224609375,-11.9171142578,18.2037353516,-46.5545654297
2.0932848454,-0.0517578125,0.0356445312,-0.1025390625,-11.9171142578,18.2037353516,-46.5545654297
2.0958628654,-0.0717773438,0.0483398438,-0.0073242188,-4.1046142578,18.6004638672,-43.8385009766
2.0984828472,-0.0717773438,0.0483398438,-0.0073242188,-7.4615478516,18.6004638672,-43.8385009766
2.1010580063,-0.0717773438,0.0483398438,-0.0073242188,-7.4615478516,19.8211669922,-41.3818359375
2.1036279202,-0.0717773438,0.0483398438,-0.1372070312,-2.5939941406,19.8211669922,-41.3818359375
2.1062049866,-0.1152343750,0.0844726562,-0.1372070312,-2.5939941406,19.8211669922,-38.6962890625
2.1090629101,-0.1152343750,0.0844726562,-0.1372070312,2.2888183594,21.0266113281,-38.6962890625
2.1116399765,-0.1152343750,0.0844726562,-0.1372070312,2.2888183594,21.0266113281,-35.4309082031
2.1142170429,-0.1152343750,0.0839843750,-0.1772460938,5.3100585938,22.0947265625,-35.4309082031
2.1167988777,-0.1333007812,0.0839843750,-0.1772460938,5.3100585938,22.0947265625,-32.7453613281
2.1195938587,-0.1333007812,0.0839843750,-0.1772460938,6.9732666016,22.4609375000,-32.7453613281
2.1222829819,-0.1333007812,0.0839843750,-0.1772460938,6.9732666016,22.4609375000,-30.0445556641
2.1249659061,-0.0996093750,0.0893554688,-0.1381835938,7.8125000000,22.8271484375,-30.0445556641
2.1276650429,-0.0996093750,0.0893554688,-0.1381835938,7.8125000000,22.8271484375,-26.1383056641
2.1303489208,-0.0996093750,0.0893554688,-0.1381835938,8.1481933594,21.3317871094,-25.8178710938
2.1330389977,-0.0996093750,0.0893554688,-0.1381835938,8.1481933594,21.3317871094,-21.9116210938
2.1357290745,-0.0791015625,0.1425781250,-0.0463867188,7.7972412109,19.1040039062,-20.4772949219
2.1384649277,-0.0791015625,0.1425781250,-0.0463867188,7.7972412109,19.1040039062,-12.6647949219
2.1411340237,-0.0791015625,0.1425781250,-0.0463867188,6.9427490234,16.4337158203,-14.1754150391
2.1438019276,-0.0791015625,0.1425781250,-0.2963867188,6.9427490234,16.4337158203,-14.1754150391
2.1464638710,-0.4311523438,0.6879882812,-0.2626953125,14.0686035156,19.0429687500,-7.3089599609
2.1490819454,-0.4311523438,0.6879882812,-0.2626953125,14.0686035156,19.0429687500,-7.3089599609
2.1516590118,-0.4311523438,0.6879882812,-0.2626953125,29.9987792969,48.1109619141,23.8037109375
2.1542348862,-0.4311523438,0.6879882812,-0.0405273438,29.9987792969,48.1109619141,23.8037109375
2.1568150520,-0.9589843750,5.7958984375,-0.0405273438,4.0435791016,34.2407226562,105.1940917969
2.1595399380,-0.9589843750,5.7958984375,-0.0405273438,4.0435791016,34.2407226562,105.1940917969
2.1622469425,-0.9589843750,5.7958984375,-0.0405273438,-80.4290771484,-2.5329589844,240.4479980469
2.1649529934,-2.2089843750,8.8540039062,1.7700195312,-80.4290771484,-2.5329589844,240.4479980469
2.1676650047,-2.1298828125,8.8540039062,1.7700195312,-110.0921630859,-25.8483886719,414.1998291016
2.1703689098,-2.1298828125,8.8540039062,1.7700195312,-110.0921630859,-25.8483886719,414.1998291016
2.1731810570,-2.1298828125,8.8540039062,1.7700195312,-180.5114746094,23.5290527344,469.0704345703
2.1760709286,-2.9628906250,-4.1708984375,0.2875976562,-180.5114746094,23.5290527344,324.5391845703
2.1791899204,-2.9628906250,-4.1708984375,0.2875976562,-164.5202636719,-19.6228027344,325.3479003906
2.1818959713,-2.9628906250,-4.1708984375,0.2875976562,-164.5202636719,-19.6228027344,180.8166503906
2.1846020222,-2.9628906250,-5.2958984375,-0.7690429688,15.5181884766,-72.2351074219,181.5490722656
2.1873149872,-2.1479492188,-5.3164062500,-0.7690429688,15.5181884766,-72.2351074219,181.5490722656
2.1900320053,-2.1479492188,-5.3164062500,-0.7690429688,-32.2265625000,-47.8820800781,156.1737060547
2.1927430630,-2.1479492188,-5.3164062500,-0.7690429688,-32.2265625000,-47.8820800781,156.1737060547
2.1954569817,-1.3906250000,-0.7724609375,1.5541992188,53.4820556641,-50.2929687500,130.0201416016
2.1981580257,-1.3906250000,-0.7724609375,1.5541992188,53.4820556641,-50.2929687500,130.0201416016
2.2007329464,-1.3906250000,-0.7724609375,1.5541992188,14.2364501953,-66.0858154297,122.2991943359
2.2033090591,-1.3906250000,-0.7724609375,1.5541992188,14.2364501953,-66.0858154297,122.2991943359
2.2058820724,-2.7416992188,1.4204101562,-0.3735351562,-126.3885498047,-54.6569824219,138.8397216797
2.2084889412,-2.7416992188,1.4204101562,-0.3735351562,-126.3885498047,-54.6569824219,138.8397216797
2.2110629082,-2.7416992188,1.4204101562,-0.3735351562,-126.3122558594,-26.8859863281,143.9361572266
2.2136390209,-2.7416992188,1.4204101562,-0.3735351562,-126.3122558594,-26.8859863281,143.9361572266
2.2162139416,-1.7275390625,0.1777343750,-0.1054687500,-81.1309814453,-3.5705566406,131.9885253906
2.2188420296,-1.7275390625,0.1777343750,-0.1054687500,-81.1309814453,-3.5705566406,131.9885253906
2.2214138508,-1.7275390625,0.1777343750,-0.1054687500,-72.8149414062,4.8828125000,105.5755615234
2.2239859104,-1.7275390625,0.1777343750,-0.1054687500,-72.8149414062,4.8828125000,105.5755615234
2.2265629768,-0.0898437500,1.1723632812,0.9677734375,-77.4230957031,-5.0201416016,87.2192382812
2.2291860580,-0.0898437500,1.1723632812,0.9677734375,-77.4230957031,-5.0201416016,87.2192382812
2.2317590714,-0.0898437500,1.1723632812,0.9677734375,-77.4230957031,-27.7557373047,104.7210693359
2.2343409061,-0.0898437500,1.1723632812,0.9677734375,-69.2291259766,-27.7557373047,104.7210693359
2.2370259762,-4.1269531250,0.3676757812,-0.0571289062,-69.2291259766,-51.4678955078,120.2392578125
2.2398290634,-4.1269531250,0.3676757812,-0.0571289062,-40.7562255859,-51.4678955078,120.2392578125
2.2425389290,-4.1269531250,0.3676757812,-0.0571289062,-40.7562255859,-25.5889892578,90.8355712891
2.2452468872,-4.1269531250,-1.3823242188,-1.1987304688,-0.3509521484,-25.5889892578,90.8355712891
2.2479529381,-4.7836914062,-1.4960937500,-1.1987304688,-0.3509521484,21.2860107422,108.3831787109
2.2505269051,-4.7836914062,-1.4960937500,-1.1987304688,10.5133056641,21.1639404297,108.3831787109
2.2531030178,-4.7836914062,-1.4960937500,-1.1987304688,10.5133056641,21.1639404297,125.9460449219
2.2556819916,-4.7836914062,0.4829101562,-0.5810546875,-67.2454833984,27.6947021484,125.9460449219
2.2583260536,-0.6821289062,0.4829101562,-0.5810546875,-67.2454833984,27.6947021484,100.9368896484
2.2610340118,-0.6821289062,0.4829101562,-0.5810546875,-142.8680419922,23.4680175781,100.9368896484
2.2637410164,-0.6821289062,0.4829101562,-0.5810546875,-142.8680419922,23.4680175781,67.4438476562
2.2664489746,0.3413085938,1.6411132812,0.1601562500,-171.6003417969,19.5922851562,67.4438476562
2.2691760063,0.3413085938,1.6411132812,0.1601562500,-171.6003417969,19.5922851562,42.8009033203
2.2718858719,0.3413085938,1.6411132812,0.1601562500,-152.0843505859,12.6190185547,42.8009033203
2.2745978832,0.3413085938,1.6411132812,0.1601562500,-152.0843505859,12.6190185547,23.2696533203
2.2773060799,1.0532226562,1.7729492188,0.8852539062,-110.6719970703,1.8768310547,21.1791992188
2.2800140381,1.0532226562,1.7729492188,0.8852539062,-110.6719970703,1.8768310547,-6.1645507812
2.2827138901,1.0532226562,1.7729492188,0.8852539062,-49.1943359375,-10.3607177734,-5.9661865234
2.2854170799,1.0532226562,1.7729492188,0.6420898438,-49.1943359375,-10.3607177734,-37.2161865234
2.2881350517,0.7392578125,1.1923828125,0.6420898438,17.2729492188,-19.9584960938,-36.5447998047
2.2908389568,0.7392578125,1.1923828125,0.6420898438,17.2729492188,-19.9584960938,-59.9822998047
2.2935509682,0.7392578125,1.1923828125,0.6420898438,64.5141601562,-23.8342285156,-58.7310791016
2.2963590622,-0.7011718750,0.9208984375,0.0175781250,64.5141601562,-23.8342285156,-74.9359130859
2.2992229462,-0.7011718750,0.9208984375,0.0175781250,85.8764648438,-24.2004394531,-74.9359130859
2.3019089699,-0.7011718750,0.9208984375,0.0175781250,85.8764648438,-24.2004394531,-86.6546630859
2.3044888973,-0.7011718750,0.9208984375,0.0175781250,87.1734619141,-23.2543945312,-85.9832763672
2.3070669174,-1.5556640625,0.4233398438,-0.3447265625,87.1734619141,-23.2543945312,-85.9832763672
2.3097710609,-1.5556640625,0.4233398438,-0.3447265625,76.4007568359,-19.7143554688,-89.6759033203
2.3124818802,-1.5556640625,0.4233398438,-0.3447265625,76.4007568359,-19.7143554688,-89.6759033203
2.3151900768,-1.5556640625,0.4233398438,-0.3447265625,56.8847656250,-12.2375488281,-86.7767333984
2.3179130554,-1.3198242188,0.2119140625,-0.2714843750,56.8847656250,-12.2375488281,-86.7767333984
2.3206188679,-1.3198242188,0.2119140625,-0.2714843750,32.3791503906,-3.8299560547,-82.0617675781
2.3233208656,-1.3198242188,0.2119140625,-0.2714843750,32.3791503906,-3.8299560547,-82.0617675781
2.3260250092,-1.3198242188,0.3369140625,0.0478515625,8.9874267578,2.2277832031,-80.5969238281
2.3286929131,-0.7529296875,0.3383789062,0.0478515625,8.9874267578,2.2277832031,-80.5969238281
2.3312630653,-0.7529296875,0.3383789062,0.0478515625,-7.4920654297,5.0811767578,-83.9080810547
2.3338298798,-0.7529296875,0.3383789062,0.0478515625,-7.4920654297,5.0811767578,-83.9080810547
2.3363969326,-0.7529296875,0.3798828125,0.2583007812,-15.4571533203,7.7056884766,-87.8601074219
2.3390228748,-0.5307617188,0.3798828125,0.2583007812,-15.4571533203,7.7056884766,-87.8601074219
2.3415999413,-0.5307617188,0.3798828125,0.2583007812,-15.8843994141,10.4522705078,-89.6301269531
2.3441810608,-0.5307617188,0.3798828125,0.2583007812,-15.8843994141,10.4522705078,-89.6301269531
2.3467578888,-0.5307617188,0.4018554688,0.3071289062,-11.0778808594,12.6037597656,-91.0949707031
2.3495099545,-0.5356445312,0.4018554688,0.3071289062,-11.0778808594,12.6037597656,-91.0949707031
2.3520870209,-0.5356445312,0.4018554688,0.3071289062,-3.0364990234,14.5263671875,-93.0786132812
2.3546628952,-0.5356445312,0.4018554688,0.3071289062,-3.0364990234,14.5263671875,-93.0786132812
2.3572380543,-0.6083984375,0.4072265625,0.2685546875,8.4533691406,15.7470703125,-94.1772460938
2.3600070477,-0.6083984375,0.4072265625,0.2685546875,8.4533691406,15.7470703125,-94.1772460938
2.3626940250,-0.6083984375,0.4072265625,0.2685546875,21.2097167969,16.8762207031,-94.7570800781
2.3654899597,-0.6083984375,0.4072265625,0.2685546875,21.2097167969,16.8762207031,-94.7570800781
2.3681888580,-0.6416015625,0.3100585938,0.1953125000,32.9284667969,17.7917480469,-95.3369140625
2.3708810806,-0.6416015625,0.3100585938,0.1953125000,32.9284667969,17.7917480469,-95.3369140625
2.3735690117,-0.6416015625,0.3100585938,0.1953125000,41.8090820312,18.7835693359,-95.3979492188
2.3762578964,-0.6416015625,0.3100585938,0.1171875000,41.8090820312,18.7835693359,-95.3979492188
2.3789598942,-0.6313476562,0.1440429688,0.1171875000,45.6695556641,19.3328857422,-93.7500000000
2.3816490173,-0.6313476562,0.1440429688,0.1171875000,45.6695556641,19.3328857422,-93.7500000000
2.3843350410,-0.6313476562,0.1440429688,0.1171875000,45.6695556641,19.5159912109,-91.5985107422
2.3870279789,-0.5063476562,0.0161132812,0.0449218750,45.5474853516,19.5159912109,-91.5985107422
2.3897259235,-0.6176757812,0.0161132812,0.0449218750,41.6412353516,19.4702148438,-88.7908935547
2.3924169540,-0.6176757812,0.0161132812,0.0449218750,42.1752929688,19.4702148438,-88.7908935547
2.3951020241,-0.6176757812,0.0161132812,0.0449218750,34.3627929688,18.5699462891,-85.4797363281
2.3978509903,-0.6308593750,-0.0478515625,0.0000000000,35.0036621094,18.5699462891,-85.4797363281
2.4005520344,-0.6308593750,-0.0478515625,0.0000000000,27.1911621094,18.6004638672,-82.5653076172
2.4032459259,-0.6308593750,-0.0478515625,0.0000000000,25.7873535156,18.6004638672,-82.5653076172
2.4059400558,-0.6308593750,-0.0478515625,0.0000000000,17.9748535156,18.7683105469,-78.7048339844
2.4086790085,-0.6464843750,-0.0786132812,-0.0258789062,15.9454345703,18.7683105469,-78.7048339844
2.4113938808,-0.6464843750,-0.0786132812,-0.0258789062,4.2266845703,19.1192626953,-75.1190185547
2.4143130779,-0.6464843750,-0.0786132812,-0.0258789062,5.3558349609,19.1192626953,-75.1190185547
2.4170088768,-0.6464843750,-0.0556640625,-0.0385742188,-5.8135986328,18.6462402344,-70.9686279297
2.4199750423,-0.6303710938,-0.0556640625,-0.0385742188,-5.8135986328,18.6462402344,-70.9686279297
2.4226858616,-0.6303710938,-0.0556640625,-0.0385742188,-16.6015625000,17.3950195312,-66.2689208984
2.4253959656,-0.6303710938,-0.0556640625,-0.0385742188,-16.6015625000,17.3950195312,-66.2689208984
2.4281148911,-0.6142578125,0.0000000000,-0.0415039062,-26.3671875000,16.5557861328,-61.1419677734
2.4309210777,-0.6142578125,0.0000000000,-0.0415039062,-26.3671875000,16.5557861328,-61.1419677734
2.4336309433,-0.6142578125,0.0000000000,-0.0415039062,-32.2418212891,15.0909423828,-55.6030273438
2.4363479614,-0.6142578125,0.0000000000,-0.0415039062,-32.2418212891,15.0909423828,-55.6030273438
2.4390959740,-0.6030273438,0.0322265625,-0.0668945312,-34.7900390625,13.9465332031,-50.6134033203
2.4418029785,-0.6030273438,0.0322265625,-0.0668945312,-34.7900390625,13.9465332031,-50.6134033203
2.4445080757,-0.6030273438,0.0322265625,-0.0668945312,-34.3627929688,11.5051269531,-46.2493896484
2.4472179413,-0.6030273438,0.0322265625,-0.0693359375,-34.3627929688,11.5051269531,-46.2493896484
2.4498279095,-0.6411132812,0.0463867188,-0.0693359375,-30.7617187500,9.7656250000,-42.5415039062
2.4524009228,-0.6411132812,0.0463867188,-0.0693359375,-30.7617187500,9.7656250000,-42.5415039062
2.4549739361,-0.6411132812,0.0463867188,-0.0693359375,-26.8554687500,7.0343017578,-39.1082763672
2.4575929642,-0.6411132812,0.0356445312,-0.0727539062,-25.6500244141,7.0343017578,-39.1082763672
2.4601650238,-0.6904296875,0.0356445312,-0.0727539062,-25.6500244141,7.0343017578,-35.8428955078
2.4627418518,-0.6904296875,0.0356445312,-0.0727539062,-20.5535888672,4.7607421875,-35.8428955078
2.4653198719,-0.6904296875,0.0356445312,-0.0727539062,-20.5535888672,4.7607421875,-31.9061279297
2.4680199623,-0.7397460938,0.0175781250,-0.0439453125,-15.1672363281,2.7770996094,-31.9061279297
2.4705920219,-0.7397460938,0.0175781250,-0.0439453125,-15.1672363281,2.7770996094,-27.9998779297
2.4731669426,-0.7397460938,0.0175781250,-0.0439453125,-9.1857910156,1.0375976562,-27.6794433594
2.4757330418,-0.7397460938,0.0175781250,-0.0439453125,-9.1857910156,1.0375976562,-27.6794433594
2.4784550667,-0.7934570312,0.0419921875,-0.0219726562,-4.4250488281,-0.1220703125,-23.8342285156
2.4811580181,-0.7934570312,0.0419921875,-0.0219726562,-4.4250488281,-0.1220703125,-23.8342285156
2.4838590622,-0.7934570312,0.0419921875,-0.0219726562,-0.7324218750,-0.9307861328,-19.1955566406
2.4865629673,-0.7934570312,0.0419921875,-0.0219726562,-0.7324218750,-0.9307861328,-19.1955566406
2.4891979694,-0.8051757812,0.0249023438,-0.0390625000,2.1972656250,-2.7923583984,-14.8773193359
2.4917669296,-0.8051757812,0.0249023438,-0.0390625000,2.1972656250,-2.7923583984,-14.8773193359
2.4943349361,-0.8051757812,0.0249023438,-0.0390625000,6.0424804688,-4.0740966797,-11.4135742188
2.4970090389,-0.8051757812,0.0249023438,-0.0390625000,6.0424804688,-4.0740966797,-11.4135742188
2.4997220039,-0.8037109375,0.0000000000,-0.0297851562,9.3383789062,-4.1046142578,-8.7585449219
2.5024218559,-0.8037109375,0.0000000000,-0.0297851562,9.3383789062,-4.1046142578,-8.7585449219
2.5051209927,-0.8037109375,0.0000000000,-0.0297851562,11.2457275391,-3.6468505859,-5.7220458984
2.5078649521,-0.8037109375,0.0717773438,-0.0097656250,11.2457275391,-3.6468505859,-5.7220458984
2.5105738640,-0.7871093750,0.0717773438,-0.0097656250,11.7797851562,-3.0364990234,-2.2125244141
2.5132758617,-0.7871093750,0.0717773438,-0.0097656250,11.7797851562,-3.0364990234,-2.2125244141
2.5159819126,-0.7871093750,0.0717773438,-0.0097656250,11.4288330078,-3.7078857422,0.6256103516
2.5187430382,-0.7607421875,0.1157226562,-0.0073242188,11.4288330078,-3.7078857422,0.6256103516
2.5213170052,-0.7607421875,0.1157226562,-0.0073242188,11.3220214844,-4.6691894531,2.5939941406
2.5238919258,-0.7607421875,0.1157226562,-0.0073242188,11.3220214844,-4.6691894531,2.5939941406
2.5264639854,-0.7607421875,0.1157226562,-0.0073242188,10.5133056641,-5.2337646484,3.1890869141
2.5291359425,-0.7465820312,0.1152343750,0.0234375000,10.5133056641,-5.2337646484,3.1890869141
2.5318369865,-0.7465820312,0.1152343750,0.0234375000,7.8735351562,-4.8675537109,3.6468505859
2.5346460342,-0.7465820312,0.1152343750,0.0234375000,7.8735351562,-4.8675537109,3.6468505859
2.5373430252,-0.7465820312,0.1152343750,0.0234375000,4.4250488281,-3.8452148438,5.1422119141
2.5399649143,-0.7299804688,0.1210937500,0.0537109375,4.4250488281,-3.8452148438,5.1422119141
2.5425279140,-0.7299804688,0.1210937500,0.0537109375,1.6479492188,-2.6855468750,6.2103271484
2.5450930595,-0.7299804688,0.1210937500,0.0537109375,1.6479492188,-2.6855468750,6.2103271484
2.5476620197,-0.7299804688,0.1210937500,0.0537109375,-0.9918212891,-2.0751953125,6.5612792969
2.5503618717,-0.7084960938,0.1538085938,0.0712890625,-0.9918212891,-2.0751953125,6.5612792969
2.5530560017,-0.7084960938,0.1538085938,0.0712890625,-0.9918212891,-1.4648437500,5.9356689453
2.5557558537,-0.7084960938,0.1538085938,0.0712890625,-3.3874511719,-1.4648437500,5.9356689453
2.5584919453,-0.7084960938,0.2148437500,0.0898437500,-7.2937011719,-1.4038085938,3.9978027344
2.5613000393,-0.7128906250,0.2148437500,0.0898437500,-6.6986083984,-1.4038085938,3.9978027344
2.5639939308,-0.7128906250,0.2148437500,0.0898437500,-7.1258544922,-0.9307861328,2.0751953125
2.5666909218,-0.7128906250,0.2148437500,0.0898437500,-7.1258544922,-0.9307861328,2.0751953125
2.5693058968,-0.7333984375,0.2548828125,0.0654296875,-7.1258544922,-0.3967285156,1.0681152344
2.5718679428,-0.7333984375,0.2548828125,0.0654296875,-4.8370361328,-0.3967285156,1.0681152344
2.5744349957,-0.7333984375,0.2548828125,0.0654296875,-4.8370361328,3.5095214844,-0.2593994141
2.5770030022,-0.7333984375,0.2548828125,0.0654296875,-2.5329589844,0.2136230469,-0.2593994141
2.5797100067,-0.7426757812,0.2631835938,0.0395507812,-2.5329589844,0.2136230469,-2.7008056641
2.5822758675,-0.7426757812,0.2631835938,0.0395507812,0.1983642578,0.3814697266,-2.7008056641
2.5848388672,-0.7426757812,0.2631835938,0.0395507812,0.1983642578,0.3814697266,-6.6070556641
2.5874040127,-0.7426757812,0.2631835938,0.0395507812,2.6397705078,0.2136230469,-5.9204101562
2.5902218819,-0.7460937500,0.2392578125,0.0209960938,2.6397705078,0.2136230469,-9.8266601562
2.5929169655,-0.7460937500,0.2392578125,0.0209960938,4.9133300781,0.4425048828,-8.1634521484
2.5956099033,-0.7460937500,0.2392578125,0.0209960938,4.9133300781,0.4425048828,-8.1634521484
2.5983309746,-0.7460937500,0.2392578125,0.0307617188,5.7525634766,1.0986328125,-9.3078613281
2.6010279655,-0.7294921875,0.2124023438,0.0307617188,5.7525634766,1.0986328125,-9.3078613281
2.6037299633,-0.7294921875,0.2124023438,0.0307617188,5.7067871094,1.4495849609,-10.5590820312
2.6064350605,-0.7294921875,0.2124023438,0.0307617188,5.7067871094,1.4495849609,-14.4653320312
2.6091458797,-0.7294921875,0.1972656250,0.0253906250,5.2337646484,1.4495849609,-12.4206542969
2.6118469238,-0.7221679688,0.1972656250,0.0253906250,5.2337646484,1.4495849609,-12.4206542969
2.6145429611,-0.7221679688,0.1972656250,0.0253906250,5.0506591797,1.6174316406,-13.4582519531
2.6172449589,-0.7221679688,0.1972656250,0.0253906250,5.0506591797,1.6174316406,-13.4582519531
2.6199650764,-0.7163085938,0.1733398438,0.0078125000,4.5318603516,1.6174316406,-14.2669677734
2.6226658821,-0.7163085938,0.1733398438,0.0078125000,4.5318603516,1.6174316406,-14.2669677734
2.6254730225,-0.7163085938,0.1733398438,0.0078125000,5.1879882812,2.0141601562,-15.3961181641
2.6281740665,-0.7163085938,0.1733398438,0.0078125000,5.1879882812,2.0141601562,-15.3961181641
2.6307489872,-0.7260742188,0.1782226562,0.0126953125,5.1879882812,1.9836425781,-15.5639648438
2.6333220005,-0.7260742188,0.1782226562,0.0126953125,5.1879882812,1.9836425781,-15.5639648438
2.6358850002,-0.7260742188,0.1782226562,0.0126953125,5.6304931641,1.4953613281,-15.7623291016
2.6385209560,-0.7260742188,0.1782226562,0.0126953125,5.6304931641,1.4953613281,-15.7623291016
2.6412270069,-0.7231445312,0.1669921875,0.0278320312,6.9122314453,1.2817382812,-15.7318115234
2.6439268589,-0.7231445312,0.1669921875,0.0278320312,6.9122314453,1.2817382812,-15.7318115234
2.6466310024,-0.7231445312,0.1669921875,0.0278320312,8.4533691406,0.9460449219,-15.8843994141
2.6493470669,-0.7231445312,0.1303710938,0.0141601562,8.4533691406,0.9460449219,-15.8843994141
2.6520459652,-0.7231445312,0.1303710938,0.0141601562,8.9569091797,0.6103515625,-16.0217285156
2.6547529697,-0.7231445312,0.1303710938,0.0141601562,8.9569091797,0.6103515625,-16.0217285156
2.6574499607,-0.7231445312,0.1303710938,0.0141601562,10.6353759766,0.5950927734,-16.2658691406
2.6601588726,-0.7216796875,0.1386718750,0.0048828125,10.6353759766,0.5950927734,-16.2658691406
2.6628720760,-0.7216796875,0.1386718750,0.0048828125,11.9476318359,0.7324218750,-15.8386230469
2.6655719280,-0.7216796875,0.1386718750,0.0048828125,11.9476318359,0.7324218750,-15.8386230469
2.6682908535,-0.7216796875,0.1386718750,0.0048828125,11.7797851562,0.3814697266,-15.3198242188
2.6709918976,-0.7260742188,0.1308593750,0.0209960938,11.7797851562,0.3814697266,-15.3198242188
2.6736960411,-0.7260742188,0.1308593750,0.0209960938,11.2762451172,-0.2136230469,-14.7857666016
2.6764039993,-0.7260742188,0.1308593750,0.0209960938,11.2762451172,-0.2136230469,-14.7857666016
2.6790530682,-0.7260742188,0.1308593750,0.0209960938,11.8560791016,0.0305175781,-15.0756835938
2.6816229820,-0.7246093750,0.1123046875,0.0058593750,11.8560791016,0.0305175781,-15.0756835938
2.6842069626,-0.7246093750,0.1123046875,0.0058593750,11.1541748047,0.1983642578,-15.0756835938
2.6867780685,-0.7246093750,0.1123046875,0.0058593750,11.1541748047,0.1983642578,-15.0756835938
2.6896100044,-0.7246093750,0.1347656250,-0.0009765625,9.6435546875,-0.3204345703,-14.9688720703
2.6923110485,-0.7260742188,0.1347656250,-0.0009765625,9.6435546875,-0.3204345703,-14.9688720703
2.6950149536,-0.7260742188,0.1347656250,-0.0009765625,9.3383789062,-0.4425048828,-14.1906738281
2.6977210045,-0.7260742188,0.1347656250,-0.0009765625,9.3383789062,-0.4425048828,-14.1906738281
2.7004230022,-0.7338867188,0.1464843750,0.0039062500,9.0484619141,-0.3662109375,-13.4735107422
2.7031259537,-0.7338867188,0.1464843750,0.0039062500,9.0484619141,-0.3662109375,-13.4735107422
2.7058298588,-0.7338867188,0.1464843750,0.0039062500,8.3770751953,-0.6713867188,-13.4124755859
2.7085440159,-0.7338867188,0.1464843750,0.0039062500,8.3770751953,-0.6713867188,-13.4124755859
2.7112488747,-0.7290039062,0.1279296875,0.0009765625,8.5754394531,-0.5950927734,-13.5040283203
2.7139580250,-0.7290039062,0.1279296875,0.0009765625,8.5754394531,-0.5950927734,-13.5040283203
2.7166640759,-0.7290039062,0.1279296875,0.0009765625,8.8806152344,-0.5340576172,-13.4124755859
2.7193830013,-0.7290039062,0.1279296875,0.0009765625,8.8806152344,-0.5340576172,-13.4124755859
2.7220849991,-0.7246093750,0.1176757812,0.0058593750,7.8887939453,-0.1983642578,-13.0157470703
2.7247910500,-0.7246093750,0.1176757812,0.0058593750,7.8887939453,-0.1983642578,-13.0157470703
2.7274999619,-0.7246093750,0.1176757812,0.0058593750,7.4462890625,-0.3356933594,-12.3138427734
2.7300760746,-0.7246093750,0.1171875000,0.0180664062,7.4462890625,-0.3356933594,-12.3138427734
2.7326519489,-0.7197265625,0.1171875000,0.0180664062,7.4462890625,-0.8392333984,-11.8408203125
2.7352230549,-0.7197265625,0.1171875000,0.0180664062,6.6680908203,-0.8392333984,-11.8408203125
2.7378559113,-0.7197265625,0.1171875000,0.0180664062,6.6680908203,-0.8239746094,-11.5814208984
2.7405588627,-0.7270507812,0.1064453125,0.0214843750,6.1645507812,-0.8239746094,-11.5814208984
2.7432620525,-0.7270507812,0.1064453125,0.0214843750,6.1645507812,-0.8392333984,-10.6658935547
2.7459599972,-0.7270507812,0.1064453125,0.0214843750,5.5541992188,-0.8392333984,-10.6658935547
2.7486829758,-0.7270507812,0.1064453125,0.0214843750,5.5541992188,-0.8239746094,-9.9639892578
2.7513790131,-0.7333984375,0.0888671875,0.0239257812,4.5623779297,-0.8239746094,-9.9639892578
2.7541909218,-0.7333984375,0.0888671875,0.0239257812,4.5623779297,-0.6561279297,-9.5520019531
2.7568888664,-0.7333984375,0.0888671875,0.0239257812,4.3334960938,-0.6561279297,-9.5520019531
2.7595958710,-0.7333984375,0.0888671875,0.0239257812,4.3334960938,-1.1138916016,-9.0332031250
2.7622909546,-0.7451171875,0.0820312500,0.0170898438,4.3334960938,-1.1138916016,-9.0332031250
2.7649800777,-0.7451171875,0.0820312500,0.0170898438,4.3334960938,-1.1138916016,-8.7432861328
2.7676870823,-0.7451171875,0.0820312500,0.0170898438,3.9978027344,-1.2207031250,-8.7432861328
2.7702510357,-0.7451171875,0.0820312500,0.0180664062,3.9978027344,-1.2207031250,-8.1176757812
2.7728130817,-0.7490234375,0.1191406250,0.0180664062,3.5247802734,-0.7019042969,-8.1176757812
2.7753849030,-0.7490234375,0.1191406250,0.0180664062,3.5247802734,-0.7019042969,-4.2114257812
2.7779700756,-0.7490234375,0.1191406250,0.0180664062,3.9978027344,-0.2593994141,-7.7667236328
2.7806680202,-0.7490234375,0.1372070312,0.0092773438,3.9978027344,-0.2593994141,-7.7667236328
2.7833678722,-0.7519531250,0.1372070312,0.0092773438,4.9591064453,-0.2441406250,-6.8969726562
2.7860620022,-0.7519531250,0.1372070312,0.0092773438,4.9591064453,-0.2441406250,-6.8969726562
2.7887718678,-0.7519531250,0.1372070312,0.0092773438,5.9661865234,-0.8850097656,-6.4544677734
2.7914810181,-0.7426757812,0.1240234375,0.0117187500,5.9661865234,-0.8850097656,-6.4544677734
2.7941739559,-0.7426757812,0.1240234375,0.0117187500,6.8969726562,-1.1138916016,-6.2713623047
2.7968740463,-0.7426757812,0.1240234375,0.0117187500,6.8969726562,-1.1138916016,-6.2713623047
2.7995789051,-0.7426757812,0.1240234375,0.0117187500,7.8277587891,-1.5106201172,-5.4321289062
2.8022758961,-0.7377929688,0.0981445312,-0.0029296875,7.8277587891,-1.5106201172,-5.4321289062
2.8049690723,-0.7377929688,0.0981445312,-0.0029296875,8.4838867188,-2.0751953125,-4.1961669922
2.8076789379,-0.7377929688,0.0981445312,-0.0029296875,8.4838867188,-2.0751953125,-4.1961669922
2.8103759289,-0.7377929688,0.0981445312,0.0034179688,8.9416503906,-2.0294189453,-2.7923583984
2.8130760193,-0.7338867188,0.0751953125,0.0034179688,8.9416503906,-2.0294189453,-2.7923583984
2.8157708645,-0.7338867188,0.0751953125,0.0034179688,9.2163085938,-1.9531250000,-0.9765625000
2.8185570240,-0.7338867188,0.0751953125,0.0034179688,9.2163085938,-1.9531250000,-0.9765625000
2.8211200237,-0.7338867188,0.0527343750,0.0083007812,8.9416503906,-2.3651123047,1.3732910156
2.8236799240,-0.7338867188,0.0527343750,0.0083007812,8.9416503906,-2.3651123047,1.3732910156
2.8262500763,-0.7338867188,0.0527343750,0.0083007812,9.2010498047,-3.5247802734,4.3487548828
2.8289370537,-0.7338867188,0.0527343750,0.0083007812,9.2010498047,-3.5247802734,4.3487548828
2.8318760395,-0.7490234375,0.0200195312,0.0161132812,8.9416503906,-4.0435791016,7.5378417969
2.8345758915,-0.7490234375,0.0200195312,0.0161132812,8.9416503906,-4.0435791016,7.5378417969
2.8372678757,-0.7490234375,0.0200195312,0.0161132812,9.3231201172,-4.9896240234,11.4746093750
2.8399899006,-0.7490234375,0.0200195312,0.0161132812,9.3231201172,-4.9896240234,11.4746093750
2.8426909447,-0.7524414062,-0.0097656250,0.0009765625,9.4451904297,-5.8288574219,15.9606933594
2.8453900814,-0.7524414062,-0.0097656250,0.0009765625,9.4451904297,-5.8288574219,15.9606933594
2.8481040001,-0.7524414062,-0.0097656250,0.0009765625,9.6893310547,-6.8054199219,20.5230712891
2.8508088589,-0.7524414062,-0.0097656250,-0.0063476562,9.6893310547,-6.8054199219,20.5230712891
2.8535120487,-0.7719726562,-0.0600585938,-0.0063476562,9.3841552734,-7.5225830078,25.8178710938
2.8562140465,-0.7719726562,-0.0600585938,-0.0063476562,9.3841552734,-7.5225830078,25.8178710938
2.8589239120,-0.7719726562,-0.0600585938,-0.0063476562,8.6669921875,-7.5378417969,31.2194824219
2.8616318703,-0.7719726562,-0.0654296875,-0.0136718750,8.6669921875,-7.5378417969,31.2194824219
2.8643279076,-0.7724609375,-0.0654296875,-0.0136718750,7.9193115234,-7.3547363281,36.5295410156
2.8670248985,-0.7724609375,-0.0654296875,-0.0136718750,7.9193115234,-7.3547363281,36.5295410156
2.8696398735,-0.7724609375,-0.0654296875,-0.0136718750,6.3781738281,-6.9885253906,43.1671142578
2.8722040653,-0.7470703125,-0.0405273438,-0.0283203125,6.3781738281,-6.9885253906,43.1671142578
2.8747749329,-0.7470703125,-0.0405273438,-0.0283203125,4.3945312500,-6.6528320312,49.6215820312
2.8773510456,-0.7470703125,-0.0405273438,-0.0283203125,4.3945312500,-6.6528320312,49.6215820312
2.8801000118,-0.7470703125,-0.0405273438,-0.0283203125,2.3498535156,-7.6751708984,55.3894042969
2.8829150200,-0.7255859375,-0.0336914062,-0.0429687500,2.3498535156,-7.6751708984,55.3894042969
2.8856110573,-0.7255859375,-0.0336914062,-0.0429687500,0.3509521484,-9.3536376953,60.8215332031
2.8883218765,-0.7255859375,-0.0336914062,-0.0429687500,0.3509521484,-9.3536376953,60.8215332031
2.8910210133,-0.7255859375,-0.0336914062,-0.0429687500,-0.5493164062,-11.1694335938,65.6433105469
2.8937230110,-0.7290039062,-0.0097656250,-0.0629882812,-0.5493164062,-11.1694335938,65.6433105469
2.8964300156,-0.7290039062,-0.0097656250,-0.0629882812,-2.1057128906,-12.4511718750,70.3582763672
2.8991470337,-0.7290039062,-0.0097656250,-0.0629882812,-2.1057128906,-12.4511718750,70.3582763672
2.9018490314,-0.7290039062,0.0151367188,-0.0683593750,-4.1046142578,-14.5874023438,75.3021240234
2.9045610428,-0.7241210938,0.0151367188,-0.0683593750,-4.1046142578,-14.5874023438,75.3021240234
2.9072649479,-0.7241210938,0.0151367188,-0.0683593750,-6.4239501953,-16.9372558594,79.2541503906
2.9099829197,-0.7241210938,0.0151367188,-0.0683593750,-6.4239501953,-16.9372558594,79.2541503906
2.9126908779,-0.7192382812,0.0405273438,-0.0571289062,-9.3688964844,-18.5546875000,82.3669433594
2.9153890610,-0.7192382812,0.0405273438,-0.0571289062,-9.3688964844,-18.5546875000,82.3669433594
2.9180870056,-0.7192382812,0.0405273438,-0.0571289062,-11.8560791016,-19.5007324219,84.7320556641
2.9206669331,-0.7192382812,0.0405273438,-0.0571289062,-11.8560791016,-19.5007324219,84.7320556641
2.9232449532,-0.7094726562,0.0903320312,-0.0424804688,-11.8560791016,-20.4925537109,87.0666503906
2.9258260727,-0.7094726562,0.0903320312,-0.0424804688,-14.0533447266,-20.4925537109,87.0666503906
2.9284880161,-0.7094726562,0.0903320312,-0.0424804688,-17.9595947266,-20.4772949219,89.2181396484
2.9311950207,-0.7094726562,0.0903320312,-0.0424804688,-16.2811279297,-20.4772949219,89.2181396484
2.9339060783,-0.6816406250,0.1318359375,-0.0161132812,-16.2811279297,-20.5230712891,90.5456542969
2.9366128445,-0.6816406250,0.1318359375,-0.0161132812,-19.1650390625,-20.5230712891,90.5456542969
2.9393320084,-0.6816406250,0.1318359375,-0.0161132812,-23.0712890625,-20.5993652344,90.5914306641
2.9419798851,-0.6816406250,0.1318359375,0.0102539062,-22.2015380859,-20.5993652344,90.5914306641
2.9445588589,-0.6411132812,0.1518554688,0.0102539062,-22.2015380859,-20.5993652344,91.3848876953
2.9472529888,-0.6411132812,0.1518554688,0.0102539062,-24.2004394531,-19.8059082031,91.3848876953
2.9500150681,-0.6411132812,0.1518554688,0.0102539062,-24.2004394531,-15.8996582031,92.5598144531
2.9526910782,-0.5639648438,0.1899414062,0.0219726562,-25.2380371094,-18.9361572266,92.5598144531
2.9554710388,-0.5639648438,0.1899414062,0.0219726562,-25.2380371094,-18.9361572266,93.5516357422
2.9583590031,-0.5639648438,0.1899414062,0.0219726562,-27.6947021484,-18.5394287109,93.5516357422
2.9609370232,-0.5639648438,0.1899414062,0.0219726562,-27.6947021484,-18.5394287109,93.7194824219
2.9635119438,-0.4931640625,0.2514648438,0.0683593750,-30.4412841797,-18.3410644531,93.7194824219
2.9660890102,-0.4931640625,0.2514648438,0.0683593750,-30.4412841797,-18.3410644531,93.3380126953
2.9687340260,-0.4931640625,0.2514648438,0.0683593750,-33.7371826172,-18.9819335938,93.3380126953
2.9714488983,-0.4931640625,0.2514648438,0.0683593750,-33.7371826172,-18.9819335938,93.5668945312
2.9741539955,-0.4951171875,0.3540039062,0.1411132812,-34.3475341797,-20.9350585938,93.5668945312
2.9768600464,-0.4951171875,0.3540039062,0.1411132812,-34.3475341797,-20.9350585938,94.6960449219
2.9795820713,-0.4951171875,0.3540039062,0.1411132812,-31.7230224609,-23.0102539062,94.6960449219
2.9822909832,-0.4951171875,0.4790039062,0.1640625000,-31.7230224609,-23.0102539062,95.9472656250
2.9849960804,-0.6230468750,0.3759765625,0.1640625000,-27.2064208984,-23.9868164062,95.9472656250
2.9877128601,-0.6230468750,0.3759765625,0.1640625000,-27.2064208984,-23.9868164062,95.9472656250
2.9902930260,-0.6230468750,0.3759765625,0.1640625000,-19.4244384766,-22.8576660156,95.9167480469
2.9928669930,-0.7480468750,0.2177734375,0.0410156250,-19.4244384766,-22.8576660156,95.9167480469
2.9954500198,-0.7226562500,0.2177734375,0.0410156250,-10.1318359375,-21.2554931641,95.7794189453
2.9980800152,-0.7226562500,0.2177734375,0.0410156250,-10.1318359375,-21.2554931641,95.7794189453
3.0006580353,-0.7226562500,0.2177734375,0.0410156250,-2.4414062500,-19.0429687500,96.2829589844
3.0032329559,-0.6254882812,0.0717773438,-0.0898437500,-2.4414062500,-19.0429687500,96.2829589844
3.0058090687,-0.6254882812,0.0717773438,-0.0898437500,0.3662109375,-17.8985595703,98.1597900391
3.0085589886,-0.6254882812,0.0717773438,-0.0898437500,0.3662109375,-17.8985595703,98.1597900391
3.0112469196,-0.6254882812,0.0717773438,-0.0898437500,-4.7302246094,-17.0288085938,100.8911132812
3.0138199329,-0.5541992188,0.1596679688,-0.0126953125,-4.7302246094,-17.0288085938,100.8911132812
3.0164010525,-0.5541992188,0.1596679688,-0.0126953125,-17.0745849609,-17.5628662109,103.3325195312
3.0191969872,-0.5541992188,0.1596679688,-0.0126953125,-17.0745849609,-17.5628662109,103.3325195312
3.0218830109,-0.5541992188,0.1596679688,-0.0126953125,-31.9976806641,-19.6838378906,105.5450439453
3.0245718956,-0.7036132812,0.2685546875,0.2143554688,-31.9976806641,-19.6838378906,105.5450439453
3.0272629261,-0.7036132812,0.2685546875,0.2143554688,-43.0450439453,-21.3012695312,106.9183349609
3.0299680233,-0.7036132812,0.2685546875,0.2143554688,-43.0450439453,-21.3012695312,106.9183349609
3.0326609612,-0.7036132812,0.2685546875,0.1928710938,-45.8526611328,-22.5524902344,106.3842773438
3.0353498459,-0.7871093750,0.2182617188,0.1928710938,-45.8526611328,-22.5524902344,106.3842773438
3.0381410122,-0.7871093750,0.2182617188,0.1928710938,-41.2139892578,-23.4680175781,105.2551269531
3.0408139229,-0.7871093750,0.2182617188,0.1928710938,-41.2139892578,-23.4680175781,105.2551269531
3.0435929298,-0.6899414062,0.2197265625,0.1279296875,-32.4554443359,-23.2543945312,104.9041748047
3.0461740494,-0.6899414062,0.2197265625,0.1279296875,-32.4554443359,-23.2543945312,104.9041748047
3.0488569736,-0.6899414062,0.2197265625,0.1279296875,-24.2004394531,-22.2930908203,104.4769287109
3.0515298843,-0.6899414062,0.2197265625,0.1279296875,-24.2004394531,-22.2930908203,104.4769287109
3.0544178486,-0.5805664062,0.3505859375,0.1049804688,-18.7225341797,-18.8903808594,104.7210693359
3.0569958687,-0.5805664062,0.3505859375,0.1049804688,-18.7225341797,-18.8903808594,104.7210693359
3.0596468449,-0.5805664062,0.3505859375,0.1049804688,-16.7236328125,-16.3726806641,104.2175292969
3.0622198582,-0.5805664062,0.3505859375,0.1049804688,-16.7236328125,-16.3726806641,104.2175292969
3.0647940636,-0.5522460938,0.4936523438,0.1782226562,-19.4091796875,-15.4724121094,102.8289794922
3.0673739910,-0.5522460938,0.4936523438,0.1782226562,-19.4091796875,-15.4724121094,102.8289794922
3.0699908733,-0.5522460938,0.4936523438,0.1782226562,-19.4091796875,-14.7705078125,99.8535156250
3.0725629330,-0.5522460938,0.4936523438,0.1782226562,-23.5748291016,-14.7705078125,99.8535156250
3.0752449036,-0.7163085938,0.5532226562,0.1542968750,-23.5748291016,-14.7705078125,96.5118408203
3.0778698921,-0.7163085938,0.5532226562,0.1542968750,-20.4162597656,-13.2751464844,96.5118408203
3.0804510117,-0.7163085938,0.5532226562,0.1542968750,-20.4162597656,-13.2751464844,95.7336425781
3.0830209255,-0.7163085938,0.5532226562,0.1542968750,-9.0637207031,-11.4898681641,95.7336425781
3.0855948925,-0.7568359375,0.4301757812,0.1337890625,-9.0637207031,-11.4898681641,95.7336425781
3.0881729126,-0.7568359375,0.4301757812,0.1337890625,5.0811767578,-8.8348388672,95.8404541016
3.0907399654,-0.7568359375,0.4301757812,0.1337890625,5.0811767578,-8.8348388672,95.8404541016
3.0933070183,-0.7568359375,0.4301757812,0.1928710938,9.3383789062,-7.8430175781,94.1009521484
3.0958790779,-0.7026367188,0.3857421875,0.1928710938,9.3383789062,-7.8430175781,94.1009521484
3.0985949039,-0.7026367188,0.3857421875,0.1928710938,6.0577392578,-7.1411132812,91.4001464844
3.1011719704,-0.7026367188,0.3857421875,0.1928710938,6.0577392578,-7.1411132812,91.4001464844
3.1037409306,-0.7026367188,0.3388671875,0.0996093750,4.2114257812,-7.4768066406,90.0878906250
3.1063170433,-0.5458984375,0.3388671875,0.0996093750,4.2114257812,-7.4768066406,90.0878906250
3.1090760231,-0.5458984375,0.3388671875,0.0996093750,7.0953369141,-5.7830810547,90.4083251953
3.1116468906,-0.5458984375,0.3388671875,0.0996093750,7.0953369141,-5.7830810547,90.4083251953
3.1142148972,-0.5458984375,0.5136718750,0.1308593750,6.5460205078,-3.5400390625,88.9587402344
3.1167869568,-0.5434570312,0.5136718750,0.1308593750,6.5460205078,-3.5400390625,88.9587402344
3.1194958687,-0.5434570312,0.5136718750,0.1308593750,1.9073486328,-1.9226074219,85.6018066406
3.1222019196,-0.5434570312,0.5136718750,0.1308593750,1.9073486328,-1.9226074219,85.6018066406
3.1249079704,-0.5771484375,0.5571289062,0.0678710938,1.6021728516,-0.8087158203,83.2061767578
3.1276118755,-0.5771484375,0.5571289062,0.0678710938,1.6021728516,-0.8087158203,83.2061767578
3.1303200722,-0.5771484375,0.5571289062,0.0678710938,4.5928955078,-0.9765625000,81.5277099609
3.1330280304,-0.5771484375,0.5571289062,0.0678710938,4.5928955078,-0.9765625000,81.5277099609
3.1357340813,-0.4921875000,0.5639648438,0.0781250000,10.3912353516,0.4882812500,79.3914794922
3.1385920048,-0.4921875000,0.5639648438,0.0781250000,10.3912353516,0.4882812500,79.3914794922
3.1412999630,-0.4921875000,0.5639648438,0.0781250000,11.2304687500,2.9449462891,76.2634277344
3.1440100670,-0.4921875000,0.5639648438,0.0551757812,11.2304687500,2.9449462891,76.2634277344
3.1467139721,-0.5537109375,0.5483398438,0.0551757812,11.1694335938,4.5166015625,73.1506347656
3.1494269371,-0.5537109375,0.5483398438,0.0551757812,11.1694335938,4.5166015625,73.1506347656
3.1521399021,-0.5537109375,0.5483398438,0.0551757812,12.5122070312,5.4016113281,70.0225830078
3.1548418999,-0.5688476562,0.5683593750,0.0537109375,12.5122070312,5.4016113281,70.0225830078
3.1575798988,-0.5688476562,0.5683593750,0.0537109375,12.7105712891,5.5236816406,66.1621093750
3.1601788998,-0.5688476562,0.5683593750,0.0537109375,12.7105712891,5.5236816406,66.1621093750
3.1627509594,-0.5688476562,0.5683593750,0.0537109375,11.2762451172,6.6375732422,61.7065429688
3.1655180454,-0.6035156250,0.6127929688,0.0986328125,11.2762451172,6.6375732422,61.7065429688
3.1683280468,-0.6035156250,0.6127929688,0.0986328125,9.0484619141,6.9580078125,56.2133789062
3.1710438728,-0.6035156250,0.6127929688,0.0986328125,9.0484619141,6.9580078125,56.2133789062
3.1737489700,-0.6035156250,0.6127929688,0.0986328125,7.5531005859,6.6223144531,49.9267578125
3.1764428616,-0.5839843750,0.6328125000,0.1083984375,7.5531005859,6.6223144531,49.9267578125
3.1791598797,-0.5839843750,0.6328125000,0.1083984375,8.1176757812,4.6997070312,44.6472167969
3.1818599701,-0.5839843750,0.6328125000,0.1083984375,8.1176757812,4.6997070312,44.6472167969
3.1845610142,-0.5839843750,0.6069335938,0.1054687500,8.8043212891,3.3264160156,39.3524169922
3.1872658730,-0.4931640625,0.6069335938,0.1054687500,8.8043212891,3.3264160156,39.3524169922
3.1899790764,-0.4931640625,0.6069335938,0.1054687500,9.2773437500,3.0670166016,35.2172851562
3.1926810741,-0.4931640625,0.6069335938,0.1054687500,9.2773437500,3.0670166016,35.2172851562
3.1953880787,-0.4619140625,0.6450195312,0.0981445312,10.1165771484,2.4261474609,31.8450927734
3.1980888844,-0.4619140625,0.6450195312,0.0981445312,10.1165771484,2.4261474609,31.8450927734
3.2006690502,-0.4619140625,0.6450195312,0.0981445312,14.0228271484,2.4414062500,27.6031494141
3.2032389641,-0.4619140625,0.6450195312,0.0981445312,11.9018554688,2.4414062500,27.6031494141
3.2059159279,-0.4838867188,0.6293945312,0.0488281250,11.9018554688,2.4414062500,23.2543945312
3.2085049152,-0.4838867188,0.6293945312,0.0488281250,13.2446289062,1.7852783203,23.2543945312
3.2110810280,-0.4838867188,0.6293945312,0.0488281250,13.2446289062,1.7852783203,18.6920166016
3.2136528492,-0.4838867188,0.6293945312,0.0488281250,12.1002197266,0.8850097656,18.6920166016
3.2162299156,-0.4697265625,0.6083984375,0.0351562500,12.1002197266,0.8850097656,14.7857666016
3.2188439369,-0.4697265625,0.6083984375,0.0351562500,9.0637207031,-0.8087158203,13.4582519531
3.2214179039,-0.4697265625,0.6083984375,0.0351562500,9.0637207031,-0.8087158203,13.4582519531
3.2239830494,-0.4697265625,0.6083984375,0.0351562500,5.4931640625,-1.6937255859,7.8735351562
3.2265429497,-0.4506835938,0.6440429688,0.0463867188,5.4931640625,-1.6937255859,7.8735351562
3.2291998863,-0.4506835938,0.6440429688,0.0463867188,1.1901855469,-2.4261474609,1.9226074219
3.2317609787,-0.4506835938,0.6440429688,0.0463867188,1.1901855469,-2.4261474609,1.9226074219
3.2343208790,-0.4506835938,0.6440429688,0.0463867188,-1.3885498047,-2.3193359375,-4.4555664062
3.2368879318,-0.4462890625,0.6870117188,0.0786132812,-1.3885498047,-2.3193359375,-4.4555664062
3.2396299839,-0.4462890625,0.6870117188,0.0786132812,-0.7324218750,-2.6245117188,-10.6964111328
3.2423360348,-0.4462890625,0.6870117188,0.0786132812,-0.7324218750,-2.6245117188,-10.6964111328
3.2450349331,-0.4462890625,0.6918945312,0.0986328125,0.8544921875,-3.4179687500,-17.2882080078
3.2477309704,-0.5053710938,0.6918945312,0.0986328125,0.8544921875,-3.4179687500,-17.2882080078
3.2504398823,-0.5053710938,0.6918945312,0.0986328125,4.3945312500,-4.4555664062,-23.9715576172
3.2531399727,-0.5053710938,0.6918945312,0.0986328125,4.3945312500,-4.4555664062,-23.9715576172
3.2558388710,-0.5263671875,0.6928710938,0.0869140625,7.6599121094,-5.6304931641,-31.4941406250
3.2585179806,-0.5263671875,0.6928710938,0.0869140625,7.6599121094,-5.6304931641,-31.4941406250
3.2610859871,-0.5263671875,0.6928710938,0.0869140625,8.9569091797,-6.5002441406,-39.6728515625
3.2636539936,-0.5263671875,0.6928710938,0.0869140625,8.9569091797,-6.5002441406,-39.6728515625
3.2662210464,-0.5292968750,0.6777343750,0.0600585938,10.1928710938,-6.5765380859,-46.2036132812
3.2689468861,-0.5292968750,0.6777343750,0.0600585938,10.1928710938,-6.5765380859,-46.2036132812
3.2715270519,-0.5292968750,0.6777343750,0.0600585938,14.0991210938,-5.5084228516,-52.4139404297
3.2740969658,-0.5292968750,0.6777343750,0.0600585938,12.2833251953,-5.5084228516,-52.4139404297
3.2766659260,-0.5913085938,0.6625976562,0.0854492188,12.2833251953,-3.8909912109,-58.8378906250
3.2793860435,-0.5913085938,0.6625976562,0.0854492188,14.2822265625,-3.8909912109,-58.8378906250
3.2819509506,-0.5913085938,0.6625976562,0.0854492188,14.2822265625,-3.8909912109,-64.9566650391
3.2845299244,-0.5913085938,0.6625976562,0.0854492188,16.0064697266,-3.0364990234,-64.9566650391
3.2871069908,-0.6489257812,0.6396484375,0.1147460938,16.0064697266,-3.0364990234,-70.6481933594
3.2898449898,-0.6489257812,0.6396484375,0.1147460938,19.8059082031,-1.7700195312,-70.6481933594
3.2925159931,-0.6489257812,0.6396484375,0.1147460938,19.8059082031,2.1362304688,-76.6296386719
3.2955000401,-0.6489257812,0.6396484375,0.1616210938,25.7720947266,0.0762939453,-76.6296386719
3.2983510494,-0.6630859375,0.7402343750,0.1616210938,25.7720947266,0.0762939453,-83.1451416016
3.3010630608,-0.6630859375,0.7402343750,0.1616210938,33.7524414062,1.9836425781,-83.1451416016
3.3037638664,-0.6630859375,0.7402343750,0.1616210938,33.7524414062,1.9836425781,-89.9200439453
3.3064708710,-0.6850585938,0.6987304688,0.1508789062,44.5861816406,3.5247802734,-89.9200439453
3.3091158867,-0.6850585938,0.6987304688,0.1508789062,44.5861816406,3.5247802734,-96.7559814453
3.3116889000,-0.6850585938,0.6987304688,0.1508789062,54.3212890625,5.4016113281,-96.7559814453
3.3142640591,-0.6850585938,0.6987304688,0.1508789062,54.3212890625,5.4016113281,-104.5684814453
3.3168389797,-0.7822265625,0.6440429688,0.1201171875,61.8591308594,7.6293945312,-103.1951904297
3.3195350170,-0.7822265625,0.6440429688,0.1201171875,61.8591308594,7.6293945312,-111.0076904297
3.3222389221,-0.7822265625,0.6440429688,0.1201171875,63.2324218750,8.6212158203,-110.2447509766
3.3249490261,-0.7822265625,0.6440429688,0.1201171875,63.2324218750,8.6212158203,-118.0572509766
3.3276710510,-0.8334960938,0.6704101562,0.0937500000,59.5245361328,10.1928710938,-118.2250976562
3.3302459717,-0.8334960938,0.6704101562,0.0937500000,59.5245361328,10.1928710938,-118.2250976562
3.3329329491,-0.8334960938,0.6704101562,0.0937500000,53.2379150391,12.5122070312,-126.5563964844
3.3355169296,-0.8334960938,0.6704101562,0.1240234375,53.2379150391,12.5122070312,-126.5563964844
3.3381099701,-0.9243164062,0.7177734375,0.1240234375,47.0275878906,14.9993896484,-135.2844238281
3.3406908512,-0.9243164062,0.7177734375,0.1240234375,47.0275878906,14.9993896484,-135.2844238281
3.3432710171,-0.9243164062,0.7177734375,0.1240234375,43.3959960938,17.4713134766,-144.9737548828
3.3458478451,-0.9243164062,0.8427734375,0.2172851562,43.3959960938,17.4713134766,-144.9737548828
