# time_stamp before, Acceleration x, Acceleration y, Acceleration z, Gyro x, Gyro y, Gyro z
0.0000000000,-0.7270507812,0.0527343750,0.0258789062,-0.2746582031,-0.2593994141,-0.2441406250
0.0027000904,-0.7358398438,0.0512695312,0.0307617188,-0.2593994141,0.1373291016,-0.1678466797
0.0053908825,-0.7358398438,0.0512695312,0.0307617188,-0.2593994141,0.1373291016,-0.1678466797
0.0081450939,-0.7358398438,0.0512695312,0.0307617188,-0.2746582031,-0.0915527344,-0.1678466797
0.0108358860,-0.7358398438,0.0512695312,0.0307617188,-0.2746582031,-0.0915527344,-0.1678466797
0.0135319233,-0.7377929688,0.0541992188,0.0302734375,0.0000000000,-0.1373291016,-0.3356933594
0.0162289143,-0.7377929688,0.0541992188,0.0302734375,0.0000000000,-0.1373291016,-0.1525878906
0.0196199417,-0.7377929688,0.0541992188,0.0302734375,0.0762939453,-0.1831054688,-0.1525878906
0.0223069191,-0.7377929688,0.0493164062,0.0258789062,0.0762939453,-0.1831054688,-0.0305175781
0.0250039101,-0.7397460938,0.0493164062,0.0258789062,-0.5493164062,-0.2288818359,-0.0305175781
0.0277318954,-0.7397460938,0.0493164062,0.0258789062,-0.5493164062,-0.2288818359,-0.3051757812
0.0302879810,-0.7397460938,0.0493164062,0.0258789062,-0.0762939453,-0.2136230469,-0.3051757812
0.0328428745,-0.7373046875,0.0488281250,0.0307617188,-0.0762939453,-0.2136230469,-0.3051757812
0.0354070663,-0.7373046875,0.0488281250,0.0307617188,-0.2288818359,0.0457763672,-0.3204345703
0.0380868912,-0.7373046875,0.0488281250,0.0307617188,-0.2288818359,0.0457763672,-0.3204345703
0.0407440662,-0.7373046875,0.0488281250,0.0307617188,-0.6103515625,0.0152587891,-0.0610351562
0.0434041023,-0.7353515625,0.0498046875,0.0278320312,-0.6103515625,0.0152587891,-0.0610351562
0.0460770130,-0.7353515625,0.0498046875,0.0278320312,0.0305175781,-0.3509521484,-0.3967285156
0.0487360954,-0.7353515625,0.0498046875,0.0278320312,0.0305175781,-0.3509521484,-0.3967285156
0.0513079166,-0.7353515625,0.0498046875,0.0278320312,0.5798339844,-0.5340576172,-0.1678466797
0.0540258884,-0.7387695312,0.0537109375,0.0297851562,0.5798339844,-0.5340576172,-0.1678466797
0.0565910339,-0.7387695312,0.0537109375,0.0297851562,0.1068115234,-0.2899169922,-0.0762939453
0.0594360828,-0.7387695312,0.0537109375,0.0297851562,0.1068115234,-0.2899169922,-0.0762939453
0.0620050430,-0.7387695312,0.0537109375,0.0249023438,-0.1525878906,-0.1525878906,-0.0762939453
0.0645740032,-0.7377929688,0.0488281250,0.0249023438,-0.1525878906,-0.1525878906,-0.0762939453
0.0672559738,-0.7377929688,0.0488281250,0.0249023438,-0.1220703125,-0.2593994141,-0.0152587891
0.0701999664,-0.7377929688,0.0488281250,0.0249023438,-0.1220703125,-0.2593994141,-0.0152587891
0.0727829933,-0.7377929688,0.0493164062,0.0219726562,-0.1373291016,-0.4119873047,-0.3356933594
0.0753650665,-0.7333984375,0.0493164062,0.0219726562,-0.1373291016,-0.4119873047,-0.3356933594
0.0781710148,-0.7333984375,0.0493164062,0.0219726562,0.2746582031,-0.3051757812,-0.1983642578
0.0807449818,-0.7333984375,0.0493164062,0.0219726562,0.2746582031,-0.3051757812,-0.1983642578
0.0833089352,-0.7421875000,0.0429687500,0.0375976562,-0.1220703125,-0.2441406250,-0.1220703125
0.0858750343,-0.7421875000,0.0429687500,0.0375976562,-0.1220703125,-0.2441406250,-0.1220703125
0.0886740685,-0.7421875000,0.0429687500,0.0375976562,-0.6256103516,-0.1373291016,-0.1220703125
0.0913369656,-0.7421875000,0.0429687500,0.0375976562,-0.6256103516,-0.1373291016,-0.1220703125
0.0948560238,-0.7241210938,0.0512695312,0.0185546875,-0.3509521484,0.0762939453,-0.0457763672
0.0976939201,-0.7241210938,0.0512695312,0.0185546875,-0.3509521484,0.0762939453,-0.0457763672
0.1002800465,-0.7241210938,0.0512695312,0.0185546875,-0.3051757812,-0.2441406250,0.0152587891
0.1028740406,-0.7241210938,0.0498046875,0.0273437500,-0.3051757812,-0.2441406250,0.0152587891
0.1054370403,-0.7343750000,0.0498046875,0.0273437500,-0.1678466797,-0.1068115234,0.1678466797
0.1080150604,-0.7343750000,0.0498046875,0.0273437500,-0.1678466797,-0.1068115234,0.1678466797
0.1105809212,-0.7343750000,0.0498046875,0.0273437500,-0.0305175781,-0.2746582031,0.0000000000
0.1132109165,-0.7343750000,0.0517578125,0.0366210938,-0.0305175781,-0.2746582031,0.0000000000
0.1157748699,-0.7333984375,0.0517578125,0.0366210938,-0.3509521484,-0.3662109375,0.3204345703
0.1184670925,-0.7333984375,0.0517578125,0.0366210938,-0.3509521484,-0.3662109375,0.3204345703
0.1210329533,-0.7333984375,0.0517578125,0.0366210938,-0.1831054688,-0.6256103516,0.1220703125
0.1235959530,-0.7382812500,0.0454101562,0.0351562500,-0.1831054688,-0.6256103516,0.1220703125
0.1261610985,-0.7382812500,0.0454101562,0.0351562500,-0.1831054688,-0.5035400391,-0.1220703125
0.1287479401,-0.7382812500,0.0454101562,0.0351562500,-0.4882812500,-0.5035400391,-0.1220703125
0.1313080788,-0.7382812500,0.0454101562,0.0351562500,-0.4882812500,-0.5035400391,-0.1831054688
0.1338679790,-0.7294921875,0.0537109375,0.0332031250,-0.6561279297,-0.0457763672,-0.1831054688
0.1364340782,-0.7294921875,0.0537109375,0.0332031250,-0.6561279297,-0.0457763672,-0.3509521484
0.1390380859,-0.7294921875,0.0537109375,0.0332031250,-0.0457763672,-0.2746582031,-0.3509521484
0.1415979862,-0.7294921875,0.0537109375,0.0332031250,-0.0457763672,-0.2746582031,-0.3509521484
0.1441559792,-0.7358398438,0.0517578125,0.0322265625,-0.9155273438,-0.2746582031,-0.1373291016
0.1467220783,-0.7358398438,0.0517578125,0.0322265625,-0.9155273438,-0.2746582031,-0.1373291016
0.1493999958,-0.7358398438,0.0517578125,0.0322265625,-0.3204345703,-0.4119873047,-0.3814697266
0.1519620419,-0.7358398438,0.0517578125,0.0322265625,-0.3204345703,-0.4119873047,-0.3814697266
0.1545250416,-0.7338867188,0.0478515625,0.0263671875,-0.2593994141,-0.3204345703,-0.1373291016
0.1570909023,-0.7338867188,0.0478515625,0.0263671875,-0.2593994141,-0.3204345703,-0.1373291016
0.1597759724,-0.7338867188,0.0478515625,0.0263671875,0.0305175781,0.0762939453,0.0762939453
0.1623358727,-0.7338867188,0.0478515625,0.0263671875,0.0305175781,0.0762939453,0.0762939453
0.1648960114,-0.7377929688,0.0517578125,0.0292968750,0.0610351562,-0.1220703125,-0.0915527344
0.1675910950,-0.7377929688,0.0517578125,0.0292968750,0.0610351562,-0.1220703125,-0.0915527344
0.1701629162,-0.7377929688,0.0517578125,0.0292968750,-0.2593994141,-0.2899169922,-0.1220703125
0.1727299690,-0.7377929688,0.0517578125,0.0292968750,-0.2593994141,-0.2899169922,-0.1220703125
0.1754469872,-0.7324218750,0.0527343750,0.0214843750,-0.0915527344,-0.2136230469,-0.1068115234
0.1781439781,-0.7324218750,0.0527343750,0.0214843750,-0.0915527344,-0.2136230469,-0.1068115234
0.1809110641,-0.7324218750,0.0527343750,0.0214843750,0.0915527344,0.0915527344,-0.1525878906
0.1841940880,-0.7363281250,0.0556640625,0.0302734375,0.0915527344,0.0915527344,-0.1525878906
0.1867549419,-0.7363281250,0.0556640625,0.0302734375,0.2899169922,-0.7324218750,-0.4730224609
0.1893720627,-0.7363281250,0.0556640625,0.0302734375,0.2899169922,-0.7324218750,-0.4730224609
0.1919379234,-0.7363281250,0.0556640625,0.0302734375,-0.3967285156,-0.4882812500,-0.2746582031
0.1945040226,-0.7314453125,0.0512695312,0.0307617188,-0.3967285156,-0.4882812500,-0.2746582031
0.1970710754,-0.7314453125,0.0512695312,0.0307617188,-0.4119873047,0.0610351562,0.1831054688
0.1996929646,-0.7314453125,0.0512695312,0.0307617188,-0.4119873047,0.0610351562,0.1831054688
0.2022531033,-0.7314453125,0.0512695312,0.0307617188,-0.4119873047,0.0000000000,-0.0152587891
0.2048149109,-0.7309570312,0.0405273438,0.0292968750,-0.5340576172,0.0000000000,-0.0152587891
0.2073719501,-0.7309570312,0.0405273438,0.0292968750,-0.5340576172,0.0000000000,-0.3967285156
0.2099399567,-0.7309570312,0.0405273438,0.0292968750,-0.4272460938,0.2136230469,-0.3967285156
0.2125039101,-0.7309570312,0.0405273438,0.0292968750,-0.4272460938,0.2136230469,-0.1373291016
0.2150659561,-0.7387695312,0.0517578125,0.0244140625,-0.3356933594,0.0305175781,-0.1373291016
0.2177031040,-0.7387695312,0.0517578125,0.0244140625,-0.3356933594,0.0305175781,-0.1373291016
0.2202670574,-0.7387695312,0.0517578125,0.0244140625,-0.3356933594,-0.1220703125,-0.1220703125
0.2228319645,-0.7387695312,0.0517578125,0.0244140625,-0.3356933594,-0.1220703125,-0.1220703125
0.2253880501,-0.7343750000,0.0527343750,0.0156250000,-0.1678466797,-0.2746582031,-0.2899169922
0.2280790806,-0.7343750000,0.0527343750,0.0156250000,-0.1678466797,-0.2746582031,-0.2899169922
0.2306420803,-0.7343750000,0.0527343750,0.0156250000,-0.3051757812,-0.1831054688,-0.1831054688
0.2332060337,-0.7343750000,0.0527343750,0.0156250000,-0.3051757812,-0.1831054688,-0.1831054688
0.2357730865,-0.7333984375,0.0498046875,0.0234375000,0.0000000000,-0.4272460938,-0.5187988281
0.2384519577,-0.7333984375,0.0498046875,0.0234375000,0.0000000000,-0.4272460938,-0.5187988281
0.2410218716,-0.7333984375,0.0498046875,0.0234375000,-0.1220703125,-0.5950927734,-0.5645751953
0.2437019348,-0.7333984375,0.0498046875,0.0346679688,-0.1220703125,-0.5950927734,-0.5645751953
0.2462680340,-0.7363281250,0.0498046875,0.0346679688,0.2136230469,-0.1220703125,-0.5798339844
0.2488780022,-0.7363281250,0.0498046875,0.0346679688,0.2136230469,-0.1220703125,-0.5798339844
0.2514460087,-0.7363281250,0.0498046875,0.0346679688,-0.1373291016,0.1373291016,-0.2136230469
0.2540090084,-0.7363281250,0.0498046875,0.0268554688,-0.1373291016,0.1373291016,-0.2136230469
0.2565720081,-0.7324218750,0.0512695312,0.0268554688,-0.1373291016,0.3051757812,-0.4119873047
0.2591550350,-0.7324218750,0.0512695312,0.0268554688,-0.5798339844,0.3051757812,-0.4119873047
0.2617208958,-0.7324218750,0.0512695312,0.0268554688,-0.5798339844,0.3051757812,-0.5645751953
0.2642889023,-0.7324218750,0.0512695312,0.0278320312,-0.0610351562,-0.0915527344,-0.5645751953
0.2668590546,-0.7373046875,0.0517578125,0.0278320312,-0.0610351562,-0.0915527344,-0.3814697266
0.2695438862,-0.7373046875,0.0517578125,0.0278320312,0.1068115234,-0.3356933594,-0.3814697266
0.2721149921,-0.7373046875,0.0517578125,0.0278320312,0.1068115234,-0.3356933594,-0.3814697266
0.2746839523,-0.7373046875,0.0517578125,0.0190429688,-0.2288818359,0.1068115234,-0.3662109375
0.2772469521,-0.7324218750,0.0517578125,0.0190429688,-0.2288818359,0.1068115234,-0.3662109375
0.2799820900,-0.7324218750,0.0517578125,0.0190429688,0.1983642578,0.0305175781,-0.5035400391
0.2826809883,-0.7324218750,0.0517578125,0.0190429688,0.1983642578,0.0305175781,-0.5035400391
0.2853820324,-0.7387695312,0.0512695312,0.0288085938,0.3967285156,0.1525878906,-0.4730224609
0.2880909443,-0.7387695312,0.0512695312,0.0288085938,0.3967285156,0.1525878906,-0.4730224609
0.2907850742,-0.7387695312,0.0512695312,0.0288085938,0.7171630859,0.1831054688,-0.3051757812
0.2935070992,-0.7387695312,0.0512695312,0.0288085938,0.7171630859,0.1831054688,-0.3051757812
0.2962498665,-0.7280273438,0.0458984375,0.0356445312,0.0152587891,0.0152587891,-0.1983642578
0.2989609241,-0.7280273438,0.0458984375,0.0356445312,0.0152587891,0.0152587891,-0.1983642578
0.3016629219,-0.7280273438,0.0458984375,0.0356445312,-0.2899169922,-0.0762939453,-0.1220703125
0.3043580055,-0.7280273438,0.0458984375,0.0258789062,-0.2899169922,-0.0762939453,-0.1220703125
0.3071630001,-0.7314453125,0.0507812500,0.0258789062,-0.2899169922,0.1525878906,-0.1831054688
0.3098731041,-0.7314453125,0.0507812500,0.0258789062,-0.2899169922,0.1525878906,-0.1831054688
0.3125700951,-0.7314453125,0.0507812500,0.0258789062,0.0000000000,0.0152587891,-0.1983642578
0.3152720928,-0.7314453125,0.0517578125,0.0214843750,0.0000000000,0.0152587891,-0.1983642578
0.3179640770,-0.7338867188,0.0517578125,0.0214843750,-0.4425048828,0.1678466797,0.0152587891
0.3205280304,-0.7338867188,0.0517578125,0.0214843750,-0.4425048828,0.1678466797,0.0152587891
0.3230950832,-0.7338867188,0.0517578125,0.0214843750,-0.6256103516,0.2288818359,-0.0762939453
0.3256580830,-0.7407226562,0.0468750000,0.0263671875,-0.6256103516,0.2288818359,-0.0762939453
0.3282289505,-0.7407226562,0.0468750000,0.0263671875,-0.4882812500,-0.0305175781,-0.1373291016
0.3307991028,-0.7407226562,0.0468750000,0.0263671875,-0.4882812500,-0.0305175781,-0.1373291016
0.3333640099,-0.7407226562,0.0468750000,0.0263671875,-0.3814697266,0.1525878906,-0.1220703125
0.3359310627,-0.7333984375,0.0493164062,0.0234375000,-0.3814697266,0.1525878906,-0.1220703125
0.3386368752,-0.7333984375,0.0493164062,0.0234375000,-0.1373291016,0.0305175781,-0.1678466797
0.3412039280,-0.7333984375,0.0493164062,0.0234375000,-0.1373291016,0.0305175781,-0.1678466797
0.3437759876,-0.7333984375,0.0493164062,0.0234375000,-0.1373291016,0.1220703125,-0.4425048828
0.3463408947,-0.7363281250,0.0502929688,0.0268554688,-0.1678466797,0.1220703125,-0.4425048828
0.3490839005,-0.7363281250,0.0502929688,0.0268554688,-0.1678466797,-0.3509521484,-0.2441406250
0.3517720699,-0.7363281250,0.0502929688,0.0268554688,-0.3051757812,-0.3509521484,-0.2441406250
0.3544590473,-0.7363281250,0.0502929688,0.0268554688,-0.3051757812,-0.1373291016,0.0000000000
0.3571488857,-0.7402343750,0.0478515625,0.0307617188,-0.7019042969,-0.1373291016,0.0000000000
0.3598270416,-0.7402343750,0.0478515625,0.0307617188,-0.7019042969,-0.1373291016,-0.0610351562
0.3624858856,-0.7402343750,0.0478515625,0.0307617188,-0.7171630859,-0.0457763672,-0.0610351562
0.3651530743,-0.7402343750,0.0478515625,0.0283203125,-0.7171630859,-0.0457763672,0.0457763672
0.3679790497,-0.7426757812,0.0498046875,0.0283203125,-0.1068115234,-0.0610351562,0.0457763672
0.3706429005,-0.7426757812,0.0498046875,0.0283203125,-0.1068115234,-0.0610351562,-0.2288818359
0.3732089996,-0.7426757812,0.0498046875,0.0283203125,0.0762939453,-0.2746582031,-0.2288818359
0.3757710457,-0.7426757812,0.0498046875,0.0239257812,0.0762939453,-0.2746582031,0.1068115234
0.3783988953,-0.7358398438,0.0498046875,0.0239257812,-0.4730224609,0.1373291016,0.1068115234
0.3810949326,-0.7358398438,0.0498046875,0.0239257812,-0.4730224609,0.1373291016,0.0000000000
0.3837890625,-0.7358398438,0.0498046875,0.0239257812,-0.7171630859,-0.0457763672,0.0000000000
0.3864898682,-0.7392578125,0.0483398438,0.0327148438,-0.7171630859,-0.0457763672,-3.9062500000
0.3891968727,-0.7392578125,0.0483398438,0.0327148438,-0.5798339844,-0.2746582031,-0.0457763672
0.3918941021,-0.7392578125,0.0483398438,0.0327148438,-0.5798339844,-0.2746582031,-0.0457763672
0.3945910931,-0.7392578125,0.0483398438,0.0327148438,-0.3509521484,-0.2746582031,-0.1373291016
0.3972890377,-0.7333984375,0.0478515625,0.0307617188,-0.3509521484,-0.2746582031,3.7689208984
0.4000010490,-0.7333984375,0.0478515625,0.0307617188,0.3051757812,-0.0762939453,0.3814697266
0.4026980400,-0.7333984375,0.0478515625,0.0307617188,0.3051757812,-0.0762939453,0.3814697266
0.4053959846,-0.7333984375,0.0478515625,0.0307617188,0.3814697266,-0.0457763672,0.3204345703
0.4081599712,-0.7392578125,0.0493164062,0.0307617188,0.3814697266,-0.0457763672,0.3204345703
0.4108479023,-0.7392578125,0.0493164062,0.0307617188,0.1983642578,0.0152587891,0.0305175781
0.4135420322,-0.7392578125,0.0493164062,0.0307617188,0.1983642578,0.0152587891,0.0305175781
0.4162430763,-0.7392578125,0.0512695312,0.0253906250,-0.2746582031,-0.2746582031,0.1831054688
0.4188809395,-0.7338867188,0.0512695312,0.0253906250,-0.2746582031,-0.2746582031,0.1831054688
0.4214448929,-0.7338867188,0.0512695312,0.0253906250,-0.3814697266,0.0000000000,-0.0915527344
0.4240100384,-0.7338867188,0.0512695312,0.0253906250,-0.3814697266,0.0000000000,-0.0915527344
0.4265780449,-0.7324218750,0.0576171875,0.0283203125,-0.6713867188,0.2136230469,-0.1678466797
0.4292359352,-0.7324218750,0.0576171875,0.0283203125,-0.6713867188,0.2136230469,-0.1678466797
0.4319169521,-0.7324218750,0.0576171875,0.0283203125,-0.6256103516,-0.3204345703,-0.0457763672
0.4345970154,-0.7324218750,0.0576171875,0.0283203125,-0.6256103516,-0.3204345703,-0.0457763672
0.4373879433,-0.7407226562,0.0512695312,0.0229492188,-0.1831054688,-0.4425048828,-0.3051757812
0.4400758743,-0.7407226562,0.0512695312,0.0229492188,-0.1831054688,-0.4425048828,-0.3051757812
0.4427609444,-0.7407226562,0.0512695312,0.0229492188,-0.0915527344,0.0152587891,-0.1831054688
0.4454400539,-0.7407226562,0.0512695312,0.0229492188,-0.0915527344,0.0152587891,-0.1831054688
0.4481699467,-0.7314453125,0.0537109375,0.0283203125,-0.2899169922,0.2136230469,-0.1983642578
0.4508569241,-0.7314453125,0.0537109375,0.0283203125,-0.2899169922,0.2136230469,-0.1983642578
0.4535410404,-0.7314453125,0.0537109375,0.0283203125,-0.3204345703,0.4119873047,-0.1220703125
0.4562270641,-0.7314453125,0.0532226562,0.0249023438,-0.3204345703,0.4119873047,-0.1220703125
0.4589529037,-0.7329101562,0.0532226562,0.0249023438,-0.3662109375,-0.1068115234,-0.0915527344
0.4616339207,-0.7329101562,0.0532226562,0.0249023438,-0.3662109375,-0.1068115234,-0.0915527344
0.4643239975,-0.7329101562,0.0532226562,0.0249023438,-0.3967285156,-0.2593994141,-0.0305175781
0.4670059681,-0.7363281250,0.0473632812,0.0205078125,-0.3967285156,-0.2593994141,-0.0305175781
0.4696540833,-0.7363281250,0.0473632812,0.0205078125,0.2593994141,-0.1068115234,-0.3509521484
0.4722259045,-0.7363281250,0.0473632812,0.0205078125,0.2593994141,-0.1068115234,-0.3509521484
0.4747929573,-0.7363281250,0.0473632812,0.0205078125,0.0457763672,0.1373291016,-0.2746582031
0.4773559570,-0.7392578125,0.0498046875,0.0327148438,0.0457763672,0.1373291016,-0.2746582031
0.4801690578,-0.7392578125,0.0498046875,0.0327148438,-0.2441406250,-0.0762939453,0.1068115234
0.4827508926,-0.7392578125,0.0498046875,0.0327148438,-0.2441406250,-0.0762939453,0.1068115234
0.4853160381,-0.7392578125,0.0498046875,0.0327148438,-0.2441406250,-0.3051757812,0.0000000000
0.4880769253,-0.7368164062,0.0498046875,0.0229492188,-0.4425048828,-0.3051757812,0.0000000000
0.4907419682,-0.7368164062,0.0498046875,0.0229492188,-0.4425048828,-0.3967285156,-0.2136230469
0.4935040474,-0.7368164062,0.0498046875,0.0229492188,-0.4425048828,-0.3967285156,-0.2136230469
0.4961678982,-0.7368164062,0.0498046875,0.0322265625,-0.7019042969,-0.2746582031,-0.2899169922
0.4994430542,-0.7358398438,0.0493164062,0.0322265625,-0.7019042969,-0.2746582031,-0.2899169922
0.5021159649,-0.7358398438,0.0493164062,0.0322265625,-0.0762939453,-0.1983642578,-0.2441406250
0.5046780109,-0.7358398438,0.0493164062,0.0322265625,-0.0762939453,-0.1983642578,-0.2441406250
0.5072450638,-0.7319335938,0.0541992188,0.0283203125,0.2593994141,0.1220703125,-0.3051757812
0.5098700523,-0.7319335938,0.0541992188,0.0283203125,0.2593994141,0.1220703125,-0.3051757812
0.5124320984,-0.7319335938,0.0541992188,0.0283203125,0.2593994141,-0.1831054688,-0.4119873047
0.5149900913,-0.7319335938,0.0541992188,0.0283203125,0.1220703125,-0.1831054688,-0.4119873047
0.5175468922,-0.7353515625,0.0532226562,0.0200195312,0.1220703125,-0.1831054688,-0.1831054688
0.5201139450,-0.7353515625,0.0532226562,0.0200195312,-0.1068115234,-0.2746582031,-0.1831054688
0.5226769447,-0.7353515625,0.0532226562,0.0200195312,-0.1068115234,-0.2746582031,-0.1831054688
0.5252339840,-0.7353515625,0.0532226562,0.0200195312,-0.0610351562,-0.0762939453,-0.2899169922
0.5278060436,-0.7402343750,0.0532226562,0.0346679688,-0.0610351562,-0.0762939453,-0.2899169922
0.5303699970,-0.7402343750,0.0532226562,0.0346679688,0.1831054688,-0.2899169922,-0.1678466797
0.5329339504,-0.7402343750,0.0532226562,0.0346679688,0.1831054688,-0.2899169922,-0.1678466797
0.5355010033,-0.7402343750,0.0532226562,0.0346679688,-0.3204345703,-0.3356933594,-0.2288818359
0.5381128788,-0.7353515625,0.0478515625,0.0278320312,-0.3204345703,-0.3356933594,-0.2288818359
0.5406780243,-0.7353515625,0.0478515625,0.0278320312,-0.2899169922,-0.0610351562,-0.3814697266
0.5432400703,-0.7353515625,0.0478515625,0.0278320312,-0.2899169922,-0.0610351562,-0.3814697266
0.5458068848,-0.7353515625,0.0478515625,0.0278320312,0.1068115234,-0.1525878906,-0.3051757812
0.5484628677,-0.7299804688,0.0454101562,0.0161132812,0.1068115234,-0.1525878906,-0.3051757812
0.5510239601,-0.7299804688,0.0454101562,0.0161132812,-0.1831054688,-0.0762939453,-0.1373291016
0.5535900593,-0.7299804688,0.0454101562,0.0161132812,-0.1831054688,-0.0762939453,-0.1373291016
0.5561599731,-0.7299804688,0.0454101562,0.0161132812,-0.0762939453,0.0457763672,-0.1068115234
0.5588860512,-0.7358398438,0.0468750000,0.0278320312,-0.0762939453,0.0457763672,-0.1068115234
0.5615839958,-0.7358398438,0.0468750000,0.0278320312,-0.1831054688,-0.4577636719,-0.0915527344
0.5643858910,-0.7358398438,0.0468750000,0.0278320312,-0.1831054688,-0.4577636719,-0.0915527344
0.5670828819,-0.7358398438,0.0468750000,0.0327148438,-0.1220703125,-0.0610351562,-0.2288818359
0.5696840286,-0.7314453125,0.0493164062,0.0327148438,-0.1220703125,-0.0610351562,-0.2288818359
0.5722448826,-0.7314453125,0.0493164062,0.0327148438,-0.1220703125,-0.2899169922,-0.1525878906
0.5748059750,-0.7314453125,0.0493164062,0.0327148438,-0.1373291016,-0.2899169922,-0.1525878906
0.5773720741,-0.7314453125,0.0493164062,0.0288085938,-0.1373291016,3.6163330078,-0.2593994141
0.5800700188,-0.7382812500,0.0483398438,0.0288085938,-0.4882812500,0.0610351562,-0.2593994141
0.5827698708,-0.7382812500,0.0483398438,0.0288085938,-0.4882812500,-3.8452148438,-0.2899169922
0.5854609013,-0.7382812500,0.0483398438,0.0288085938,-0.3051757812,-0.2441406250,-0.2899169922
0.5881450176,-0.7397460938,0.0429687500,0.0288085938,-0.3051757812,-0.2441406250,-0.2136230469
0.5907099247,-0.7397460938,0.0429687500,0.0288085938,-0.5035400391,0.0457763672,-0.2136230469
0.5932738781,-0.7397460938,0.0429687500,0.0288085938,-0.5035400391,0.0457763672,-0.2136230469
0.5958409309,-0.7397460938,0.0429687500,0.0288085938,-0.6866455078,0.3204345703,-0.0915527344
0.5985400677,-0.7304687500,0.0512695312,0.0185546875,-0.6866455078,0.3204345703,-0.0915527344
0.6011080742,-0.7304687500,0.0512695312,0.0185546875,-0.7019042969,0.2899169922,-0.1068115234
0.6036770344,-0.7304687500,0.0512695312,0.0185546875,-0.7019042969,0.2899169922,-0.1068115234
0.6062400341,-0.7304687500,0.0512695312,0.0185546875,-0.4425048828,0.2288818359,-0.3967285156
0.6088809967,-0.7353515625,0.0537109375,0.0346679688,-0.4425048828,0.2288818359,-0.3967285156
0.6115849018,-0.7353515625,0.0537109375,0.0346679688,-0.4577636719,-0.0610351562,-0.4425048828
0.6143698692,-0.7353515625,0.0537109375,0.0346679688,-0.4577636719,-0.0610351562,-0.4425048828
0.6174840927,-0.7353515625,0.0537109375,0.0288085938,-0.8392333984,0.2441406250,-0.2899169922
0.6200509071,-0.7314453125,0.0483398438,0.0288085938,-0.8392333984,0.2441406250,-0.2899169922
0.6226119995,-0.7314453125,0.0483398438,0.0288085938,-0.4882812500,-0.0457763672,-0.3356933594
0.6251790524,-0.7314453125,0.0483398438,0.0288085938,-0.4882812500,-0.0457763672,-0.3356933594
0.6278979778,-0.7314453125,0.0483398438,0.0312500000,-0.6713867188,-0.2441406250,-0.3204345703
0.6305909157,-0.7358398438,0.0522460938,0.0312500000,-0.6713867188,-0.2441406250,-0.3204345703
0.6332900524,-0.7358398438,0.0522460938,0.0312500000,-0.7019042969,-0.1525878906,-0.2593994141
0.6359899044,-0.7358398438,0.0522460938,0.0312500000,-0.7019042969,-0.1525878906,-0.2593994141
0.6386899948,-0.7290039062,0.0541992188,0.0175781250,-0.2593994141,0.0915527344,-0.2593994141
0.6413869858,-0.7290039062,0.0541992188,0.0175781250,-0.2593994141,0.0915527344,-0.2593994141
0.6440808773,-0.7290039062,0.0541992188,0.0175781250,-0.5340576172,0.2288818359,-0.3204345703
0.6467769146,-0.7290039062,0.0541992188,0.0175781250,-0.5340576172,0.2288818359,-0.3204345703
0.6493818760,-0.7392578125,0.0502929688,0.0307617188,-0.1831054688,-0.2288818359,-0.5187988281
0.6519460678,-0.7392578125,0.0502929688,0.0307617188,-0.1831054688,-0.2288818359,-0.5187988281
0.6545140743,-0.7392578125,0.0502929688,0.0307617188,0.0457763672,-0.4272460938,-0.4882812500
0.6570789814,-0.7392578125,0.0502929688,0.0307617188,0.0457763672,-0.4272460938,-0.4882812500
0.6597790718,-0.7294921875,0.0522460938,0.0268554688,-0.1373291016,-0.1678466797,-0.3204345703
0.6623449326,-0.7294921875,0.0522460938,0.0268554688,-0.1373291016,-0.1678466797,-0.3204345703
0.6649119854,-0.7294921875,0.0522460938,0.0268554688,-0.1373291016,0.3204345703,-0.0305175781
0.6675920486,-0.7294921875,0.0522460938,0.0268554688,-0.0762939453,0.3204345703,-0.0305175781
0.6701600552,-0.7382812500,0.0483398438,0.0273437500,-0.0762939453,0.3509521484,-0.0457763672
0.6727280617,-0.7382812500,0.0483398438,0.0273437500,-0.3204345703,0.3509521484,-0.0457763672
0.6753010750,-0.7382812500,0.0483398438,0.0273437500,-0.3204345703,0.3509521484,-0.2593994141
0.6778869629,-0.7382812500,0.0483398438,0.0273437500,-0.2899169922,-0.0762939453,-0.2593994141
0.6805889606,-0.7304687500,0.0463867188,0.0258789062,-0.2899169922,-0.0762939453,-0.2441406250
0.6832849979,-0.7304687500,0.0463867188,0.0258789062,-0.1068115234,-0.0915527344,-0.2441406250
0.6859779358,-0.7304687500,0.0463867188,0.0258789062,-0.1068115234,-0.0915527344,-0.3967285156
0.6886699200,-0.7304687500,0.0517578125,0.0371093750,-0.6103515625,0.3509521484,-0.3967285156
0.6914420128,-0.7397460938,0.0517578125,0.0371093750,-0.6103515625,0.3509521484,-0.3814697266
0.6942229271,-0.7397460938,0.0517578125,0.0371093750,-0.2136230469,0.2899169922,-0.3814697266
0.6967840195,-0.7397460938,0.0517578125,0.0371093750,-0.2136230469,0.2899169922,-0.1068115234
0.6995239258,-0.7333984375,0.0517578125,0.0302734375,0.0000000000,-0.1525878906,-0.1068115234
0.7020900249,-0.7333984375,0.0517578125,0.0302734375,0.0000000000,-0.1525878906,-0.1068115234
0.7046508789,-0.7333984375,0.0517578125,0.0302734375,-0.1373291016,0.1983642578,-0.1220703125
0.7072138786,-0.7333984375,0.0517578125,0.0302734375,-0.1373291016,0.1983642578,-0.1220703125
0.7098290920,-0.7290039062,0.0507812500,0.0253906250,-0.2136230469,0.2593994141,0.1373291016
0.7123899460,-0.7290039062,0.0507812500,0.0253906250,-0.2136230469,0.2593994141,0.1373291016
0.7149610519,-0.7290039062,0.0507812500,0.0253906250,-0.3356933594,-0.0915527344,0.0152587891
0.7175209522,-0.7290039062,0.0507812500,0.0253906250,-0.3356933594,-0.0915527344,0.0152587891
0.7200820446,-0.7407226562,0.0493164062,0.0351562500,-0.5493164062,-0.0152587891,-0.3967285156
0.7226510048,-0.7407226562,0.0493164062,0.0351562500,-0.5493164062,-0.0152587891,-0.3967285156
0.7252130508,-0.7407226562,0.0493164062,0.0351562500,-0.1068115234,-0.0762939453,-0.5340576172
0.7277979851,-0.7407226562,0.0493164062,0.0351562500,-0.1068115234,-0.0762939453,-0.5340576172
0.7303628922,-0.7343750000,0.0483398438,0.0297851562,-0.3814697266,0.2441406250,-0.2899169922
0.7329280376,-0.7343750000,0.0483398438,0.0297851562,-0.3814697266,0.2441406250,-0.2899169922
0.7354879379,-0.7343750000,0.0483398438,0.0297851562,-0.3814697266,0.0762939453,-0.5798339844
0.7380840778,-0.7343750000,0.0483398438,0.0297851562,0.1068115234,0.0762939453,-0.5798339844
0.7406480312,-0.7343750000,0.0473632812,0.0224609375,0.1068115234,0.0762939453,-0.6561279297
0.7432188988,-0.7343750000,0.0473632812,0.0224609375,0.2288818359,-0.1678466797,-0.6561279297
0.7457830906,-0.7343750000,0.0473632812,0.0224609375,0.2288818359,-0.1678466797,-0.2136230469
0.7484810352,-0.7343750000,0.0473632812,0.0224609375,-0.4425048828,0.2136230469,-0.2136230469
0.7510499954,-0.7382812500,0.0522460938,0.0332031250,-0.4425048828,0.2136230469,-0.2136230469
0.7537209988,-0.7382812500,0.0522460938,0.0332031250,-0.5340576172,0.3356933594,-0.1068115234
0.7562899590,-0.7382812500,0.0522460938,0.0332031250,-0.5340576172,0.3356933594,-0.1068115234
0.7588920593,-0.7382812500,0.0522460938,0.0317382812,-0.3662109375,0.2288818359,-0.2441406250
0.7614529133,-0.7338867188,0.0483398438,0.0317382812,-0.3662109375,0.2288818359,-0.2441406250
0.7640140057,-0.7338867188,0.0483398438,0.0317382812,0.4119873047,-0.2288818359,-0.7171630859
0.7665729523,-0.7338867188,0.0483398438,0.0317382812,0.4119873047,-0.2288818359,-0.7171630859
0.7691478729,-0.7338867188,0.0483398438,0.0307617188,-0.0915527344,0.1220703125,-0.5035400391
0.7717220783,-0.7363281250,0.0502929688,0.0307617188,-0.0915527344,0.1220703125,-0.5035400391
0.7742900848,-0.7363281250,0.0502929688,0.0307617188,0.0762939453,-0.1220703125,-0.1068115234
0.7768599987,-0.7363281250,0.0502929688,0.0307617188,0.0762939453,-0.1220703125,-0.1068115234
0.7795710564,-0.7363281250,0.0478515625,0.0166015625,-0.2288818359,-0.0305175781,-0.0457763672
0.7822670937,-0.7319335938,0.0478515625,0.0166015625,-0.2288818359,-0.0305175781,-0.0457763672
0.7849628925,-0.7319335938,0.0478515625,0.0166015625,0.1373291016,-0.0152587891,-0.2593994141
0.7879168987,-0.7319335938,0.0478515625,0.0166015625,0.1373291016,-0.0152587891,-0.2593994141
0.7905740738,-0.7338867188,0.0527343750,0.0375976562,0.4730224609,-0.3204345703,-0.2593994141
0.7940850258,-0.7338867188,0.0527343750,0.0375976562,0.4730224609,-0.3204345703,-0.2593994141
0.7966549397,-0.7338867188,0.0527343750,0.0375976562,0.1678466797,-0.1525878906,-0.1831054688
0.7992889881,-0.7338867188,0.0527343750,0.0263671875,0.1678466797,-0.1525878906,-0.1831054688
0.8018538952,-0.7373046875,0.0478515625,0.0263671875,0.1678466797,0.0610351562,-0.0762939453
0.8044140339,-0.7373046875,0.0478515625,0.0263671875,0.1678466797,0.0610351562,-0.0762939453
0.8069789410,-0.7373046875,0.0478515625,0.0263671875,0.0305175781,-0.1373291016,-0.1220703125
0.8095490932,-0.7373046875,0.0478515625,0.0341796875,0.0305175781,-0.1373291016,-0.1220703125
0.8121099472,-0.7392578125,0.0546875000,0.0341796875,0.0000000000,-0.1678466797,0.0915527344
0.8146710396,-0.7392578125,0.0546875000,0.0341796875,0.0000000000,-0.1678466797,0.0915527344
0.8173410892,-0.7392578125,0.0546875000,0.0341796875,0.0000000000,-0.1678466797,-0.5035400391
0.8199169636,-0.7392578125,0.0468750000,0.0278320312,0.1220703125,-0.1678466797,-0.5035400391
0.8224780560,-0.7377929688,0.0468750000,0.0278320312,0.1220703125,-0.1678466797,-0.7324218750
0.8250410557,-0.7377929688,0.0468750000,0.0278320312,0.2899169922,-0.3662109375,-0.7324218750
0.8276031017,-0.7377929688,0.0468750000,0.0278320312,0.2899169922,-0.3662109375,-0.3204345703
0.8301649094,-0.7377929688,0.0527343750,0.0327148438,0.3814697266,0.0305175781,-0.3204345703
0.8327240944,-0.7285156250,0.0527343750,0.0327148438,0.3814697266,0.0305175781,-0.3204345703
0.8352830410,-0.7285156250,0.0527343750,0.0327148438,-0.1220703125,-0.0305175781,-0.1983642578
0.8379139900,-0.7285156250,0.0527343750,0.0327148438,-0.1220703125,-0.0305175781,-0.1983642578
0.8404870033,-0.7285156250,0.0527343750,0.0219726562,0.0610351562,-0.4577636719,-0.7629394531
0.8430569172,-0.7373046875,0.0527343750,0.0219726562,0.0610351562,-0.4577636719,-0.7629394531
0.8456239700,-0.7373046875,0.0527343750,0.0219726562,0.3051757812,-0.5187988281,-0.6713867188
0.8482499123,-0.7373046875,0.0527343750,0.0219726562,0.3051757812,-0.5187988281,-0.6713867188
0.8509500027,-0.7348632812,0.0576171875,0.0170898438,0.3814697266,-0.3509521484,-0.6103515625
0.8536529541,-0.7348632812,0.0576171875,0.0170898438,0.3814697266,-0.3509521484,-0.6103515625
0.8563489914,-0.7348632812,0.0576171875,0.0170898438,-0.5493164062,0.2288818359,-0.1373291016
0.8589890003,-0.7348632812,0.0576171875,0.0170898438,-0.5493164062,0.2288818359,-0.1373291016
0.8615550995,-0.7368164062,0.0488281250,0.0175781250,-0.1525878906,0.1068115234,-0.1068115234
0.8641209602,-0.7368164062,0.0488281250,0.0175781250,-0.1525878906,0.1068115234,-0.1068115234
0.8666899204,-0.7368164062,0.0488281250,0.0175781250,0.2899169922,-0.4272460938,-0.6103515625
0.8694019318,-0.7368164062,0.0488281250,0.0175781250,0.2899169922,-0.4272460938,-0.6103515625
0.8720998764,-0.7368164062,0.0458984375,0.0312500000,0.1525878906,-0.2288818359,-0.6256103516
0.8747968674,-0.7368164062,0.0458984375,0.0312500000,0.1525878906,-0.2288818359,-0.6256103516
0.8775038719,-0.7368164062,0.0458984375,0.0312500000,0.1983642578,-0.1678466797,-0.4119873047
0.8803100586,-0.7368164062,0.0458984375,0.0312500000,0.1983642578,-0.1678466797,-0.4119873047
0.8830130100,-0.7363281250,0.0483398438,0.0312500000,-0.1068115234,-0.0762939453,-0.2136230469
0.8857069016,-0.7363281250,0.0483398438,0.0312500000,-0.1068115234,-0.0762939453,-0.2136230469
0.8884189129,-0.7363281250,0.0483398438,0.0312500000,-0.3051757812,0.1068115234,-0.0915527344
0.8911190033,-0.7392578125,0.0473632812,0.0244140625,-0.3051757812,0.1068115234,-0.0915527344
0.8938128948,-0.7392578125,0.0473632812,0.0244140625,-0.3356933594,-0.0610351562,0.2441406250
0.8965148926,-0.7392578125,0.0473632812,0.0244140625,-0.3356933594,-0.0610351562,0.2441406250
0.8992300034,-0.7392578125,0.0473632812,0.0244140625,-0.5950927734,-0.2441406250,-0.0305175781
0.9019229412,-0.7431640625,0.0512695312,0.0356445312,-0.5950927734,-0.2441406250,-0.0305175781
0.9047019482,-0.7431640625,0.0512695312,0.0356445312,-0.3051757812,-0.1678466797,-0.0152587891
0.9073989391,-0.7431640625,0.0512695312,0.0356445312,-0.3051757812,-0.1678466797,-0.0152587891
0.9100139141,-0.7431640625,0.0512695312,0.0356445312,0.1831054688,0.0152587891,0.3051757812
0.9125778675,-0.7353515625,0.0493164062,0.0224609375,0.1831054688,0.0152587891,0.3051757812
0.9151458740,-0.7353515625,0.0493164062,0.0224609375,0.1831054688,-0.2746582031,0.0915527344
0.9177908897,-0.7353515625,0.0493164062,0.0224609375,0.0152587891,-0.2746582031,0.0915527344
0.9204869270,-0.7353515625,0.0493164062,0.0278320312,0.0152587891,-0.2899169922,0.1525878906
0.9231829643,-0.7348632812,0.0541992188,0.0278320312,0.1373291016,-0.2899169922,0.1525878906
0.9258830547,-0.7348632812,0.0541992188,0.0278320312,0.1373291016,-0.2441406250,0.0762939453
0.9285969734,-0.7348632812,0.0541992188,0.0278320312,-0.3662109375,-0.2441406250,0.0762939453
0.9312939644,-0.7348632812,0.0527343750,0.0307617188,-0.3662109375,-0.0152587891,0.0610351562
0.9339880943,-0.7299804688,0.0527343750,0.0307617188,-0.5645751953,-0.0152587891,0.0610351562
0.9366788864,-0.7299804688,0.0527343750,0.0307617188,-0.5645751953,-0.0152587891,-0.1068115234
0.9393069744,-0.7299804688,0.0527343750,0.0307617188,-0.0152587891,-0.2593994141,-0.1068115234
0.9418740273,-0.7363281250,0.0468750000,0.0297851562,-0.0152587891,-0.2593994141,-0.1068115234
0.9445419312,-0.7363281250,0.0468750000,0.0297851562,-0.3662109375,-0.2288818359,-0.1068115234
0.9471130371,-0.7363281250,0.0468750000,0.0297851562,-0.3662109375,-0.2288818359,-0.0152587891
0.9498260021,-0.7363281250,0.0468750000,0.0297851562,-0.3204345703,0.0152587891,-0.0152587891
0.9523980618,-0.7304687500,0.0493164062,0.0170898438,-0.3204345703,0.0152587891,-0.0152587891
0.9549610615,-0.7304687500,0.0493164062,0.0170898438,-0.1831054688,-0.1373291016,-0.1525878906
0.9575948715,-0.7304687500,0.0493164062,0.0170898438,-0.1831054688,-0.1373291016,-0.1525878906
0.9601850510,-0.7304687500,0.0493164062,0.0170898438,-0.3509521484,-0.2136230469,-0.1831054688
0.9627559185,-0.7412109375,0.0468750000,0.0292968750,-0.3509521484,-0.2136230469,-0.1831054688
0.9653198719,-0.7412109375,0.0468750000,0.0292968750,-0.6408691406,0.2288818359,-0.1220703125
0.9679589272,-0.7412109375,0.0468750000,0.0292968750,-0.6408691406,0.2288818359,-0.1220703125
0.9706559181,-0.7412109375,0.0468750000,0.0292968750,-0.1678466797,0.1831054688,0.0610351562
0.9733579159,-0.7377929688,0.0493164062,0.0273437500,-0.1678466797,0.1831054688,0.0610351562
0.9760510921,-0.7377929688,0.0493164062,0.0273437500,0.1525878906,-0.0610351562,-0.0610351562
0.9787669182,-0.7377929688,0.0493164062,0.0273437500,0.1525878906,-0.0610351562,-0.0610351562
0.9814660549,-0.7377929688,0.0468750000,0.0224609375,0.1068115234,-0.5493164062,-0.7629394531
0.9841580391,-0.7392578125,0.0468750000,0.0224609375,0.1068115234,-0.5493164062,-0.7629394531
0.9868540764,-0.7392578125,0.0468750000,0.0224609375,0.3051757812,-0.3509521484,-0.4577636719
0.9895679951,-0.7392578125,0.0468750000,0.0224609375,0.3051757812,-0.3509521484,-0.4577636719
0.9922659397,-0.7353515625,0.0527343750,0.0288085938,0.2136230469,-0.5035400391,-0.0152587891
0.9949679375,-0.7353515625,0.0527343750,0.0288085938,0.2136230469,-0.5035400391,-0.0152587891
0.9975979328,-0.7353515625,0.0527343750,0.0288085938,-0.0610351562,-0.3204345703,-0.1983642578
1.0002779961,-0.7353515625,0.0527343750,0.0288085938,-0.0610351562,-0.3204345703,-0.1983642578
1.0030410290,-0.7353515625,0.0498046875,0.0346679688,-0.6256103516,-0.1831054688,0.0000000000
1.0057048798,-0.7353515625,0.0498046875,0.0346679688,-0.6256103516,-0.1831054688,0.0000000000
1.0086441040,-0.7353515625,0.0498046875,0.0346679688,-0.3509521484,-0.3662109375,-0.3509521484
1.0112118721,-0.7353515625,0.0498046875,0.0346679688,-0.3509521484,-0.3662109375,-0.3509521484
1.0137739182,-0.7319335938,0.0546875000,0.0209960938,-0.4119873047,-0.3814697266,-0.3509521484
1.0163450241,-0.7319335938,0.0546875000,0.0209960938,-0.4119873047,-0.3814697266,-0.3509521484
1.0189878941,-0.7319335938,0.0546875000,0.0209960938,0.2899169922,-0.5950927734,-0.7171630859
1.0216710567,-0.7319335938,0.0546875000,0.0336914062,0.2899169922,-0.5950927734,-0.7171630859
1.0243539810,-0.7314453125,0.0512695312,0.0336914062,0.0152587891,-0.5493164062,-0.5187988281
1.0270340443,-0.7314453125,0.0512695312,0.0336914062,0.0152587891,-0.5493164062,-0.5187988281
1.0297269821,-0.7314453125,0.0512695312,0.0336914062,-0.7324218750,-0.2441406250,-0.1525878906
1.0324099064,-0.7373046875,0.0458984375,0.0332031250,-0.7324218750,-0.2441406250,-0.1525878906
1.0350909233,-0.7373046875,0.0458984375,0.0332031250,-0.8239746094,-0.2746582031,-0.2746582031
1.0377728939,-0.7373046875,0.0458984375,0.0332031250,-0.8239746094,-0.2746582031,-0.2746582031
1.0403389931,-0.7373046875,0.0458984375,0.0332031250,-0.8239746094,-0.4425048828,-0.3356933594
1.0429060459,-0.7333984375,0.0468750000,0.0278320312,-0.6103515625,-0.4425048828,-0.3356933594
1.0454740524,-0.7333984375,0.0468750000,0.0278320312,-0.6103515625,-0.4425048828,-0.4425048828
1.0480458736,-0.7333984375,0.0468750000,0.0278320312,-0.4425048828,-0.1525878906,-0.4425048828
1.0506129265,-0.7333984375,0.0468750000,0.0278320312,-0.4425048828,-0.1525878906,-0.5950927734
1.0531799793,-0.7280273438,0.0517578125,0.0234375000,-0.4272460938,-0.3356933594,-0.5950927734
1.0557470322,-0.7280273438,0.0517578125,0.0234375000,-0.4272460938,-0.3356933594,-0.5950927734
1.0584719181,-0.7280273438,0.0517578125,0.0234375000,-0.3509521484,-0.4119873047,-0.4272460938
1.0610389709,-0.7280273438,0.0517578125,0.0234375000,-0.3509521484,-0.4119873047,-0.4272460938
1.0636038780,-0.7382812500,0.0546875000,0.0375976562,-0.5035400391,-0.4730224609,-0.1983642578
1.0661718845,-0.7382812500,0.0546875000,0.0375976562,-0.5035400391,-0.4730224609,-0.1983642578
1.0689609051,-0.7382812500,0.0546875000,0.0375976562,-0.7324218750,0.0000000000,-0.3356933594
1.0717570782,-0.7382812500,0.0546875000,0.0375976562,-0.7324218750,0.0000000000,-0.3356933594
1.0744650364,-0.7314453125,0.0468750000,0.0229492188,-0.2899169922,-0.1678466797,-0.9002685547
1.0771579742,-0.7314453125,0.0468750000,0.0229492188,-0.2899169922,-0.1678466797,-0.9002685547
1.0798630714,-0.7314453125,0.0468750000,0.0229492188,-0.0762939453,-0.2746582031,-0.5035400391
1.0825588703,-0.7314453125,0.0532226562,0.0361328125,-0.0762939453,-0.2746582031,-0.5035400391
1.0852530003,-0.7373046875,0.0532226562,0.0361328125,0.3814697266,-0.4425048828,-0.4730224609
1.0879619122,-0.7373046875,0.0532226562,0.0361328125,0.3814697266,-0.4425048828,-0.4730224609
1.0906569958,-0.7373046875,0.0532226562,0.0361328125,0.2746582031,-0.5035400391,-0.5950927734
1.0933580399,-0.7309570312,0.0527343750,0.0253906250,0.2746582031,-0.5035400391,-0.5950927734
1.0960559845,-0.7309570312,0.0527343750,0.0253906250,0.0152587891,-0.4119873047,-0.6713867188
1.0987699032,-0.7309570312,0.0527343750,0.0253906250,0.0152587891,-0.4119873047,-0.6713867188
1.1014709473,-0.7309570312,0.0527343750,0.0253906250,0.0762939453,-0.1678466797,-0.3662109375
1.1041660309,-0.7319335938,0.0478515625,0.0214843750,0.0762939453,-0.1678466797,-0.3662109375
1.1068630219,-0.7319335938,0.0478515625,0.0214843750,0.0305175781,-0.1068115234,-0.5645751953
1.1096360683,-0.7319335938,0.0478515625,0.0214843750,0.0305175781,-0.1068115234,-0.5645751953
1.1123359203,-0.7319335938,0.0478515625,0.0332031250,0.0915527344,-0.2593994141,-0.5798339844
1.1150310040,-0.7392578125,0.0473632812,0.0332031250,0.0915527344,-0.2593994141,-0.5798339844
1.1177480221,-0.7392578125,0.0473632812,0.0332031250,0.0915527344,-0.3051757812,-0.4577636719
1.1204459667,-0.7392578125,0.0473632812,0.0332031250,0.0915527344,-0.3051757812,-0.4577636719
1.1231460571,-0.7392578125,0.0517578125,0.0219726562,-0.2441406250,-0.2899169922,-0.1678466797
1.1260719299,-0.7358398438,0.0517578125,0.0219726562,-0.2441406250,-0.2899169922,-0.1678466797
1.1291100979,-0.7358398438,0.0517578125,0.0219726562,-0.3509521484,0.0305175781,-0.0152587891
1.1318030357,-0.7358398438,0.0517578125,0.0219726562,-0.3509521484,0.0305175781,-0.0152587891
1.1345009804,-0.7353515625,0.0522460938,0.0258789062,-0.4730224609,-0.2288818359,-0.2899169922
1.1371989250,-0.7353515625,0.0522460938,0.0258789062,-0.4730224609,-0.2288818359,-0.2899169922
1.1400530338,-0.7353515625,0.0522460938,0.0258789062,-0.0457763672,-0.2746582031,-0.5340576172
1.1427478790,-0.7353515625,0.0522460938,0.0195312500,-0.0457763672,-0.2746582031,-0.5340576172
1.1454470158,-0.7348632812,0.0512695312,0.0195312500,-0.2593994141,-0.1831054688,-0.3204345703
1.1481530666,-0.7348632812,0.0512695312,0.0195312500,-0.2593994141,-0.1831054688,-0.3204345703
1.1508479118,-0.7348632812,0.0512695312,0.0195312500,-0.2288818359,0.0000000000,-0.2746582031
1.1535420418,-0.7348632812,0.0502929688,0.0307617188,-0.2288818359,0.0000000000,-0.2746582031
1.1562380791,-0.7368164062,0.0502929688,0.0307617188,0.1220703125,-0.3204345703,-0.3967285156
1.1588790417,-0.7368164062,0.0502929688,0.0307617188,0.1220703125,-0.3204345703,-0.3967285156
1.1614429951,-0.7368164062,0.0502929688,0.0307617188,0.2899169922,-0.3967285156,-0.5645751953
1.1640028954,-0.7319335938,0.0463867188,0.0209960938,0.2899169922,-0.3967285156,-0.5645751953
1.1665740013,-0.7319335938,0.0463867188,0.0209960938,0.3356933594,-0.5340576172,-0.5340576172
1.1691498756,-0.7319335938,0.0463867188,0.0209960938,0.3356933594,-0.5340576172,-0.5340576172
1.1717150211,-0.7319335938,0.0463867188,0.0209960938,-0.2593994141,-0.1068115234,-0.2136230469
1.1742839813,-0.7382812500,0.0512695312,0.0190429688,-0.2593994141,-0.1068115234,-0.2136230469
1.1768538952,-0.7382812500,0.0512695312,0.0190429688,-0.3204345703,0.0305175781,-0.1525878906
1.1795809269,-0.7382812500,0.0512695312,0.0190429688,-0.3204345703,0.0305175781,-0.1525878906
1.1821510792,-0.7382812500,0.0512695312,0.0190429688,0.1220703125,-0.1678466797,-0.4730224609
1.1847119331,-0.7353515625,0.0483398438,0.0224609375,0.1220703125,-0.1678466797,-0.4730224609
1.1872830391,-0.7353515625,0.0483398438,0.0224609375,0.1220703125,-0.2441406250,-0.5340576172
1.1900930405,-0.7353515625,0.0483398438,0.0224609375,0.0305175781,-0.2441406250,-0.5340576172
1.1927940845,-0.7353515625,0.0483398438,0.0224609375,-3.8757324219,-0.0457763672,-0.4119873047
1.1954920292,-0.7338867188,0.0537109375,0.0214843750,-0.3662109375,-0.0457763672,-0.4119873047
1.1982018948,-0.7338867188,0.0537109375,0.0214843750,-0.3662109375,0.0610351562,-0.2593994141
1.2008988857,-0.7338867188,0.0537109375,0.0214843750,-0.2288818359,0.0610351562,-0.2593994141
1.2037029266,-0.7338867188,0.0478515625,0.0336914062,-0.2288818359,-0.3356933594,-0.1373291016
1.2063980103,-0.7343750000,0.0478515625,0.0336914062,-0.1678466797,-0.3356933594,-0.1373291016
1.2090659142,-0.7343750000,0.0478515625,0.0336914062,-0.1678466797,-0.3814697266,-0.3967285156
1.2116279602,-0.7343750000,0.0478515625,0.0336914062,-0.4730224609,-0.3814697266,-0.3967285156
1.2141919136,-0.7397460938,0.0507812500,0.0288085938,-0.4730224609,-0.3814697266,-0.4577636719
1.2167589664,-0.7397460938,0.0507812500,0.0288085938,-0.4882812500,-0.1068115234,-0.4577636719
1.2194449902,-0.7397460938,0.0507812500,0.0288085938,-0.4882812500,-0.1068115234,-0.4272460938
1.2221450806,-0.7397460938,0.0507812500,0.0288085938,-0.1068115234,-0.2899169922,-0.4272460938
1.2248439789,-0.7299804688,0.0468750000,0.0263671875,-0.1068115234,-0.2899169922,-0.6561279297
1.2275519371,-0.7299804688,0.0468750000,0.0263671875,0.3814697266,-0.6103515625,-0.6561279297
1.2301220894,-0.7299804688,0.0468750000,0.0263671875,0.3814697266,-0.6103515625,-0.6561279297
1.2326850891,-0.7299804688,0.0468750000,0.0263671875,-0.0915527344,-0.2593994141,-0.2899169922
1.2352490425,-0.7309570312,0.0546875000,0.0234375000,-0.0915527344,-0.2593994141,-0.2899169922
1.2378149033,-0.7309570312,0.0546875000,0.0234375000,-0.4882812500,-0.0305175781,-0.2899169922
1.2403841019,-0.7309570312,0.0546875000,0.0234375000,-0.4882812500,-0.0305175781,-0.2899169922
1.2429518700,-0.7309570312,0.0546875000,0.0234375000,-0.4882812500,0.1831054688,0.0305175781
1.2456009388,-0.7387695312,0.0517578125,0.0263671875,-0.4882812500,0.1831054688,0.0305175781
1.2481739521,-0.7387695312,0.0517578125,0.0263671875,-0.4882812500,0.1068115234,-0.2899169922
1.2507410049,-0.7387695312,0.0517578125,0.0263671875,-0.4882812500,0.1068115234,-0.2899169922
1.2533049583,-0.7387695312,0.0517578125,0.0263671875,-0.4425048828,0.0000000000,-0.7324218750
1.2558729649,-0.7250976562,0.0532226562,0.0258789062,-0.4425048828,0.0000000000,-0.7324218750
1.2584359646,-0.7250976562,0.0532226562,0.0258789062,-0.4425048828,-0.0610351562,-0.6561279297
1.2609989643,-0.7250976562,0.0532226562,0.0258789062,-0.4425048828,-0.0610351562,-0.6561279297
1.2635610104,-0.7250976562,0.0532226562,0.0258789062,-0.4425048828,-0.4119873047,-0.8087158203
1.2662289143,-0.7431640625,0.0444335938,0.0317382812,-0.0152587891,-0.4119873047,-0.8087158203
1.2688028812,-0.7431640625,0.0444335938,0.0317382812,-0.0152587891,0.0000000000,-0.7324218750
1.2713758945,-0.7431640625,0.0444335938,0.0317382812,-0.1983642578,0.0000000000,-0.7324218750
1.2739360332,-0.7431640625,0.0444335938,0.0234375000,-0.1983642578,0.0000000000,-0.7934570312
1.2765109539,-0.7358398438,0.0527343750,0.0234375000,0.0610351562,-0.0457763672,-0.7934570312
1.2791290283,-0.7358398438,0.0527343750,0.0234375000,0.0610351562,-0.0457763672,-0.7934570312
1.2816898823,-0.7358398438,0.0527343750,0.0234375000,0.1831054688,-0.5035400391,-0.6103515625
1.2842619419,-0.7358398438,0.0527343750,0.0244140625,0.1831054688,-0.5035400391,-0.6103515625
1.2868230343,-0.7377929688,0.0478515625,0.0244140625,0.1525878906,-0.1983642578,-0.5187988281
1.2894179821,-0.7377929688,0.0478515625,0.0244140625,0.1525878906,-0.1983642578,-0.5187988281
1.2919809818,-0.7377929688,0.0478515625,0.0244140625,-0.1373291016,-0.7171630859,-0.7781982422
1.2945408821,-0.7377929688,0.0463867188,0.0200195312,-0.1373291016,-0.7171630859,-0.7781982422
1.2971069813,-0.7353515625,0.0463867188,0.0200195312,0.3662109375,-0.7629394531,-0.8850097656
1.2999610901,-0.7353515625,0.0463867188,0.0200195312,0.3662109375,-0.7629394531,-0.8850097656
1.3025310040,-0.7353515625,0.0463867188,0.0200195312,0.3509521484,-0.6561279297,-0.5950927734
1.3051009178,-0.7368164062,0.0561523438,0.0283203125,0.3509521484,-0.6561279297,-0.5950927734
1.3078639507,-0.7368164062,0.0561523438,0.0283203125,0.2441406250,-0.4272460938,-0.6408691406
1.3104290962,-0.7368164062,0.0561523438,0.0283203125,0.2441406250,-0.4272460938,-0.6408691406
1.3130788803,-0.7368164062,0.0561523438,0.0283203125,-0.2593994141,0.0762939453,-0.2899169922
1.3156490326,-0.7387695312,0.0493164062,0.0302734375,-0.2593994141,0.0762939453,-0.2899169922
1.3189580441,-0.7387695312,0.0493164062,0.0302734375,-0.2746582031,0.0457763672,-0.3662109375
1.3215279579,-0.7387695312,0.0493164062,0.0302734375,-0.2746582031,0.0457763672,-0.3662109375
1.3240931034,-0.7387695312,0.0493164062,0.0302734375,0.2288818359,-0.0915527344,-0.5645751953
1.3266530037,-0.7338867188,0.0493164062,0.0292968750,0.2288818359,-0.0915527344,-0.5645751953
1.3293979168,-0.7338867188,0.0493164062,0.0292968750,0.5035400391,-0.4119873047,-0.8239746094
1.3319668770,-0.7338867188,0.0493164062,0.0292968750,0.5035400391,-0.4119873047,-0.8239746094
1.3345310688,-0.7338867188,0.0493164062,0.0302734375,0.0762939453,-0.1068115234,-0.9765625000
1.3370928764,-0.7373046875,0.0478515625,0.0302734375,0.0762939453,-0.1068115234,-0.9765625000
1.3396821022,-0.7373046875,0.0478515625,0.0302734375,-3.8299560547,-0.4730224609,-0.8544921875
1.3422470093,-0.7373046875,0.0478515625,0.0302734375,-0.0457763672,-0.4730224609,-0.8544921875
1.3448109627,-0.7373046875,0.0478515625,0.0166015625,-0.0457763672,-0.4730224609,-0.7019042969
1.3473758698,-0.7319335938,0.0546875000,0.0166015625,-0.1831054688,-0.4882812500,-0.7019042969
1.3499460220,-0.7319335938,0.0546875000,0.0166015625,-0.1831054688,-0.4882812500,-0.7629394531
1.3525099754,-0.7319335938,0.0546875000,0.0166015625,-0.1831054688,-0.0152587891,-0.7629394531
1.3550710678,-0.7319335938,0.0546875000,0.0332031250,-0.1831054688,-0.0152587891,-0.7629394531
1.3576939106,-0.7343750000,0.0517578125,0.0332031250,0.3662109375,-0.2288818359,-1.2207031250
1.3602600098,-0.7343750000,0.0517578125,0.0332031250,0.3662109375,-0.2288818359,-1.2207031250
1.3628189564,-0.7343750000,0.0517578125,0.0332031250,0.5493164062,-0.5645751953,-1.3275146484
1.3653769493,-0.7343750000,0.0473632812,0.0273437500,0.5493164062,-0.5645751953,-1.3275146484
1.3680920601,-0.7368164062,0.0473632812,0.0273437500,0.4272460938,-0.6866455078,-0.8239746094
1.3706610203,-0.7368164062,0.0473632812,0.0273437500,0.4272460938,-0.6866455078,-0.8239746094
1.3732299805,-0.7368164062,0.0473632812,0.0273437500,0.0305175781,-0.3051757812,-0.9002685547
1.3757979870,-0.7377929688,0.0493164062,0.0283203125,0.0305175781,-0.3051757812,-0.9002685547
1.3784859180,-0.7377929688,0.0493164062,0.0283203125,-0.2441406250,-0.0152587891,-0.8392333984
1.3811869621,-0.7377929688,0.0493164062,0.0283203125,-0.2441406250,-0.0152587891,-0.8392333984
1.3838860989,-0.7377929688,0.0493164062,0.0283203125,0.0762939453,-0.3051757812,-1.1444091797
1.3865749836,-0.7338867188,0.0502929688,0.0175781250,0.0762939453,-0.3051757812,-1.1444091797
1.3892760277,-0.7338867188,0.0502929688,0.0175781250,-0.1068115234,-0.3814697266,-1.1138916016
1.3920800686,-0.7338867188,0.0502929688,0.0175781250,-0.1068115234,-0.3814697266,-1.1138916016
1.3947780132,-0.7338867188,0.0502929688,0.0175781250,-0.3051757812,-0.1678466797,-1.2207031250
1.3974890709,-0.7382812500,0.0522460938,0.0336914062,-0.3051757812,-0.1678466797,-1.2207031250
1.4001848698,-0.7382812500,0.0522460938,0.0336914062,0.0915527344,-0.4882812500,-1.3580322266
1.4028840065,-0.7382812500,0.0522460938,0.0336914062,0.0915527344,-0.4882812500,-1.3580322266
1.4055809975,-0.7382812500,0.0449218750,0.0268554688,-0.0915527344,-0.3204345703,-1.2817382812
1.4082438946,-0.7348632812,0.0449218750,0.0268554688,-0.0915527344,-0.3204345703,-1.2817382812
1.4108090401,-0.7348632812,0.0449218750,0.0268554688,-0.1373291016,-0.6103515625,-1.2207031250
1.4133810997,-0.7348632812,0.0449218750,0.0268554688,-0.1373291016,-0.6103515625,-1.2207031250
1.4159488678,-0.7348632812,0.0502929688,0.0278320312,-0.1373291016,-0.1831054688,-1.0223388672
1.4185938835,-0.7368164062,0.0502929688,0.0278320312,-0.4425048828,-0.1831054688,-1.0223388672
1.4212920666,-0.7368164062,0.0502929688,0.0278320312,3.4637451172,0.0152587891,-0.9460449219
1.4239909649,-0.7368164062,0.0502929688,0.0278320312,0.0305175781,0.0152587891,-0.9460449219
1.4266910553,-0.7363281250,0.0468750000,0.0253906250,0.0305175781,-0.3051757812,-0.8697509766
1.4294018745,-0.7363281250,0.0468750000,0.0253906250,0.2746582031,-0.3051757812,-0.8697509766
1.4321038723,-0.7363281250,0.0468750000,0.0253906250,0.2746582031,-0.3204345703,-0.5798339844
1.4348709583,-0.7363281250,0.0468750000,0.0253906250,0.4577636719,-0.3204345703,-0.5798339844
1.4379510880,-0.7363281250,0.0429687500,0.0312500000,0.1525878906,-0.4272460938,-0.7934570312
1.4406549931,-0.7363281250,0.0429687500,0.0312500000,0.1525878906,-0.4272460938,-0.7934570312
1.4433538914,-0.7363281250,0.0429687500,0.0312500000,0.2288818359,-0.5798339844,-0.9155273438
1.4460499287,-0.7363281250,0.0473632812,0.0317382812,0.2288818359,-0.5798339844,-0.9155273438
1.4487559795,-0.7333984375,0.0473632812,0.0317382812,0.5493164062,-0.0915527344,-0.9002685547
1.4514529705,-0.7333984375,0.0473632812,0.0317382812,0.5493164062,-0.0915527344,-0.9002685547
1.4541490078,-0.7333984375,0.0473632812,0.0317382812,0.2899169922,0.1678466797,-0.6713867188
1.4569580555,-0.7392578125,0.0478515625,0.0229492188,0.2899169922,0.1678466797,-0.6713867188
1.4595680237,-0.7392578125,0.0478515625,0.0229492188,0.2899169922,-0.1525878906,-0.2746582031
1.4621369839,-0.7392578125,0.0478515625,0.0229492188,0.2746582031,-0.1525878906,-0.2746582031
1.4646999836,-0.7392578125,0.0478515625,0.0229492188,0.2746582031,-0.1525878906,-0.1983642578
1.4672629833,-0.7319335938,0.0502929688,0.0219726562,-0.0457763672,-0.3051757812,-0.1983642578
1.4698760509,-0.7319335938,0.0502929688,0.0219726562,-0.0457763672,-0.3051757812,-0.2136230469
1.4724650383,-0.7319335938,0.0502929688,0.0219726562,-0.1831054688,-0.2593994141,-0.2136230469
1.4752459526,-0.7319335938,0.0502929688,0.0219726562,-0.1831054688,-0.2593994141,-0.5187988281
1.4778220654,-0.7280273438,0.0424804688,0.0175781250,-0.0305175781,-0.3356933594,-0.5187988281
1.4803960323,-0.7280273438,0.0424804688,0.0175781250,-0.0305175781,-0.3356933594,-0.5187988281
1.4829640388,-0.7280273438,0.0424804688,0.0175781250,-0.3814697266,-0.0305175781,-0.5798339844
1.4855320454,-0.7280273438,0.0424804688,0.0175781250,-0.3814697266,-0.0305175781,-0.5798339844
1.4882609844,-0.7353515625,0.0463867188,0.0219726562,-0.1831054688,-0.2899169922,-0.4882812500
1.4908280373,-0.7353515625,0.0463867188,0.0219726562,-0.1831054688,-0.2899169922,-0.4882812500
1.4933969975,-0.7353515625,0.0463867188,0.0219726562,-0.0152587891,-0.3509521484,-0.3509521484
1.4959630966,-0.7353515625,0.0463867188,0.0219726562,-0.0152587891,-0.3509521484,-0.3509521484
1.4986860752,-0.7382812500,0.0454101562,0.0278320312,-0.3204345703,-0.3662109375,0.0762939453
1.5013899803,-0.7382812500,0.0454101562,0.0278320312,-0.3204345703,-0.3662109375,0.0762939453
1.5040919781,-0.7382812500,0.0454101562,0.0278320312,-0.1831054688,-0.4730224609,-0.1068115234
1.5067870617,-0.7382812500,0.0483398438,0.0307617188,-0.1831054688,-0.4730224609,-0.1068115234
1.5093910694,-0.7373046875,0.0483398438,0.0307617188,-0.2288818359,-0.3051757812,-0.1525878906
1.5119559765,-0.7373046875,0.0483398438,0.0307617188,-0.2288818359,-0.3051757812,-0.1525878906
1.5145270824,-0.7373046875,0.0483398438,0.0307617188,0.1678466797,-0.1220703125,-0.5035400391
1.5170910358,-0.7373046875,0.0429687500,0.0263671875,0.1678466797,-0.1220703125,-0.5035400391
1.5199100971,-0.7246093750,0.0429687500,0.0263671875,0.0457763672,0.0000000000,0.0305175781
1.5226080418,-0.7246093750,0.0429687500,0.0263671875,0.0457763672,0.0000000000,0.0305175781
1.5253019333,-0.7246093750,0.0429687500,0.0263671875,-0.1220703125,-0.1831054688,0.0762939453
1.5280139446,-0.7338867188,0.0512695312,0.0205078125,-0.1220703125,-0.1831054688,0.0762939453
1.5307118893,-0.7338867188,0.0512695312,0.0205078125,0.0762939453,-0.3051757812,-0.3509521484
1.5334129333,-0.7338867188,0.0512695312,0.0205078125,0.0762939453,-0.3051757812,-0.3509521484
1.5361070633,-0.7338867188,0.0512695312,0.0205078125,-0.0610351562,-0.3814697266,-0.2899169922
1.5388200283,-0.7348632812,0.0522460938,0.0180664062,-0.0610351562,-0.3814697266,-0.2899169922
1.5415220261,-0.7348632812,0.0522460938,0.0180664062,-0.5035400391,-0.2746582031,-0.1220703125
1.5442209244,-0.7348632812,0.0522460938,0.0180664062,-0.5035400391,-0.2746582031,-0.1220703125
1.5469200611,-0.7348632812,0.0522460938,0.0297851562,-0.5035400391,-0.2136230469,0.0000000000
1.5496320724,-0.7407226562,0.0507812500,0.0297851562,-0.5035400391,-0.2136230469,0.0000000000
1.5523369312,-0.7407226562,0.0507812500,0.0297851562,-0.6866455078,0.0762939453,0.1525878906
1.5551650524,-0.7407226562,0.0507812500,0.0297851562,-0.6866455078,0.0762939453,0.1525878906
1.5579628944,-0.7426757812,0.0488281250,0.0332031250,-0.6408691406,-0.1678466797,-0.1220703125
1.5605530739,-0.7426757812,0.0488281250,0.0332031250,-0.6408691406,-0.1678466797,-0.1220703125
1.5631229877,-0.7426757812,0.0488281250,0.0332031250,-0.7019042969,-0.1373291016,-0.2136230469
1.5656900406,-0.7426757812,0.0488281250,0.0332031250,-0.7019042969,-0.1373291016,-0.2136230469
1.5683450699,-0.7338867188,0.0488281250,0.0219726562,-0.7019042969,-0.0915527344,-0.0915527344
1.5710430145,-0.7338867188,0.0488281250,0.0219726562,-0.5035400391,-0.0915527344,-0.0915527344
1.5737419128,-0.7338867188,0.0488281250,0.0219726562,-0.5035400391,-0.0457763672,-0.3509521484
1.5764410496,-0.7338867188,0.0488281250,0.0219726562,-0.2746582031,-0.0457763672,-0.3509521484
1.5791549683,-0.7324218750,0.0498046875,0.0214843750,3.6315917969,-0.3814697266,-0.1678466797
1.5818500519,-0.7324218750,0.0498046875,0.0214843750,0.0152587891,-0.3814697266,-0.1678466797
1.5846519470,-0.7324218750,0.0498046875,0.0214843750,-3.8909912109,-0.2899169922,0.0610351562
1.5873529911,-0.7324218750,0.0498046875,0.0278320312,-0.2593994141,-0.2899169922,0.0610351562
1.5899429321,-0.7324218750,0.0488281250,0.0278320312,-0.2593994141,-0.1983642578,-0.0305175781
1.5925149918,-0.7324218750,0.0488281250,0.0278320312,-0.3814697266,-0.1983642578,-0.0305175781
1.5950748920,-0.7324218750,0.0488281250,0.0278320312,-0.3814697266,-0.1983642578,-0.2746582031
1.5976960659,-0.7324218750,0.0483398438,0.0253906250,-0.3509521484,-0.2746582031,-0.2746582031
1.6002669334,-0.7387695312,0.0483398438,0.0253906250,-0.3509521484,-0.2746582031,-0.2746582031
1.6028339863,-0.7387695312,0.0483398438,0.0253906250,-0.2593994141,-0.3967285156,-0.6256103516
1.6053979397,-0.7387695312,0.0483398438,0.0253906250,-0.2593994141,-0.3967285156,-0.6256103516
1.6080830097,-0.7324218750,0.0551757812,0.0244140625,-0.1068115234,-0.1220703125,-0.4119873047
1.6106529236,-0.7324218750,0.0551757812,0.0244140625,-0.1068115234,-0.1220703125,-0.4119873047
1.6132159233,-0.7324218750,0.0551757812,0.0244140625,-0.1678466797,-0.5493164062,-0.3509521484
1.6157860756,-0.7324218750,0.0551757812,0.0244140625,-0.1678466797,-0.5493164062,-0.3509521484
1.6184840202,-0.7421875000,0.0468750000,0.0273437500,0.2136230469,-0.5340576172,-0.5645751953
1.6211829185,-0.7421875000,0.0468750000,0.0273437500,0.2136230469,-0.5340576172,-0.5645751953
1.6238789558,-0.7421875000,0.0468750000,0.0273437500,0.5798339844,-0.5645751953,-0.4577636719
1.6265749931,-0.7421875000,0.0468750000,0.0273437500,0.5798339844,-0.5645751953,-0.4577636719
1.6292738914,-0.7377929688,0.0483398438,0.0268554688,0.0305175781,-0.3967285156,-0.5187988281
1.6319758892,-0.7377929688,0.0483398438,0.0268554688,0.0305175781,-0.3967285156,-0.5187988281
1.6346740723,-0.7377929688,0.0483398438,0.0268554688,-0.1983642578,-0.5645751953,-0.5950927734
1.6373710632,-0.7377929688,0.0483398438,0.0268554688,-0.1983642578,-0.5645751953,-0.5950927734
1.6400740147,-0.7382812500,0.0424804688,0.0356445312,-0.6561279297,-0.4272460938,-0.3204345703
1.6427788734,-0.7382812500,0.0424804688,0.0356445312,-0.6561279297,-0.4272460938,-0.3204345703
1.6454739571,-0.7382812500,0.0424804688,0.0356445312,-0.4425048828,-0.3051757812,-0.0915527344
1.6482620239,-0.7382812500,0.0468750000,0.0263671875,-0.4425048828,-0.3051757812,-0.0915527344
1.6508309841,-0.7280273438,0.0468750000,0.0263671875,-0.2899169922,-0.3967285156,-0.2288818359
1.6533980370,-0.7280273438,0.0468750000,0.0263671875,-0.2899169922,-0.3967285156,-0.2288818359
1.6559588909,-0.7280273438,0.0468750000,0.0263671875,-0.4119873047,-0.1831054688,-0.1373291016
1.6585950851,-0.7358398438,0.0527343750,0.0268554688,-0.4119873047,-0.1831054688,-0.1373291016
1.6612930298,-0.7358398438,0.0527343750,0.0268554688,-0.5493164062,-0.1068115234,-0.2136230469
1.6639950275,-0.7358398438,0.0527343750,0.0268554688,-0.5493164062,-0.1068115234,-0.2136230469
1.6666939259,-0.7358398438,0.0527343750,0.0268554688,-0.2441406250,-0.2288818359,-0.1373291016
1.6694059372,-0.7363281250,0.0468750000,0.0297851562,-0.2441406250,-0.2288818359,-0.1373291016
1.6721019745,-0.7363281250,0.0468750000,0.0297851562,0.1831054688,-0.5035400391,-0.2288818359
1.6749930382,-0.7363281250,0.0468750000,0.0297851562,0.1831054688,-0.5035400391,-0.2288818359
1.6781530380,-0.7363281250,0.0468750000,0.0351562500,-0.2441406250,-0.3356933594,-0.0915527344
1.6808509827,-0.7397460938,0.0415039062,0.0351562500,-0.2441406250,-0.3356933594,-0.0915527344
1.6835520267,-0.7397460938,0.0415039062,0.0351562500,-0.6256103516,-0.2288818359,0.0152587891
1.6862509251,-0.7397460938,0.0415039062,0.0351562500,-0.6256103516,-0.2288818359,0.0152587891
1.6889610291,-0.7353515625,0.0473632812,0.0268554688,0.1831054688,-0.4577636719,-0.1678466797
1.6916620731,-0.7353515625,0.0473632812,0.0268554688,0.1831054688,-0.4577636719,-0.1678466797
1.6943609715,-0.7353515625,0.0473632812,0.0268554688,0.4272460938,-0.5950927734,-0.4119873047
1.6970579624,-0.7353515625,0.0473632812,0.0268554688,0.4272460938,-0.5950927734,-0.4119873047
1.6996569633,-0.7387695312,0.0527343750,0.0185546875,-0.3356933594,-0.0457763672,-0.2593994141
1.7022209167,-0.7387695312,0.0527343750,0.0185546875,-0.3356933594,-0.0457763672,-0.2593994141
1.7047898769,-0.7387695312,0.0527343750,0.0185546875,-0.1525878906,0.0000000000,-0.0305175781
1.7073600292,-0.7387695312,0.0527343750,0.0185546875,-0.1525878906,0.0000000000,-0.0305175781
1.7105250359,-0.7373046875,0.0473632812,0.0366210938,-0.0305175781,0.0457763672,-0.1220703125
1.7131960392,-0.7373046875,0.0473632812,0.0366210938,-0.0305175781,0.0457763672,-0.1220703125
1.7157630920,-0.7373046875,0.0473632812,0.0366210938,-0.2136230469,0.0457763672,-0.1220703125
1.7183859348,-0.7373046875,0.0473632812,0.0302734375,-0.2136230469,0.0457763672,-0.1220703125
1.7209479809,-0.7382812500,0.0463867188,0.0302734375,0.1525878906,-0.1068115234,-0.1525878906
1.7235059738,-0.7382812500,0.0463867188,0.0302734375,0.1525878906,-0.1068115234,-0.1525878906
1.7260730267,-0.7382812500,0.0463867188,0.0302734375,-3.7536621094,0.0152587891,-0.2746582031
1.7286880016,-0.7382812500,0.0463867188,0.0288085938,-0.3814697266,0.0152587891,-0.2746582031
1.7312519550,-0.7377929688,0.0444335938,0.0288085938,-0.3814697266,-3.8909912109,-0.2441406250
1.7338259220,-0.7377929688,0.0444335938,0.0288085938,-0.2746582031,-0.1831054688,-0.2441406250
1.7363910675,-0.7377929688,0.0444335938,0.0288085938,-0.2746582031,-0.1831054688,-0.3509521484
1.7389628887,-0.7377929688,0.0473632812,0.0151367188,-0.1068115234,-0.2288818359,-0.3509521484
1.7415239811,-0.7324218750,0.0473632812,0.0151367188,-0.1068115234,-0.2288818359,-0.3509521484
1.7440879345,-0.7324218750,0.0473632812,0.0151367188,-0.0457763672,-0.3051757812,-0.3967285156
1.7466559410,-0.7324218750,0.0473632812,0.0151367188,-0.0457763672,-0.3051757812,-0.3967285156
1.7492620945,-0.7324218750,0.0449218750,0.0234375000,-0.3662109375,-0.1678466797,-0.0610351562
1.7518289089,-0.7358398438,0.0449218750,0.0234375000,-0.3662109375,-0.1678466797,-0.0610351562
1.7543969154,-0.7358398438,0.0449218750,0.0234375000,-0.2593994141,-0.2593994141,-0.2441406250
1.7569620609,-0.7358398438,0.0449218750,0.0234375000,-0.2593994141,-0.2593994141,-0.2441406250
1.7597179413,-0.7373046875,0.0444335938,0.0297851562,-0.4425048828,-0.3356933594,-0.1525878906
1.7622818947,-0.7373046875,0.0444335938,0.0297851562,-0.4425048828,-0.3356933594,-0.1525878906
1.7648470402,-0.7373046875,0.0444335938,0.0297851562,-0.4882812500,-0.3509521484,-0.1831054688
1.7675640583,-0.7373046875,0.0444335938,0.0297851562,-0.4882812500,-0.3509521484,-0.1831054688
1.7702560425,-0.7333984375,0.0488281250,0.0234375000,-0.0915527344,0.0457763672,0.1983642578
1.7729539871,-0.7333984375,0.0488281250,0.0234375000,-0.0915527344,0.0457763672,0.1983642578
1.7756550312,-0.7333984375,0.0488281250,0.0234375000,-0.4272460938,-0.0915527344,0.0610351562
1.7784659863,-0.7333984375,0.0488281250,0.0234375000,-0.4272460938,-0.0915527344,0.0610351562
1.7811660767,-0.7480468750,0.0541992188,0.0361328125,-0.5950927734,-0.2441406250,-0.0305175781
1.7838599682,-0.7480468750,0.0541992188,0.0361328125,-0.5950927734,-0.2441406250,-0.0305175781
1.7865550518,-0.7480468750,0.0541992188,0.0361328125,-0.1831054688,-0.5035400391,-0.0152587891
1.7892649174,-0.7480468750,0.0541992188,0.0209960938,-0.1831054688,-0.5035400391,-0.0152587891
1.7919619083,-0.7373046875,0.0507812500,0.0209960938,-0.2441406250,-0.2746582031,-0.0305175781
1.7946579456,-0.7373046875,0.0507812500,0.0209960938,-0.2441406250,-0.2746582031,-0.0305175781
1.7973620892,-0.7373046875,0.0507812500,0.0209960938,-0.3204345703,-0.2136230469,-0.1678466797
1.7999439240,-0.7373046875,0.0498046875,0.0327148438,-0.3204345703,-0.2136230469,-0.1678466797
1.8025140762,-0.7377929688,0.0498046875,0.0327148438,-0.2441406250,-0.4730224609,-0.0915527344
1.8050780296,-0.7377929688,0.0498046875,0.0327148438,-0.2441406250,-0.4730224609,-0.0915527344
1.8077189922,-0.7377929688,0.0498046875,0.0327148438,-0.2441406250,-0.1831054688,-0.3356933594
1.8104059696,-0.7348632812,0.0458984375,0.0205078125,-0.2899169922,-0.1831054688,-0.3356933594
1.8130850792,-0.7348632812,0.0458984375,0.0205078125,-0.2899169922,-0.5798339844,-0.4577636719
1.8157620430,-0.7348632812,0.0458984375,0.0205078125,-0.2593994141,-0.5798339844,-0.4577636719
1.8184549809,-0.7348632812,0.0458984375,0.0205078125,-0.2593994141,-0.3204345703,-0.1220703125
1.8211379051,-0.7348632812,0.0488281250,0.0185546875,-0.1831054688,-0.3204345703,-0.1220703125
1.8239150047,-0.7348632812,0.0488281250,0.0185546875,-0.1831054688,-0.2441406250,0.3814697266
1.8266179562,-0.7348632812,0.0488281250,0.0185546875,0.2441406250,-0.2441406250,0.3814697266
1.8293600082,-0.7348632812,0.0488281250,0.0317382812,0.2441406250,-0.3356933594,0.1831054688
1.8320560455,-0.7373046875,0.0502929688,0.0317382812,-0.0915527344,-0.3356933594,0.1831054688
1.8347470760,-0.7373046875,0.0502929688,0.0317382812,-0.0915527344,-0.5187988281,0.0457763672
1.8374509811,-0.7373046875,0.0502929688,0.0317382812,-0.6256103516,-0.5187988281,0.0457763672
1.8401529789,-0.7373046875,0.0458984375,0.0253906250,-0.6256103516,-0.5187988281,-0.0610351562
1.8429529667,-0.7343750000,0.0458984375,0.0253906250,-0.7171630859,-0.5035400391,-0.0610351562
1.8456549644,-0.7343750000,0.0458984375,0.0253906250,-0.7171630859,-0.6256103516,-0.3509521484
1.8483679295,-0.7343750000,0.0458984375,0.0253906250,-0.4119873047,-0.6256103516,-0.3509521484
1.8510670662,-0.7382812500,0.0449218750,0.0278320312,-0.4119873047,-0.3814697266,-0.3814697266
1.8537669182,-0.7382812500,0.0449218750,0.0278320312,-0.5798339844,-0.3814697266,-0.3814697266
1.8564600945,-0.7382812500,0.0449218750,0.0278320312,-0.5798339844,-0.3814697266,-0.2441406250
1.8590879440,-0.7382812500,0.0449218750,0.0278320312,-0.1831054688,-0.3051757812,-0.2441406250
1.8616530895,-0.7387695312,0.0463867188,0.0268554688,-0.1831054688,-0.3051757812,-0.2288818359
1.8642199039,-0.7387695312,0.0463867188,0.0268554688,-0.0610351562,-0.5645751953,-0.2288818359
1.8667829037,-0.7387695312,0.0463867188,0.0268554688,-0.0610351562,-0.5645751953,-0.2288818359
1.8694829941,-0.7387695312,0.0463867188,0.0268554688,-0.6866455078,-0.0152587891,-0.2136230469
1.8720428944,-0.7407226562,0.0468750000,0.0273437500,-0.6866455078,-0.0152587891,-0.2136230469
1.8746030331,-0.7407226562,0.0468750000,0.0273437500,-0.4425048828,-0.3509521484,-0.3814697266
1.8771669865,-0.7407226562,0.0468750000,0.0273437500,-0.4425048828,-0.3509521484,-0.3814697266
1.8799350262,-0.7407226562,0.0468750000,0.0214843750,-0.8087158203,-0.2441406250,-0.4272460938
1.8826339245,-0.7353515625,0.0507812500,0.0214843750,-0.8087158203,-0.2441406250,-0.4272460938
1.8853290081,-0.7353515625,0.0507812500,0.0214843750,-0.1831054688,-0.2593994141,-0.1678466797
1.8880200386,-0.7353515625,0.0507812500,0.0214843750,-0.1831054688,-0.2593994141,-0.1678466797
1.8905889988,-0.7353515625,0.0478515625,0.0278320312,-0.6103515625,-0.0762939453,-0.1983642578
1.8931510448,-0.7329101562,0.0478515625,0.0278320312,-0.6103515625,-0.0762939453,-0.1983642578
1.8957130909,-0.7329101562,0.0478515625,0.0278320312,-0.8544921875,-0.0305175781,-0.1678466797
1.8983678818,-0.7329101562,0.0478515625,0.0278320312,-0.8544921875,-0.0305175781,-0.1678466797
1.9010620117,-0.7416992188,0.0473632812,0.0302734375,-0.7934570312,-0.2288818359,-0.4425048828
1.9037590027,-0.7416992188,0.0473632812,0.0302734375,-0.7934570312,-0.2288818359,-0.4425048828
1.9065649509,-0.7416992188,0.0473632812,0.0302734375,-0.4119873047,-0.1068115234,-0.1525878906
1.9092650414,-0.7416992188,0.0473632812,0.0302734375,-0.4119873047,-0.1068115234,-0.1525878906
1.9119620323,-0.7314453125,0.0551757812,0.0175781250,-0.2899169922,-0.3356933594,-0.1525878906
1.9146599770,-0.7314453125,0.0551757812,0.0175781250,-0.2899169922,-0.3356933594,-0.1525878906
1.9173569679,-0.7314453125,0.0551757812,0.0175781250,-0.1220703125,-0.1831054688,-0.3204345703
1.9200608730,-0.7314453125,0.0551757812,0.0175781250,-0.1220703125,-0.1831054688,-0.3204345703
1.9227590561,-0.7348632812,0.0512695312,0.0302734375,0.0152587891,0.1068115234,-0.3051757812
1.9254479408,-0.7348632812,0.0512695312,0.0302734375,0.0152587891,0.1068115234,-0.3051757812
1.9281549454,-0.7348632812,0.0512695312,0.0302734375,0.1831054688,-0.2593994141,-0.2441406250
1.9308490753,-0.7348632812,0.0498046875,0.0292968750,0.1831054688,-0.2593994141,-0.2441406250
1.9335448742,-0.7324218750,0.0498046875,0.0292968750,0.3204345703,-0.5035400391,-0.2899169922
1.9362370968,-0.7324218750,0.0498046875,0.0292968750,0.3204345703,-0.5035400391,-0.2899169922
1.9388780594,-0.7324218750,0.0498046875,0.0292968750,0.0457763672,-0.7324218750,-0.2136230469
1.9414420128,-0.7294921875,0.0449218750,0.0292968750,0.0457763672,-0.7324218750,-0.2136230469
1.9440069199,-0.7294921875,0.0449218750,0.0292968750,-0.6256103516,-0.3356933594,-0.0762939453
1.9465699196,-0.7294921875,0.0449218750,0.0292968750,-0.6256103516,-0.3356933594,-0.0762939453
1.9492518902,-0.7294921875,0.0449218750,0.0292968750,-0.6256103516,-0.2593994141,0.0610351562
1.9519500732,-0.7338867188,0.0527343750,0.0307617188,-0.6103515625,-0.2593994141,0.0610351562
1.9546499252,-0.7338867188,0.0527343750,0.0307617188,-0.6103515625,-0.2593994141,0.0152587891
1.9573459625,-0.7338867188,0.0527343750,0.0307617188,-0.2899169922,-0.2593994141,0.0152587891
1.9600520134,-0.7338867188,0.0527343750,0.0307617188,-0.2899169922,-0.3204345703,-0.0762939453
1.9627420902,-0.7314453125,0.0493164062,0.0258789062,-0.3662109375,-0.3204345703,-0.0762939453
1.9654328823,-0.7314453125,0.0493164062,0.0258789062,-0.3662109375,-0.1831054688,0.0305175781
1.9681429863,-0.7314453125,0.0493164062,0.0258789062,-0.4425048828,-0.1831054688,0.0305175781
1.9709420204,-0.7314453125,0.0493164062,0.0341796875,-0.4425048828,-0.0152587891,-0.0610351562
1.9736390114,-0.7358398438,0.0488281250,0.0341796875,-0.7171630859,-0.0152587891,-0.0610351562
1.9763369560,-0.7358398438,0.0488281250,0.0341796875,-0.7171630859,-0.2441406250,0.0915527344
1.9790470600,-0.7358398438,0.0488281250,0.0341796875,-0.9002685547,-0.2441406250,0.0915527344
1.9817409515,-0.7358398438,0.0439453125,0.0249023438,-0.9002685547,-0.2593994141,0.0152587891
1.9844379425,-0.7363281250,0.0439453125,0.0249023438,-0.9307861328,-0.2593994141,0.0152587891
1.9871330261,-0.7363281250,0.0439453125,0.0249023438,-0.9307861328,-0.2593994141,-0.1678466797
1.9897289276,-0.7363281250,0.0439453125,0.0249023438,-0.3662109375,-0.7324218750,-0.1678466797
1.9922900200,-0.7436523438,0.0483398438,0.0273437500,-0.3662109375,-0.7324218750,-0.1831054688
1.9948549271,-0.7436523438,0.0483398438,0.0273437500,-0.4119873047,-0.5340576172,-0.1831054688
1.9974648952,-0.7436523438,0.0483398438,0.0273437500,-0.4119873047,-0.5340576172,3.7231445312
2.0001618862,-0.7436523438,0.0483398438,0.0273437500,-1.1138916016,-0.5035400391,0.0000000000
2.0028610229,-0.7348632812,0.0458984375,0.0307617188,-1.1138916016,-0.5035400391,0.0000000000
2.0055589676,-0.7348632812,0.0458984375,0.0307617188,-0.8697509766,-0.4577636719,0.1831054688
2.0082590580,-0.7348632812,0.0458984375,0.0307617188,-0.8697509766,-0.4577636719,0.1831054688
2.0109510422,-0.7348632812,0.0458984375,0.0307617188,-0.4882812500,-0.1678466797,0.2136230469
2.0136489868,-0.7412109375,0.0522460938,0.0322265625,-0.4882812500,-0.1678466797,-3.6926269531
2.0163400173,-0.7412109375,0.0522460938,0.0322265625,-0.3356933594,-0.0457763672,-0.2593994141
2.0190460682,-0.7412109375,0.0522460938,0.0322265625,-0.3356933594,-0.0457763672,-0.2593994141
2.0217390060,-0.7412109375,0.0498046875,0.0297851562,-0.0762939453,-0.1678466797,-0.3204345703
2.0244369507,-0.7373046875,0.0498046875,0.0297851562,-0.0762939453,-0.1678466797,-0.3204345703
2.0271360874,-0.7373046875,0.0498046875,0.0297851562,-0.1525878906,-0.0610351562,-0.1373291016
2.0297329426,-0.7373046875,0.0498046875,0.0297851562,-0.1525878906,-0.0610351562,-0.1373291016
2.0322999954,-0.7431640625,0.0532226562,0.0341796875,-0.3204345703,0.2136230469,-0.0610351562
2.0349678993,-0.7431640625,0.0532226562,0.0341796875,-0.3204345703,0.2136230469,-0.0610351562
2.0376000404,-0.7431640625,0.0532226562,0.0341796875,0.0152587891,-0.3051757812,-0.0610351562
2.0402710438,-0.7431640625,0.0532226562,0.0341796875,0.0152587891,-0.3051757812,-0.0610351562
2.0429229736,-0.7382812500,0.0527343750,0.0317382812,0.4425048828,-0.5035400391,0.0000000000
2.0455799103,-0.7382812500,0.0527343750,0.0317382812,0.4425048828,-0.5035400391,0.0000000000
2.0482580662,-0.7382812500,0.0527343750,0.0317382812,0.0610351562,-0.3967285156,0.2288818359
2.0509588718,-0.7382812500,0.0527343750,0.0317382812,0.0610351562,-0.3967285156,0.2288818359
2.0536549091,-0.7353515625,0.0478515625,0.0400390625,-0.2899169922,-0.2593994141,-0.1525878906
2.0563499928,-0.7353515625,0.0478515625,0.0400390625,-0.2899169922,-0.2593994141,-0.1525878906
2.0590579510,-0.7353515625,0.0478515625,0.0400390625,-0.6103515625,0.0152587891,-0.3356933594
2.0617489815,-0.7353515625,0.0478515625,0.0249023438,-0.6103515625,0.0152587891,-0.3356933594
2.0644469261,-0.7333984375,0.0498046875,0.0249023438,-0.1678466797,0.1220703125,-0.3051757812
2.0671439171,-0.7333984375,0.0498046875,0.0249023438,-0.1678466797,0.1220703125,-0.3051757812
2.0697379112,-0.7333984375,0.0498046875,0.0249023438,0.0152587891,-0.0762939453,-0.1831054688
2.0723040104,-0.7333984375,0.0517578125,0.0200195312,0.0152587891,-0.0762939453,-0.1831054688
2.0748689175,-0.7280273438,0.0517578125,0.0200195312,-0.1373291016,0.1220703125,-0.2288818359
2.0774838924,-0.7280273438,0.0517578125,0.0200195312,-0.1373291016,0.1220703125,-0.2288818359
2.0801830292,-0.7280273438,0.0517578125,0.0200195312,-0.0305175781,0.2441406250,-0.1525878906
2.0828819275,-0.7358398438,0.0478515625,0.0302734375,-0.0305175781,0.2441406250,-0.1525878906
2.0855770111,-0.7358398438,0.0478515625,0.0302734375,0.1983642578,-0.2899169922,-0.2441406250
2.0882799625,-0.7358398438,0.0478515625,0.0302734375,0.1983642578,-0.2899169922,-0.2441406250
2.0909719467,-0.7358398438,0.0478515625,0.0302734375,0.2441406250,-0.1373291016,-0.4577636719
2.0936710835,-0.7319335938,0.0498046875,0.0219726562,0.2441406250,-0.1373291016,-0.4577636719
2.0963740349,-0.7319335938,0.0498046875,0.0219726562,-0.0305175781,0.0000000000,-0.3814697266
2.0991809368,-0.7319335938,0.0498046875,0.0219726562,-0.0305175781,0.0000000000,-0.3814697266
2.1018800735,-0.7319335938,0.0498046875,0.0219726562,0.1220703125,0.0152587891,-0.3356933594
2.1045780182,-0.7441406250,0.0478515625,0.0380859375,0.1220703125,0.0152587891,-0.3356933594
2.1072769165,-0.7441406250,0.0478515625,0.0380859375,0.4425048828,0.0915527344,-0.0457763672
2.1098620892,-0.7441406250,0.0478515625,0.0380859375,0.4425048828,0.0915527344,-0.0457763672
2.1124269962,-0.7441406250,0.0478515625,0.0219726562,0.4425048828,0.2136230469,-0.0915527344
2.1149899960,-0.7324218750,0.0502929688,0.0219726562,-0.1678466797,0.2136230469,-0.0915527344
2.1175639629,-0.7324218750,0.0502929688,0.0219726562,-0.1678466797,-3.6926269531,-0.4425048828
2.1202440262,-0.7324218750,0.0502929688,0.0219726562,0.1525878906,-0.0305175781,-0.4425048828
2.1229250431,-0.7324218750,0.0507812500,0.0332031250,0.1525878906,-0.0305175781,-0.1831054688
2.1256060600,-0.7329101562,0.0507812500,0.0332031250,-0.1525878906,-0.1525878906,-0.1831054688
2.1283349991,-0.7329101562,0.0507812500,0.0332031250,-0.1525878906,-0.1525878906,-0.1678466797
2.1310260296,-0.7329101562,0.0507812500,0.0332031250,-0.9002685547,0.0915527344,-0.1678466797
2.1337080002,-0.7333984375,0.0556640625,0.0292968750,-0.9002685547,0.0915527344,-0.2136230469
2.1363899708,-0.7333984375,0.0556640625,0.0292968750,0.0915527344,-0.1373291016,-0.2136230469
2.1390669346,-0.7333984375,0.0556640625,0.0292968750,0.0915527344,-0.1373291016,-0.2441406250
2.1417279243,-0.7333984375,0.0556640625,0.0292968750,0.6103515625,-0.5493164062,-0.2441406250
2.1443898678,-0.7358398438,0.0429687500,0.0288085938,0.6103515625,-0.5493164062,-0.2441406250
2.1470499039,-0.7358398438,0.0429687500,0.0288085938,-0.1220703125,-0.3509521484,-0.1983642578
2.1496829987,-0.7358398438,0.0429687500,0.0288085938,-0.1220703125,-0.3509521484,-0.1983642578
2.1522541046,-0.7358398438,0.0429687500,0.0288085938,-0.4425048828,-0.2899169922,-0.2136230469
2.1548149586,-0.7373046875,0.0458984375,0.0263671875,-0.4425048828,-0.2899169922,-0.2136230469
2.1573750973,-0.7373046875,0.0458984375,0.0263671875,0.0305175781,-0.5035400391,-0.0305175781
2.1600780487,-0.7373046875,0.0458984375,0.0263671875,0.0305175781,-0.5035400391,-0.0305175781
2.1628830433,-0.7373046875,0.0458984375,0.0283203125,0.3051757812,-0.2136230469,0.2593994141
2.1655850410,-0.7324218750,0.0473632812,0.0283203125,0.3051757812,-0.2136230469,0.2593994141
2.1682848930,-0.7324218750,0.0473632812,0.0283203125,-0.2136230469,-0.0610351562,0.0610351562
2.1709840298,-0.7324218750,0.0473632812,0.0283203125,-0.2136230469,-0.0610351562,0.0610351562
2.1736819744,-0.7333984375,0.0493164062,0.0297851562,-0.2899169922,0.0762939453,0.1220703125
2.1763789654,-0.7333984375,0.0493164062,0.0297851562,-0.2899169922,0.0762939453,0.1220703125
2.1790699959,-0.7333984375,0.0493164062,0.0297851562,-0.2899169922,0.1525878906,-0.1831054688
2.1817679405,-0.7333984375,0.0493164062,0.0297851562,-0.2899169922,0.1525878906,-0.1831054688
2.1844639778,-0.7319335938,0.0512695312,0.0185546875,-0.2746582031,0.0152587891,0.2288818359
2.1871590614,-0.7319335938,0.0512695312,0.0185546875,-0.2746582031,0.0152587891,0.2288818359
2.1898579597,-0.7319335938,0.0512695312,0.0185546875,-0.2899169922,-0.5035400391,-0.1068115234
2.1925559044,-0.7319335938,0.0512695312,0.0185546875,-0.2899169922,-0.5035400391,-0.1068115234
2.1952579021,-0.7373046875,0.0478515625,0.0253906250,-0.7171630859,-0.1068115234,0.2593994141
2.1979560852,-0.7373046875,0.0478515625,0.0253906250,-0.7171630859,-0.1068115234,0.2593994141
2.2005190849,-0.7373046875,0.0478515625,0.0253906250,-0.7934570312,-0.0915527344,-0.0152587891
2.2030820847,-0.7373046875,0.0478515625,0.0253906250,-0.7934570312,-0.0915527344,-0.0152587891
2.2056429386,-0.7333984375,0.0498046875,0.0253906250,-0.3509521484,-0.1678466797,-0.3814697266
2.2082490921,-0.7333984375,0.0498046875,0.0253906250,-0.3509521484,-0.1678466797,-0.3814697266
2.2109448910,-0.7333984375,0.0498046875,0.0253906250,-0.0457763672,-0.1831054688,-0.1525878906
2.2136399746,-0.7333984375,0.0522460938,0.0312500000,-0.0457763672,-0.1831054688,-0.1525878906
2.2163388729,-0.7368164062,0.0522460938,0.0312500000,-0.1220703125,0.0152587891,-0.0152587891
2.2190480232,-0.7368164062,0.0522460938,0.0312500000,-0.1220703125,0.0152587891,-0.0152587891
2.2217440605,-0.7368164062,0.0522460938,0.0312500000,-0.0610351562,0.2593994141,0.1831054688
2.2244369984,-0.7304687500,0.0512695312,0.0307617188,-0.0610351562,0.2593994141,0.1831054688
2.2272469997,-0.7304687500,0.0512695312,0.0307617188,-0.4272460938,-0.0152587891,-0.1983642578
2.2299540043,-0.7304687500,0.0512695312,0.0307617188,-0.4272460938,-0.0152587891,-0.1983642578
2.2326509953,-0.7304687500,0.0512695312,0.0307617188,-0.5493164062,-0.2288818359,-0.2441406250
2.2353460789,-0.7368164062,0.0522460938,0.0273437500,-0.5493164062,-0.2288818359,-0.2441406250
2.2380580902,-0.7368164062,0.0522460938,0.0273437500,0.0915527344,-0.4119873047,-0.4730224609
2.2407510281,-0.7368164062,0.0522460938,0.0273437500,0.0915527344,-0.4119873047,-0.4730224609
2.2434458733,-0.7368164062,0.0522460938,0.0249023438,0.1831054688,-0.2899169922,-0.7324218750
2.2461469173,-0.7353515625,0.0527343750,0.0249023438,0.1831054688,-0.2899169922,-0.7324218750
2.2488000393,-0.7353515625,0.0527343750,0.0249023438,0.1678466797,-0.1525878906,-0.7934570312
2.2513649464,-0.7353515625,0.0527343750,0.0249023438,0.1678466797,-0.1525878906,-0.7934570312
2.2539219856,-0.7353515625,0.0527343750,0.0234375000,0.1678466797,-0.4272460938,-0.5035400391
2.2564918995,-0.7343750000,0.0541992188,0.0234375000,0.2899169922,-0.4272460938,-0.5035400391
2.2591810226,-0.7343750000,0.0541992188,0.0234375000,0.2899169922,-0.4272460938,-0.3356933594
2.2618780136,-0.7343750000,0.0541992188,0.0234375000,0.3204345703,-0.3509521484,-0.3356933594
2.2645740509,-0.7314453125,0.0517578125,0.0214843750,0.3204345703,-0.3509521484,-0.7934570312
2.2672710419,-0.7314453125,0.0517578125,0.0214843750,0.1373291016,-0.5950927734,-0.7934570312
2.2699759007,-0.7314453125,0.0517578125,0.0214843750,0.1373291016,-0.5950927734,-0.9155273438
2.2726709843,-0.7314453125,0.0517578125,0.0214843750,0.1831054688,-0.6103515625,-0.9155273438
2.2753698826,-0.7363281250,0.0468750000,0.0244140625,0.1831054688,-0.6103515625,-0.7019042969
2.2780709267,-0.7363281250,0.0468750000,0.0244140625,0.3662109375,-0.4425048828,-0.7019042969
2.2807700634,-0.7363281250,0.0468750000,0.0244140625,0.3662109375,-0.4425048828,-1.0375976562
2.2834670544,-0.7363281250,0.0468750000,0.0244140625,0.4730224609,-0.4882812500,-1.0375976562
2.2861618996,-0.7348632812,0.0444335938,0.0268554688,0.4730224609,-0.4882812500,-0.5035400391
2.2888650894,-0.7348632812,0.0444335938,0.0268554688,0.2746582031,-0.5950927734,-0.5035400391
2.2916679382,-0.7348632812,0.0444335938,0.0268554688,0.2746582031,-0.5950927734,-0.5645751953
2.2943649292,-0.7348632812,0.0444335938,0.0249023438,0.1983642578,-0.8239746094,-0.5645751953
2.2970569134,-0.7324218750,0.0473632812,0.0249023438,0.1983642578,-0.8239746094,-0.7781982422
2.2996540070,-0.7324218750,0.0473632812,0.0249023438,0.2136230469,-0.8697509766,-0.7781982422
2.3022248745,-0.7324218750,0.0473632812,0.0249023438,0.2136230469,-0.8697509766,-0.7781982422
2.3047900200,-0.7324218750,0.0478515625,0.0244140625,0.0762939453,-0.3356933594,-0.5187988281
2.3073489666,-0.7333984375,0.0478515625,0.0244140625,0.0762939453,-0.3356933594,-0.5187988281
2.3100540638,-0.7333984375,0.0478515625,0.0244140625,-0.1220703125,-0.1983642578,-0.6103515625
2.3127520084,-0.7333984375,0.0478515625,0.0244140625,-0.1220703125,-0.1983642578,-0.6103515625
2.3154530525,-0.7324218750,0.0444335938,0.0371093750,-0.1678466797,-0.5340576172,-1.0223388672
2.3181591034,-0.7324218750,0.0444335938,0.0371093750,-0.1678466797,-0.5340576172,-1.0223388672
2.3208510876,-0.7324218750,0.0444335938,0.0371093750,0.3356933594,-0.6866455078,-0.7781982422
2.3235991001,-0.7324218750,0.0444335938,0.0371093750,0.3356933594,-0.6866455078,-0.7781982422
2.3261668682,-0.7329101562,0.0546875000,0.0161132812,0.1678466797,-0.7629394531,-0.6866455078
2.3288810253,-0.7329101562,0.0546875000,0.0161132812,0.1678466797,-0.7629394531,-0.6866455078
2.3315398693,-0.7329101562,0.0546875000,0.0161132812,0.0152587891,-1.1444091797,-0.8087158203
2.3343319893,-0.7329101562,0.0546875000,0.0278320312,0.0152587891,-1.1444091797,-0.8087158203
2.3377649784,-0.7304687500,0.0449218750,0.0278320312,-0.5340576172,-0.3967285156,-0.8239746094
2.3403329849,-0.7304687500,0.0449218750,0.0278320312,-0.5340576172,-0.3967285156,-0.8239746094
2.3428978920,-0.7304687500,0.0449218750,0.0278320312,0.0762939453,-0.2288818359,-1.0070800781
2.3454608917,-0.7397460938,0.0468750000,0.0283203125,0.0762939453,-0.2288818359,-1.0070800781
2.3481528759,-0.7397460938,0.0468750000,0.0283203125,-0.0152587891,-0.3509521484,-0.7171630859
2.3507230282,-0.7397460938,0.0468750000,0.0283203125,-0.0152587891,-0.3509521484,-0.7171630859
2.3532869816,-0.7397460938,0.0468750000,0.0283203125,-0.0305175781,-0.4272460938,-0.5340576172
2.3559598923,-0.7373046875,0.0468750000,0.0253906250,-0.0305175781,-0.4272460938,-0.5340576172
2.3585510254,-0.7373046875,0.0468750000,0.0253906250,-0.2136230469,-0.6103515625,-0.5035400391
2.3611168861,-0.7373046875,0.0468750000,0.0253906250,-0.2136230469,-0.6103515625,-0.5035400391
2.3636860847,-0.7373046875,0.0468750000,0.0253906250,0.3814697266,-0.5950927734,-0.6103515625
2.3662459850,-0.7382812500,0.0478515625,0.0234375000,0.3814697266,-0.5950927734,-0.6103515625
2.3688108921,-0.7382812500,0.0478515625,0.0234375000,0.1983642578,-0.8087158203,-0.4119873047
2.3713829517,-0.7382812500,0.0478515625,0.0234375000,0.1983642578,-0.8087158203,-0.4119873047
2.3739459515,-0.7382812500,0.0478515625,0.0234375000,0.1068115234,-0.6713867188,-0.7934570312
2.3765070438,-0.7358398438,0.0458984375,0.0273437500,0.1068115234,-0.6713867188,-0.7934570312
2.3791310787,-0.7358398438,0.0458984375,0.0273437500,0.1068115234,-0.4425048828,-0.6561279297
2.3816959858,-0.7358398438,0.0458984375,0.0273437500,-0.0762939453,-0.4425048828,-0.6561279297
2.3842599392,-0.7358398438,0.0458984375,0.0273437500,-0.0762939453,-0.4425048828,-0.3509521484
2.3868179321,-0.7353515625,0.0507812500,0.0244140625,-0.0305175781,-0.4425048828,-0.3509521484
2.3894169331,-0.7353515625,0.0507812500,0.0244140625,-0.0305175781,-0.4425048828,-0.3509521484
2.3919799328,-0.7353515625,0.0507812500,0.0244140625,-0.1220703125,-0.2746582031,-0.3204345703
2.3945429325,-0.7353515625,0.0507812500,0.0244140625,-0.1220703125,-0.2746582031,-0.3204345703
2.3971030712,-0.7343750000,0.0498046875,0.0244140625,0.3509521484,-0.6866455078,-0.6256103516
2.3997809887,-0.7343750000,0.0498046875,0.0244140625,0.3509521484,-0.6866455078,-0.6256103516
2.4023449421,-0.7343750000,0.0498046875,0.0244140625,0.1373291016,-0.6866455078,-0.6256103516
2.4049110413,-0.7343750000,0.0498046875,0.0244140625,0.1373291016,-0.6866455078,-0.6256103516
2.4074859619,-0.7407226562,0.0507812500,0.0317382812,-0.1220703125,-0.3204345703,-0.2593994141
2.4100480080,-0.7407226562,0.0507812500,0.0317382812,-0.1220703125,-0.3204345703,-0.2593994141
2.4126200676,-0.7407226562,0.0507812500,0.0317382812,-0.6103515625,0.0610351562,-0.2441406250
2.4151818752,-0.7407226562,0.0507812500,0.0263671875,-0.6103515625,0.0610351562,-0.2441406250
2.4178950787,-0.7304687500,0.0561523438,0.0263671875,-0.2288818359,0.2136230469,-0.2899169922
2.4205949306,-0.7304687500,0.0561523438,0.0263671875,-0.2288818359,0.2136230469,-0.2899169922
2.4232890606,-0.7304687500,0.0561523438,0.0263671875,0.1525878906,-0.4730224609,-0.4272460938
2.4259939194,-0.7304687500,0.0498046875,0.0273437500,0.1525878906,-0.4730224609,-0.4272460938
2.4287428856,-0.7421875000,0.0498046875,0.0273437500,-0.3509521484,-0.7476806641,-0.3814697266
2.4314420223,-0.7421875000,0.0498046875,0.0273437500,-0.3509521484,-0.7476806641,-0.3814697266
2.4341490269,-0.7421875000,0.0498046875,0.0273437500,-0.2593994141,-0.3509521484,-0.2899169922
2.4368450642,-0.7304687500,0.0488281250,0.0292968750,-0.2593994141,-0.3509521484,-0.2899169922
2.4394569397,-0.7304687500,0.0488281250,0.0292968750,0.1525878906,-0.1678466797,-0.4882812500
2.4420258999,-0.7304687500,0.0488281250,0.0292968750,0.1525878906,-0.1678466797,-0.4882812500
2.4445869923,-0.7304687500,0.0488281250,0.0292968750,0.1525878906,0.0305175781,-0.5493164062
2.4471540451,-0.7343750000,0.0522460938,0.0297851562,0.2288818359,0.0305175781,-0.5493164062
2.4497239590,-0.7343750000,0.0522460938,0.0297851562,0.2288818359,0.0305175781,-0.1525878906
2.4522879124,-0.7343750000,0.0522460938,0.0297851562,0.2136230469,0.1068115234,-0.1525878906
2.4549179077,-0.7343750000,0.0522460938,0.0297851562,0.2136230469,0.1068115234,-0.3967285156
2.4574899673,-0.7373046875,0.0537109375,0.0380859375,0.5645751953,-0.2899169922,-0.3967285156
2.4601759911,-0.7373046875,0.0537109375,0.0380859375,0.5645751953,-0.2899169922,-0.6103515625
2.4628589153,-0.7373046875,0.0537109375,0.0380859375,0.7324218750,-0.3356933594,-0.6103515625
2.4655430317,-0.7373046875,0.0537109375,0.0380859375,0.7324218750,-0.3356933594,-0.6256103516
2.4682319164,-0.7407226562,0.0444335938,0.0317382812,0.1678466797,-0.5035400391,-0.6256103516
2.4708909988,-0.7407226562,0.0444335938,0.0317382812,0.1678466797,-0.5035400391,-0.6256103516
2.4735949039,-0.7407226562,0.0444335938,0.0317382812,0.2899169922,-0.5798339844,-0.8087158203
2.4762909412,-0.7407226562,0.0444335938,0.0341796875,0.2899169922,-0.5798339844,-0.8087158203
2.4789960384,-0.7397460938,0.0444335938,0.0341796875,0.3356933594,-0.8697509766,-1.1291503906
2.4816870689,-0.7397460938,0.0444335938,0.0341796875,0.3356933594,-0.8697509766,-1.1291503906
2.4844939709,-0.7397460938,0.0444335938,0.0341796875,0.2288818359,-0.5798339844,-0.8087158203
2.4871919155,-0.7319335938,0.0473632812,0.0297851562,0.2288818359,-0.5798339844,-0.8087158203
2.4897699356,-0.7319335938,0.0473632812,0.0297851562,0.3509521484,-0.2593994141,-0.5798339844
2.4923319817,-0.7319335938,0.0473632812,0.0297851562,0.3509521484,-0.2593994141,-0.5798339844
2.4948940277,-0.7319335938,0.0473632812,0.0297851562,0.4730224609,-0.2746582031,-0.8850097656
2.4975819588,-0.7338867188,0.0454101562,0.0190429688,0.4730224609,-0.2746582031,-0.8850097656
2.5001471043,-0.7338867188,0.0454101562,0.0190429688,0.6256103516,-0.5645751953,-1.0070800781
2.5027110577,-0.7338867188,0.0454101562,0.0190429688,0.6256103516,-0.5645751953,-1.0070800781
2.5052731037,-0.7338867188,0.0454101562,0.0190429688,0.9155273438,-0.6256103516,-1.2512207031
2.5079469681,-0.7338867188,0.0449218750,0.0229492188,0.9155273438,-0.6256103516,-1.2512207031
2.5106489658,-0.7338867188,0.0449218750,0.0229492188,0.5798339844,-0.4882812500,-0.7171630859
2.5133368969,-0.7338867188,0.0449218750,0.0229492188,0.5798339844,-0.4882812500,-0.7171630859
2.5160369873,-0.7338867188,0.0449218750,0.0229492188,1.0833740234,-0.6103515625,-0.7324218750
2.5187509060,-0.7333984375,0.0493164062,0.0327148438,1.0833740234,-0.6103515625,-0.7324218750
2.5214459896,-0.7333984375,0.0493164062,0.0327148438,0.7019042969,-0.5340576172,-0.5950927734
2.5241448879,-0.7333984375,0.0493164062,0.0327148438,0.7019042969,-0.5340576172,-0.5950927734
2.5268440247,-0.7333984375,0.0429687500,0.0249023438,0.3204345703,-0.4272460938,-0.4425048828
2.5294530392,-0.7412109375,0.0429687500,0.0249023438,0.3204345703,-0.4272460938,-0.4425048828
2.5320200920,-0.7412109375,0.0429687500,0.0249023438,0.5645751953,-0.4882812500,-0.3814697266
2.5345809460,-0.7412109375,0.0429687500,0.0249023438,0.5645751953,-0.4882812500,-0.3814697266
2.5371470451,-0.7412109375,0.0434570312,0.0341796875,0.2441406250,-0.2746582031,-0.4272460938
2.5398368835,-0.7416992188,0.0434570312,0.0341796875,0.2441406250,-0.2746582031,-0.4272460938
2.5425360203,-0.7416992188,0.0434570312,0.0341796875,-3.6621093750,-0.1373291016,-0.2441406250
2.5452289581,-0.7416992188,0.0434570312,0.0341796875,-0.5493164062,-0.1373291016,-0.2441406250
2.5480558872,-0.7353515625,0.0439453125,0.0244140625,-0.4730224609,-0.2746582031,-0.2288818359
2.5507559776,-0.7353515625,0.0439453125,0.0244140625,-0.4730224609,-0.2746582031,-0.2288818359
2.5534498692,-0.7353515625,0.0439453125,0.0244140625,-0.4730224609,-0.1983642578,-0.3051757812
2.5561480522,-0.7353515625,0.0439453125,0.0244140625,-0.6561279297,-0.1983642578,-0.3051757812
2.5588560104,-0.7319335938,0.0488281250,0.0146484375,-0.6561279297,0.0305175781,-0.2899169922
2.5615549088,-0.7319335938,0.0488281250,0.0146484375,-0.3814697266,0.0305175781,-0.2899169922
2.5642480850,-0.7319335938,0.0488281250,0.0146484375,-0.3814697266,-0.1525878906,-0.0762939453
2.5669450760,-0.7319335938,0.0488281250,0.0253906250,-0.7476806641,-0.1525878906,-0.0762939453
2.5696539879,-0.7338867188,0.0463867188,0.0253906250,-0.7476806641,-0.1220703125,-0.2899169922
2.5723528862,-0.7338867188,0.0463867188,0.0253906250,-0.4272460938,-0.1220703125,-0.2899169922
2.5750548840,-0.7338867188,0.0463867188,0.0253906250,3.4790039062,-0.0610351562,-0.1831054688
2.5777518749,-0.7314453125,0.0483398438,0.0327148438,0.0915527344,-0.0610351562,-0.1831054688
2.5803189278,-0.7314453125,0.0483398438,0.0327148438,0.0915527344,-0.0610351562,-0.1220703125
2.5828890800,-0.7314453125,0.0483398438,0.0327148438,-0.2899169922,-0.0457763672,-0.1220703125
2.5854508877,-0.7314453125,0.0483398438,0.0327148438,-0.2899169922,-0.0457763672,0.0762939453
2.5880460739,-0.7343750000,0.0468750000,0.0361328125,-0.4882812500,-0.1525878906,0.0762939453
2.5907530785,-0.7343750000,0.0468750000,0.0361328125,-0.4882812500,-0.1525878906,0.1220703125
2.5934438705,-0.7343750000,0.0468750000,0.0361328125,-0.3051757812,-0.3204345703,0.1220703125
2.5961380005,-0.7343750000,0.0468750000,0.0361328125,-0.3051757812,-0.3204345703,-3.7841796875
2.5988469124,-0.7377929688,0.0502929688,0.0229492188,-0.2899169922,-0.2593994141,-0.1220703125
2.6015379429,-0.7377929688,0.0502929688,0.0229492188,-0.2899169922,-0.2593994141,-0.1220703125
2.6042339802,-0.7377929688,0.0502929688,0.0229492188,-0.0762939453,-0.1678466797,-0.1831054688
2.6069269180,-0.7377929688,0.0502929688,0.0229492188,-0.0762939453,-0.1678466797,-0.1831054688
2.6096339226,-0.7392578125,0.0488281250,0.0273437500,-0.0610351562,-0.3662109375,-0.2288818359
2.6124410629,-0.7392578125,0.0488281250,0.0273437500,-0.0610351562,-0.3662109375,-0.2288818359
2.6151409149,-0.7392578125,0.0488281250,0.0273437500,0.1983642578,-0.3814697266,-0.3509521484
2.6178469658,-0.7392578125,0.0507812500,0.0253906250,0.1983642578,-0.3814697266,3.5552978516
2.6205439568,-0.7285156250,0.0507812500,0.0253906250,0.1983642578,-0.0915527344,0.0152587891
2.6232390404,-0.7285156250,0.0507812500,0.0253906250,0.1983642578,-0.0915527344,0.0152587891
2.6259288788,-0.7285156250,0.0507812500,0.0253906250,-0.2593994141,0.0762939453,0.0152587891
2.6285898685,-0.7377929688,0.0444335938,0.0224609375,-0.2593994141,0.0762939453,0.0152587891
2.6311540604,-0.7377929688,0.0444335938,0.0224609375,-0.3662109375,0.5340576172,-0.0762939453
2.6337189674,-0.7377929688,0.0444335938,0.0224609375,-0.3662109375,0.5340576172,-0.0762939453
2.6362779140,-0.7377929688,0.0444335938,0.0224609375,-0.6713867188,0.0762939453,0.0305175781
2.6389620304,-0.7353515625,0.0498046875,0.0205078125,-0.6713867188,0.0762939453,0.0305175781
2.6416549683,-0.7353515625,0.0498046875,0.0205078125,-0.5950927734,-0.2288818359,0.1831054688
2.6443500519,-0.7353515625,0.0498046875,0.0205078125,-0.5950927734,-0.2288818359,0.1831054688
2.6470470428,-0.7353515625,0.0498046875,0.0205078125,-0.3204345703,-0.0762939453,-0.1068115234
2.6497509480,-0.7319335938,0.0541992188,0.0244140625,-0.3204345703,-0.0762939453,-0.1068115234
2.6524410248,-0.7319335938,0.0541992188,0.0244140625,-0.4425048828,0.2899169922,-0.1220703125
2.6551389694,-0.7319335938,0.0541992188,0.0244140625,-0.4425048828,0.2899169922,-0.1220703125
2.6578450203,-0.7319335938,0.0541992188,0.0214843750,-0.6561279297,-0.0305175781,-0.2441406250
2.6605429649,-0.7299804688,0.0507812500,0.0214843750,-0.6561279297,-0.0305175781,-0.2441406250
2.6632320881,-0.7299804688,0.0507812500,0.0214843750,-0.8697509766,0.1220703125,-0.3356933594
2.6659319401,-0.7299804688,0.0507812500,0.0214843750,-0.8697509766,0.1220703125,-0.3356933594
2.6686429977,-0.7290039062,0.0532226562,0.0209960938,-0.5187988281,-0.3814697266,-0.3967285156
2.6713368893,-0.7290039062,0.0532226562,0.0209960938,-0.5187988281,-0.3814697266,-0.3967285156
2.6740369797,-0.7290039062,0.0532226562,0.0209960938,-0.6561279297,-0.0457763672,-0.0457763672
2.6768410206,-0.7290039062,0.0532226562,0.0209960938,-0.6561279297,-0.0457763672,-0.0457763672
2.6794478893,-0.7368164062,0.0478515625,0.0415039062,-0.2441406250,-0.1983642578,-0.1068115234
2.6820199490,-0.7368164062,0.0478515625,0.0415039062,-0.2441406250,-0.1983642578,-0.1068115234
2.6845839024,-0.7368164062,0.0478515625,0.0415039062,-0.4882812500,-0.3204345703,-0.0152587891
2.6871500015,-0.7368164062,0.0478515625,0.0415039062,-0.4882812500,-0.3204345703,-0.0152587891
2.6898539066,-0.7363281250,0.0454101562,0.0268554688,-0.6408691406,-0.0305175781,-0.0305175781
2.6925539970,-0.7363281250,0.0454101562,0.0268554688,-0.6408691406,-0.0305175781,-0.0305175781
2.6952550411,-0.7363281250,0.0454101562,0.0268554688,-0.4882812500,0.1220703125,-0.2441406250
2.6979670525,-0.7363281250,0.0454101562,0.0307617188,-0.4882812500,0.1220703125,-0.2441406250
2.7006680965,-0.7333984375,0.0478515625,0.0307617188,-0.2288818359,0.0152587891,-0.3356933594
2.7033679485,-0.7333984375,0.0478515625,0.0307617188,-0.2288818359,0.0152587891,-0.3356933594
2.7060658932,-0.7333984375,0.0478515625,0.0307617188,-0.4119873047,-0.0457763672,-0.2746582031
2.7087759972,-0.7333984375,0.0507812500,0.0356445312,-0.4119873047,-0.0457763672,-0.2746582031
2.7114760876,-0.7304687500,0.0507812500,0.0356445312,0.0000000000,0.5035400391,0.0457763672
2.7141740322,-0.7304687500,0.0507812500,0.0356445312,0.0000000000,0.5035400391,0.0457763672
2.7168700695,-0.7304687500,0.0507812500,0.0356445312,-0.3814697266,0.3814697266,-0.3051757812
2.7195770741,-0.7407226562,0.0468750000,0.0312500000,-0.3814697266,0.3814697266,-0.3051757812
2.7222659588,-0.7407226562,0.0468750000,0.0312500000,-0.1831054688,-0.0610351562,-0.3967285156
2.7249569893,-0.7407226562,0.0468750000,0.0312500000,-0.1831054688,-0.0610351562,-0.3967285156
2.7277009487,-0.7407226562,0.0468750000,0.0312500000,-0.4425048828,-0.1525878906,0.0305175781
2.7302660942,-0.7407226562,0.0429687500,0.0317382812,-0.4425048828,-0.1525878906,0.0305175781
2.7328319550,-0.7407226562,0.0429687500,0.0317382812,-0.4425048828,-0.0152587891,-0.1220703125
2.7355310917,-0.7407226562,0.0429687500,0.0317382812,-0.5187988281,-0.0152587891,-0.1220703125
2.7382888794,-0.7407226562,0.0429687500,0.0336914062,-0.5187988281,0.2746582031,-0.2593994141
2.7410628796,-0.7343750000,0.0449218750,0.0336914062,-0.1831054688,0.2746582031,-0.2593994141
2.7437210083,-0.7343750000,0.0449218750,0.0336914062,-0.1831054688,-0.0305175781,-0.1068115234
2.7471549511,-0.7343750000,0.0449218750,0.0336914062,-0.2288818359,-0.0305175781,-0.1068115234
2.7498660088,-0.7363281250,0.0493164062,0.0234375000,-0.3662109375,0.2441406250,-0.3051757812
2.7525699139,-0.7363281250,0.0493164062,0.0234375000,-0.3662109375,0.2441406250,-0.3051757812
2.7552690506,-0.7363281250,0.0493164062,0.0234375000,0.1373291016,-0.1068115234,-0.2593994141
2.7579770088,-0.7363281250,0.0493164062,0.0234375000,0.1373291016,-0.1068115234,-0.2593994141
2.7606859207,-0.7353515625,0.0458984375,0.0263671875,-0.6103515625,0.1525878906,-0.0762939453
2.7633829117,-0.7353515625,0.0458984375,0.0263671875,-0.6103515625,0.1525878906,-0.0762939453
2.7660799026,-0.7353515625,0.0458984375,0.0263671875,-0.4730224609,0.0915527344,0.1525878906
2.7687969208,-0.7353515625,0.0458984375,0.0229492188,-0.4730224609,0.0915527344,0.1525878906
2.7714929581,-0.7348632812,0.0439453125,0.0229492188,-0.3204345703,-0.0152587891,0.0762939453
2.7742009163,-0.7348632812,0.0439453125,0.0229492188,-0.3204345703,-0.0152587891,0.0762939453
2.7769010067,-0.7348632812,0.0439453125,0.0229492188,-0.6408691406,-0.0152587891,0.2288818359
2.7795090675,-0.7348632812,0.0483398438,0.0327148438,-0.6408691406,-0.0152587891,0.2288818359
2.7820758820,-0.7338867188,0.0483398438,0.0327148438,-0.6408691406,-0.0762939453,0.1525878906
2.7846460342,-0.7338867188,0.0483398438,0.0327148438,-0.6408691406,-0.0762939453,0.1525878906
2.7872109413,-0.7338867188,0.0483398438,0.0327148438,-0.6408691406,0.0305175781,0.0152587891
2.7899529934,-0.7387695312,0.0478515625,0.0297851562,-0.1983642578,0.0305175781,0.0152587891
2.7925190926,-0.7387695312,0.0478515625,0.0297851562,-0.1983642578,0.0305175781,0.1220703125
2.7950890064,-0.7387695312,0.0478515625,0.0297851562,-0.4425048828,0.0152587891,0.1220703125
2.7978279591,-0.7387695312,0.0478515625,0.0297851562,-0.4425048828,0.0152587891,0.3204345703
2.8005239964,-0.7309570312,0.0483398438,0.0253906250,-0.6713867188,0.1525878906,0.3204345703
2.8032290936,-0.7309570312,0.0483398438,0.0253906250,-0.6713867188,0.1525878906,-0.1525878906
2.8060441017,-0.7309570312,0.0483398438,0.0253906250,-0.3967285156,-0.0915527344,-0.1525878906
2.8087570667,-0.7309570312,0.0483398438,0.0253906250,-0.3967285156,-0.0915527344,-0.3662109375
2.8114559650,-0.7392578125,0.0507812500,0.0356445312,-0.6866455078,-0.0915527344,-0.3662109375
2.8141520023,-0.7392578125,0.0507812500,0.0356445312,-0.6866455078,-0.0915527344,-0.2441406250
2.8168509007,-0.7392578125,0.0507812500,0.0356445312,-0.8697509766,0.2746582031,-0.2441406250
2.8194599152,-0.7392578125,0.0507812500,0.0107421875,-0.8697509766,0.2746582031,-0.2136230469
2.8220238686,-0.7309570312,0.0488281250,0.0107421875,-0.2288818359,0.0000000000,-0.2136230469
2.8245940208,-0.7309570312,0.0488281250,0.0107421875,-0.2288818359,0.0000000000,-0.2136230469
2.8271570206,-0.7309570312,0.0488281250,0.0107421875,-0.3967285156,-0.2288818359,0.0457763672
2.8298568726,-0.7309570312,0.0473632812,0.0258789062,-0.3967285156,-0.2288818359,0.0457763672
2.8325579166,-0.7382812500,0.0473632812,0.0258789062,-0.8392333984,-0.0762939453,0.0305175781
2.8352539539,-0.7382812500,0.0473632812,0.0258789062,-0.8392333984,-0.0762939453,0.0305175781
2.8379468918,-0.7382812500,0.0473632812,0.0258789062,-0.6561279297,0.0152587891,-0.0152587891
2.8405189514,-0.7338867188,0.0498046875,0.0175781250,-0.6561279297,0.0152587891,-0.0152587891
2.8430860043,-0.7338867188,0.0498046875,0.0175781250,-0.7324218750,0.0000000000,0.0457763672
2.8456568718,-0.7338867188,0.0498046875,0.0175781250,-0.7324218750,0.0000000000,0.0457763672
2.8483560085,-0.7338867188,0.0498046875,0.0175781250,-0.1525878906,-0.2441406250,-0.0457763672
2.8510229588,-0.7382812500,0.0493164062,0.0312500000,-0.1525878906,-0.2441406250,-0.0457763672
2.8538260460,-0.7382812500,0.0493164062,0.0312500000,-0.5950927734,-0.3051757812,-0.0915527344
2.8565239906,-0.7382812500,0.0493164062,0.0312500000,-0.5950927734,-0.3051757812,-0.0915527344
2.8592340946,-0.7382812500,0.0493164062,0.0312500000,-0.8392333984,0.1220703125,-0.3509521484
2.8619289398,-0.7319335938,0.0444335938,0.0278320312,-0.8392333984,0.1220703125,-0.3509521484
2.8646230698,-0.7319335938,0.0444335938,0.0278320312,-0.4577636719,0.1525878906,-0.4119873047
2.8673141003,-0.7319335938,0.0444335938,0.0278320312,-0.4577636719,0.1525878906,-0.4119873047
2.8700079918,-0.7319335938,0.0444335938,0.0292968750,-0.5340576172,-0.3204345703,-0.2746582031
2.8725740910,-0.7285156250,0.0478515625,0.0292968750,-0.5340576172,-0.3204345703,-0.2746582031
2.8751430511,-0.7285156250,0.0478515625,0.0292968750,-0.0915527344,-0.2899169922,-0.1983642578
2.8777630329,-0.7285156250,0.0478515625,0.0292968750,-0.0915527344,-0.2899169922,-0.1983642578
2.8804528713,-0.7285156250,0.0502929688,0.0229492188,-0.7019042969,-0.0457763672,0.0152587891
2.8831501007,-0.7343750000,0.0502929688,0.0229492188,-0.7019042969,-0.0457763672,0.0152587891
2.8858489990,-0.7343750000,0.0502929688,0.0229492188,-0.2746582031,-0.4730224609,0.3662109375
2.8885080814,-0.7343750000,0.0502929688,0.0229492188,-0.2746582031,-0.4730224609,0.3662109375
2.8910779953,-0.7363281250,0.0478515625,0.0327148438,0.2288818359,-0.2136230469,0.1983642578
2.8936419487,-0.7363281250,0.0478515625,0.0327148438,0.2288818359,-0.2136230469,0.1983642578
2.8962099552,-0.7363281250,0.0478515625,0.0327148438,-3.6773681641,-0.1220703125,0.0000000000
2.8989861012,-0.7363281250,0.0478515625,0.0327148438,-0.3204345703,-0.1220703125,0.0000000000
2.9015491009,-0.7373046875,0.0488281250,0.0288085938,-0.3204345703,-0.2288818359,0.0305175781
2.9041099548,-0.7373046875,0.0488281250,0.0288085938,-0.5645751953,-0.2288818359,0.0305175781
2.9066739082,-0.7373046875,0.0488281250,0.0288085938,-0.5645751953,3.6773681641,-0.2288818359
2.9094738960,-0.7373046875,0.0488281250,0.0288085938,-0.5645751953,0.1983642578,-0.2288818359
2.9121670723,-0.7392578125,0.0517578125,0.0214843750,-0.5645751953,-3.7078857422,-0.0610351562
2.9148640633,-0.7392578125,0.0517578125,0.0214843750,-0.7171630859,-0.0915527344,-0.0610351562
2.9175689220,-0.7392578125,0.0517578125,0.0214843750,-0.7171630859,-0.0915527344,-0.1983642578
2.9201309681,-0.7392578125,0.0517578125,0.0336914062,-0.2899169922,-0.2441406250,-0.1983642578
2.9226949215,-0.7368164062,0.0415039062,0.0336914062,-0.2899169922,-0.2441406250,-0.1983642578
2.9252569675,-0.7368164062,0.0415039062,0.0336914062,-0.1373291016,0.1983642578,-0.2288818359
2.9278430939,-0.7368164062,0.0415039062,0.0336914062,-0.1373291016,0.1983642578,-0.2288818359
2.9305429459,-0.7368164062,0.0415039062,0.0278320312,-0.4425048828,0.0305175781,-0.3967285156
2.9333438873,-0.7333984375,0.0498046875,0.0278320312,-0.4425048828,0.0305175781,-0.3967285156
2.9360430241,-0.7333984375,0.0498046875,0.0278320312,0.2288818359,-0.3967285156,-0.3509521484
2.9387490749,-0.7333984375,0.0498046875,0.0278320312,0.2288818359,-0.3967285156,-0.3509521484
2.9414479733,-0.7348632812,0.0507812500,0.0288085938,-0.1831054688,-0.0152587891,0.0000000000
2.9441459179,-0.7348632812,0.0507812500,0.0288085938,-0.1831054688,-0.0152587891,0.0000000000
2.9468429089,-0.7348632812,0.0507812500,0.0288085938,-0.5187988281,-0.0762939453,-0.1983642578
2.9495520592,-0.7348632812,0.0507812500,0.0288085938,-0.5187988281,-0.0762939453,-0.1983642578
2.9522469044,-0.7343750000,0.0478515625,0.0322265625,-0.4882812500,0.0152587891,-0.0915527344
2.9549410343,-0.7343750000,0.0478515625,0.0322265625,-0.4882812500,0.0152587891,-0.0915527344
2.9576869011,-0.7343750000,0.0478515625,0.0322265625,-0.4119873047,-0.3204345703,-0.1678466797
2.9603838921,-0.7343750000,0.0478515625,0.0322265625,-0.4119873047,-0.3204345703,-0.1678466797
2.9630830288,-0.7382812500,0.0512695312,0.0336914062,-0.1831054688,-0.4272460938,-0.2899169922
2.9657809734,-0.7382812500,0.0512695312,0.0336914062,-0.1831054688,-0.4272460938,-0.2899169922
2.9684360027,-0.7382812500,0.0512695312,0.0336914062,0.0000000000,-0.3356933594,-0.5340576172
2.9710049629,-0.7382812500,0.0527343750,0.0317382812,0.0000000000,-0.3356933594,-0.5340576172
2.9735760689,-0.7368164062,0.0527343750,0.0317382812,-0.0915527344,-0.2746582031,-0.5798339844
2.9761428833,-0.7368164062,0.0527343750,0.0317382812,-0.0915527344,-0.2746582031,-0.5798339844
2.9787900448,-0.7368164062,0.0527343750,0.0317382812,0.1068115234,-0.3814697266,-0.4730224609
2.9814870358,-0.7368164062,0.0468750000,0.0307617188,0.1068115234,-0.3814697266,-0.4730224609
2.9841818810,-0.7382812500,0.0468750000,0.0307617188,0.2899169922,-0.4730224609,-0.7019042969
2.9868810177,-0.7382812500,0.0468750000,0.0307617188,0.2899169922,-0.4730224609,-0.7019042969
2.9895839691,-0.7382812500,0.0468750000,0.0307617188,0.5187988281,-0.3967285156,-0.7476806641
2.9922828674,-0.7324218750,0.0522460938,0.0302734375,0.5187988281,-0.3967285156,-0.7476806641
2.9949769974,-0.7324218750,0.0522460938,0.0302734375,0.5340576172,-0.5340576172,-0.6561279297
2.9978249073,-0.7324218750,0.0522460938,0.0302734375,0.5340576172,-0.5340576172,-0.6561279297
3.0005249977,-0.7324218750,0.0522460938,0.0302734375,-0.1068115234,-0.4272460938,-0.3356933594
3.0032200813,-0.7343750000,0.0493164062,0.0234375000,-0.1068115234,-0.4272460938,-0.3356933594
3.0059158802,-0.7343750000,0.0493164062,0.0234375000,-0.2593994141,-0.3509521484,-0.1983642578
3.0086209774,-0.7343750000,0.0493164062,0.0234375000,-0.2593994141,-0.3509521484,-0.1983642578
3.0113179684,-0.7343750000,0.0493164062,0.0190429688,-0.5645751953,-0.2136230469,-0.2593994141
3.0140120983,-0.7353515625,0.0532226562,0.0190429688,-0.5645751953,-0.2136230469,-0.2593994141
3.0167150497,-0.7353515625,0.0532226562,0.0190429688,-0.6561279297,0.1831054688,-0.5340576172
3.0193369389,-0.7353515625,0.0532226562,0.0190429688,-0.6561279297,0.1831054688,-0.5340576172
3.0218980312,-0.7353515625,0.0502929688,0.0307617188,-0.2899169922,0.0152587891,-0.4425048828
3.0244638920,-0.7358398438,0.0502929688,0.0307617188,-0.2899169922,0.0152587891,-0.4425048828
3.0270280838,-0.7358398438,0.0502929688,0.0307617188,-0.0305175781,-0.0152587891,-0.7629394531
3.0297410488,-0.7358398438,0.0502929688,0.0307617188,-0.0305175781,-0.0152587891,-0.7629394531
3.0324199200,-0.7299804688,0.0522460938,0.0195312500,0.3967285156,-0.2593994141,-0.5950927734
3.0350968838,-0.7299804688,0.0522460938,0.0195312500,0.3967285156,-0.2593994141,-0.5950927734
3.0377879143,-0.7299804688,0.0522460938,0.0195312500,0.3967285156,-0.5035400391,-0.8087158203
3.0405509472,-0.7299804688,0.0522460938,0.0195312500,0.5035400391,-0.5035400391,-0.8087158203
3.0431180000,-0.7402343750,0.0507812500,0.0415039062,0.5035400391,-0.3509521484,-0.5645751953
3.0456910133,-0.7402343750,0.0507812500,0.0415039062,-0.1373291016,-0.3509521484,-0.5645751953
3.0485229492,-0.7402343750,0.0507812500,0.0415039062,-0.1373291016,-0.1373291016,-0.1983642578
3.0511848927,-0.7402343750,0.0507812500,0.0415039062,-0.3967285156,-0.1373291016,-0.1983642578
3.0539450645,-0.7324218750,0.0527343750,0.0263671875,-0.3967285156,-0.1373291016,-0.5035400391
3.0569949150,-0.7324218750,0.0527343750,0.0263671875,0.2288818359,-0.1373291016,-0.5035400391
3.0596380234,-0.7324218750,0.0527343750,0.0263671875,0.2288818359,-0.4272460938,-0.4882812500
3.0623090267,-0.7324218750,0.0458984375,0.0283203125,0.5798339844,-0.4272460938,-0.4882812500
3.0648839474,-0.7333984375,0.0458984375,0.0283203125,0.5798339844,-0.1525878906,-0.2899169922
3.0674839020,-0.7333984375,0.0458984375,0.0283203125,0.0457763672,-0.1525878906,-0.2899169922
3.0701839924,-0.7333984375,0.0458984375,0.0283203125,0.0457763672,-0.2593994141,-0.5340576172
3.0728840828,-0.7377929688,0.0473632812,0.0341796875,0.2593994141,-0.2593994141,-0.5340576172
3.0755820274,-0.7377929688,0.0473632812,0.0341796875,0.2593994141,-0.2593994141,-0.5950927734
3.0782809258,-0.7377929688,0.0473632812,0.0341796875,0.4425048828,-0.4882812500,-0.5950927734
3.0809869766,-0.7377929688,0.0473632812,0.0341796875,0.4425048828,-0.4882812500,-0.2288818359
3.0836808681,-0.7290039062,0.0493164062,0.0244140625,0.1373291016,-0.0457763672,-0.2288818359
3.0863859653,-0.7290039062,0.0493164062,0.0244140625,0.1373291016,3.8604736328,-0.2288818359
3.0890040398,-0.7290039062,0.0493164062,0.0244140625,-0.1525878906,0.0457763672,-0.2288818359
3.0915689468,-0.7290039062,0.0493164062,0.0244140625,-0.1525878906,0.0457763672,-0.2136230469
3.0941329002,-0.7363281250,0.0493164062,0.0268554688,0.1220703125,-0.4577636719,-0.2136230469
3.0966980457,-0.7363281250,0.0493164062,0.0268554688,0.1220703125,-0.4577636719,-0.2136230469
3.0994260311,-0.7363281250,0.0493164062,0.0268554688,0.3509521484,-0.2746582031,-0.2136230469
3.1019980907,-0.7363281250,0.0493164062,0.0341796875,0.3509521484,-0.2746582031,-0.2136230469
3.1045660973,-0.7392578125,0.0454101562,0.0341796875,-0.2593994141,-0.1220703125,-0.1220703125
3.1071400642,-0.7392578125,0.0454101562,0.0341796875,-0.2593994141,-0.1220703125,-0.1220703125
3.1099429131,-0.7392578125,0.0454101562,0.0341796875,-0.5950927734,-0.4119873047,0.1525878906
3.1126260757,-0.7392578125,0.0512695312,0.0249023438,-0.5950927734,-0.4119873047,0.1525878906
3.1153099537,-0.7392578125,0.0512695312,0.0249023438,-0.3814697266,-0.5645751953,-0.1525878906
3.1180009842,-0.7392578125,0.0512695312,0.0249023438,-0.3814697266,-0.5645751953,-0.1525878906
3.1206829548,-0.7392578125,0.0512695312,0.0249023438,-0.3051757812,-0.2746582031,-0.0152587891
3.1233649254,-0.7416992188,0.0493164062,0.0253906250,-0.3051757812,-0.2746582031,-0.0152587891
3.1261439323,-0.7416992188,0.0493164062,0.0253906250,-0.7629394531,-0.1983642578,0.1068115234
3.1288418770,-0.7416992188,0.0493164062,0.0253906250,-0.7629394531,-0.1983642578,0.1068115234
3.1315228939,-0.7416992188,0.0493164062,0.0253906250,-0.8850097656,-0.3204345703,-0.0762939453
3.1342039108,-0.7294921875,0.0488281250,0.0317382812,-0.8850097656,-0.3204345703,-0.0762939453
3.1368899345,-0.7294921875,0.0488281250,0.0317382812,-0.3509521484,-0.3814697266,-0.2288818359
3.1395809650,-0.7294921875,0.0488281250,0.0317382812,-0.3509521484,-0.3814697266,-0.2288818359
3.1423869133,-0.7294921875,0.0488281250,0.0327148438,-0.4730224609,-0.3204345703,-0.0457763672
3.1449539661,-0.7402343750,0.0468750000,0.0327148438,-0.4730224609,-0.3204345703,-0.0457763672
3.1476240158,-0.7402343750,0.0468750000,0.0327148438,-0.6408691406,-0.0152587891,0.0610351562
3.1502990723,-0.7402343750,0.0468750000,0.0327148438,-0.6408691406,-0.0152587891,0.0610351562
3.1535270214,-0.7382812500,0.0546875000,0.0336914062,-0.5340576172,0.0915527344,0.0762939453
3.1560928822,-0.7382812500,0.0546875000,0.0336914062,-0.5340576172,0.0915527344,0.0762939453
3.1587419510,-0.7382812500,0.0546875000,0.0336914062,-0.1220703125,-0.0762939453,-0.1678466797
3.1613039970,-0.7382812500,0.0546875000,0.0336914062,-0.1220703125,-0.0762939453,-0.1678466797
3.1638650894,-0.7309570312,0.0478515625,0.0263671875,-0.2899169922,0.2746582031,-0.1373291016
3.1664268970,-0.7309570312,0.0478515625,0.0263671875,-0.2899169922,0.2746582031,-0.1373291016
3.1689960957,-0.7309570312,0.0478515625,0.0263671875,-0.0152587891,-0.0762939453,0.0305175781
3.1715600491,-0.7309570312,0.0478515625,0.0263671875,-0.0152587891,-0.0762939453,0.0305175781
3.1741209030,-0.7431640625,0.0517578125,0.0356445312,-0.3814697266,-0.2899169922,0.1831054688
3.1766829491,-0.7431640625,0.0517578125,0.0356445312,-0.3814697266,-0.2899169922,0.1831054688
3.1792950630,-0.7431640625,0.0517578125,0.0356445312,-0.3814697266,-0.4119873047,0.0457763672
3.1818568707,-0.7431640625,0.0517578125,0.0356445312,-0.5645751953,-0.4119873047,0.0457763672
3.1844151020,-0.7280273438,0.0541992188,0.0156250000,-0.5645751953,-0.4119873047,-0.2136230469
3.1869790554,-0.7280273438,0.0541992188,0.0156250000,-0.2746582031,-0.0152587891,-0.2136230469
3.1895480156,-0.7280273438,0.0541992188,0.0156250000,-0.2746582031,-0.0152587891,-0.1831054688
3.1922149658,-0.7280273438,0.0541992188,0.0156250000,-0.0915527344,-0.1220703125,-0.1831054688
3.1947829723,-0.7402343750,0.0454101562,0.0307617188,-0.0915527344,-0.1220703125,-0.1831054688
3.1973428726,-0.7402343750,0.0454101562,0.0307617188,-0.2288818359,-0.3356933594,-0.1068115234
3.1999878883,-0.7402343750,0.0454101562,0.0307617188,-0.2288818359,-0.3356933594,-0.1068115234
3.2025558949,-0.7402343750,0.0454101562,0.0307617188,-0.2136230469,-0.6103515625,-0.2746582031
3.2051250935,-0.7377929688,0.0488281250,0.0317382812,-0.2136230469,-0.6103515625,-0.2746582031
3.2078599930,-0.7377929688,0.0488281250,0.0317382812,-0.2746582031,-0.1831054688,-0.1678466797
3.2105629444,-0.7377929688,0.0488281250,0.0317382812,-0.2746582031,-0.1831054688,-0.1678466797
3.2132608891,-0.7377929688,0.0488281250,0.0297851562,-0.3967285156,-0.4119873047,-0.2441406250
3.2159590721,-0.7314453125,0.0517578125,0.0297851562,-0.3967285156,-0.4119873047,-0.2441406250
3.2186579704,-0.7314453125,0.0517578125,0.0297851562,-0.7781982422,-0.0915527344,-0.3204345703
3.2213580608,-0.7314453125,0.0517578125,0.0297851562,-0.7781982422,-0.0915527344,-0.3204345703
3.2240569592,-0.7373046875,0.0439453125,0.0292968750,-0.5187988281,-0.0152587891,-0.3509521484
3.2267520428,-0.7373046875,0.0439453125,0.0292968750,-0.5187988281,-0.0152587891,-0.3509521484
3.2294559479,-0.7373046875,0.0439453125,0.0292968750,-0.4272460938,0.1983642578,-0.3662109375
3.2321550846,-0.7373046875,0.0439453125,0.0292968750,-0.4272460938,0.1983642578,-0.3662109375
3.2348489761,-0.7338867188,0.0507812500,0.0253906250,-0.4119873047,0.0000000000,-0.3814697266
3.2375569344,-0.7338867188,0.0507812500,0.0253906250,-0.4119873047,0.0000000000,-0.3814697266
3.2401220798,-0.7338867188,0.0507812500,0.0253906250,-0.2136230469,0.1373291016,-0.3051757812
3.2426919937,-0.7338867188,0.0507812500,0.0253906250,-0.2136230469,0.1373291016,-0.3051757812
3.2452609539,-0.7250976562,0.0483398438,0.0292968750,-0.0762939453,0.0305175781,-0.4272460938
3.2478508949,-0.7250976562,0.0483398438,0.0292968750,-0.0762939453,0.0305175781,-0.4272460938
3.2505500317,-0.7250976562,0.0483398438,0.0292968750,0.0915527344,-0.4272460938,-0.4272460938
3.2532498837,-0.7250976562,0.0483398438,0.0292968750,0.0915527344,-0.4272460938,-0.4272460938
3.2560589314,-0.7338867188,0.0483398438,0.0288085938,0.2441406250,-0.2136230469,-0.5950927734
3.2587740421,-0.7338867188,0.0483398438,0.0288085938,0.2441406250,-0.2136230469,-0.5950927734
3.2614719868,-0.7338867188,0.0483398438,0.0288085938,-0.3051757812,0.1678466797,-0.3204345703
3.2643380165,-0.7338867188,0.0439453125,0.0229492188,-0.3051757812,0.1678466797,-0.3204345703
3.2670440674,-0.7324218750,0.0439453125,0.0229492188,-0.4272460938,0.0000000000,-0.3356933594
3.2697610855,-0.7324218750,0.0439453125,0.0229492188,-0.4272460938,0.0000000000,-0.3356933594
3.2724599838,-0.7324218750,0.0439453125,0.0229492188,0.1831054688,-0.4425048828,-0.5187988281
3.2751588821,-0.7333984375,0.0488281250,0.0317382812,0.1831054688,-0.4425048828,-0.5187988281
3.2778680325,-0.7333984375,0.0488281250,0.0317382812,0.1831054688,-0.1220703125,-0.2441406250
3.2805669308,-0.7333984375,0.0488281250,0.0317382812,0.1831054688,-0.1220703125,-0.2441406250
3.2832648754,-0.7333984375,0.0488281250,0.0317382812,-0.1983642578,0.0305175781,-0.0305175781
3.2859680653,-0.7392578125,0.0507812500,0.0307617188,-0.1983642578,0.0305175781,-0.0305175781
3.2886080742,-0.7392578125,0.0507812500,0.0307617188,-0.1678466797,-0.2441406250,0.0457763672
3.2911748886,-0.7392578125,0.0507812500,0.0307617188,-0.1678466797,-0.2441406250,0.0457763672
3.2937378883,-0.7392578125,0.0507812500,0.0307617188,0.0000000000,-0.3662109375,-0.0457763672
3.2963008881,-0.7412109375,0.0434570312,0.0273437500,0.0000000000,-0.3662109375,-0.0457763672
3.2989161015,-0.7412109375,0.0434570312,0.0273437500,0.0000000000,-0.3204345703,-0.0457763672
3.3014838696,-0.7412109375,0.0434570312,0.0273437500,-0.2136230469,-0.3204345703,-0.0457763672
3.3040509224,-0.7412109375,0.0434570312,0.0190429688,-0.2136230469,-0.3204345703,-0.0305175781
3.3066229820,-0.7353515625,0.0478515625,0.0190429688,-0.2899169922,-0.1373291016,-0.0305175781
3.3092179298,-0.7353515625,0.0478515625,0.0190429688,-0.2899169922,-0.1373291016,-0.0457763672
3.3117899895,-0.7353515625,0.0478515625,0.0190429688,-0.1373291016,-0.2593994141,-0.0457763672
3.3143510818,-0.7353515625,0.0478515625,0.0273437500,-0.1373291016,-0.2593994141,-0.0457763672
3.3169159889,-0.7363281250,0.0473632812,0.0273437500,-0.3204345703,-0.1983642578,-0.0457763672
3.3198060989,-0.7363281250,0.0473632812,0.0273437500,-0.3204345703,-0.1983642578,3.8604736328
3.3224999905,-0.7363281250,0.0473632812,0.0273437500,-0.6103515625,-0.1373291016,0.1373291016
3.3252000809,-0.7363281250,0.0595703125,0.0166015625,-0.6103515625,-0.1373291016,0.1373291016
3.3279409409,-0.7363281250,0.0595703125,0.0166015625,0.0305175781,-0.1373291016,0.0915527344
3.3306400776,-0.7363281250,0.0595703125,0.0166015625,0.0305175781,-0.1373291016,0.0915527344
3.3333489895,-0.7363281250,0.0595703125,0.0166015625,0.1373291016,-0.1983642578,-0.0610351562
3.3360419273,-0.7304687500,0.0473632812,0.0336914062,0.1373291016,-0.1983642578,-0.0610351562
3.3386969566,-0.7304687500,0.0473632812,0.0336914062,-0.3662109375,-0.3051757812,-0.1525878906
3.3412690163,-0.7304687500,0.0473632812,0.0336914062,-0.3662109375,-0.3051757812,-0.1525878906
3.3438329697,-0.7304687500,0.0473632812,0.0336914062,-0.9155273438,-0.3051757812,-0.1983642578
3.3463959694,-0.7348632812,0.0532226562,0.0258789062,-0.9155273438,-0.3051757812,-0.1983642578
3.3490519524,-0.7348632812,0.0532226562,0.0258789062,-0.1525878906,-0.5187988281,-0.2593994141
3.3517520428,-0.7348632812,0.0532226562,0.0258789062,-0.1525878906,-0.5187988281,-0.2593994141
3.3544499874,-0.7348632812,0.0532226562,0.0288085938,0.5187988281,-0.5340576172,-0.3356933594
3.3571538925,-0.7329101562,0.0473632812,0.0288085938,0.5187988281,-0.5340576172,-0.3356933594
3.3598690033,-0.7329101562,0.0473632812,0.0288085938,0.0305175781,-0.0152587891,-0.0305175781
3.3625690937,-0.7329101562,0.0473632812,0.0288085938,0.0305175781,-0.0152587891,-0.0305175781
3.3652620316,-0.7329101562,0.0488281250,0.0273437500,0.0915527344,-0.0762939453,0.1678466797
3.3679718971,-0.7343750000,0.0488281250,0.0273437500,0.0915527344,-0.0762939453,0.1678466797
3.3706700802,-0.7343750000,0.0488281250,0.0273437500,0.1983642578,-0.4119873047,0.0000000000
3.3733658791,-0.7343750000,0.0488281250,0.0273437500,0.1983642578,-0.4119873047,0.0000000000
3.3760690689,-0.7338867188,0.0439453125,0.0283203125,-0.1831054688,-0.1220703125,0.0915527344
