# time_stamp before, Acceleration x, Acceleration y, Acceleration z, Gyro x, Gyro y, Gyro z
0.0000000000,-0.7265625000,0.0620117188,0.0527343750,-0.3662109375,0.3662109375,-0.2441406250
0.0026998520,-0.7265625000,0.0620117188,0.0527343750,-0.3662109375,0.3662109375,-0.2441406250
0.0053949356,-0.7363281250,0.0659179688,0.0581054688,0.0457763672,-0.1068115234,-0.1678466797
0.0081079006,-0.7363281250,0.0659179688,0.0581054688,0.0457763672,-0.1068115234,-0.1678466797
0.0108020306,-0.7363281250,0.0659179688,0.0581054688,0.0762939453,-0.2746582031,-0.1220703125
0.0134999752,-0.7363281250,0.0673828125,0.0566406250,0.0762939453,-0.2746582031,-0.1220703125
0.0161910057,-0.7260742188,0.0673828125,0.0566406250,-0.3814697266,-0.1983642578,-0.0915527344
0.0188989639,-0.7260742188,0.0673828125,0.0566406250,-0.3814697266,-0.1983642578,-0.0915527344
0.0215940475,-0.7260742188,0.0673828125,0.0566406250,-0.3356933594,-0.0152587891,-0.4425048828
0.0242879391,-0.7309570312,0.0659179688,0.0649414062,-0.3356933594,-0.0152587891,-0.4425048828
0.0269818306,-0.7309570312,0.0659179688,0.0649414062,-0.2899169922,-0.2441406250,-0.0915527344
0.0296058655,-0.7309570312,0.0659179688,0.0649414062,-0.2899169922,-0.2441406250,-0.0915527344
0.0321669579,-0.7309570312,0.0659179688,0.0649414062,-0.5950927734,-0.2288818359,-0.0457763672
0.0347359180,-0.7285156250,0.0698242188,0.0571289062,-0.5950927734,-0.2288818359,-0.0457763672
0.0373039246,-0.7285156250,0.0698242188,0.0571289062,-0.3204345703,-0.4730224609,-0.1831054688
0.0399620533,-0.7285156250,0.0698242188,0.0571289062,-0.3204345703,-0.4730224609,-0.1831054688
0.0425360203,-0.7285156250,0.0698242188,0.0571289062,-0.4882812500,0.0915527344,-0.1831054688
0.0451049805,-0.7270507812,0.0639648438,0.0590820312,-0.4882812500,0.0915527344,-0.1831054688
0.0476698875,-0.7270507812,0.0639648438,0.0590820312,-0.0610351562,0.0915527344,-0.2593994141
0.0503070354,-0.7270507812,0.0639648438,0.0590820312,-0.0610351562,0.0915527344,-0.2593994141
0.0530350208,-0.7270507812,0.0639648438,0.0590820312,3.8452148438,-0.2746582031,-0.5493164062
0.0556089878,-0.7309570312,0.0683593750,0.0541992188,0.2288818359,-0.2746582031,-0.5493164062
0.0582208633,-0.7309570312,0.0683593750,0.0541992188,0.2288818359,-0.4119873047,-0.3356933594
0.0609200001,-0.7309570312,0.0683593750,0.0541992188,0.5645751953,-0.4119873047,-0.3356933594
0.0636248589,-0.7309570312,0.0683593750,0.0546875000,0.5645751953,-0.1983642578,-0.1220703125
0.0663239956,-0.7294921875,0.0644531250,0.0546875000,-0.3204345703,-0.1983642578,-0.1220703125
0.0690679550,-0.7294921875,0.0644531250,0.0546875000,-0.3204345703,-0.2288818359,-0.1678466797
0.0717680454,-0.7294921875,0.0644531250,0.0546875000,-0.6256103516,-0.2288818359,-0.1678466797
0.0744650364,-0.7368164062,0.0664062500,0.0629882812,-0.6256103516,-0.0305175781,-0.3204345703
0.0771648884,-0.7368164062,0.0664062500,0.0629882812,-0.3356933594,-0.0305175781,-0.3204345703
0.0798740387,-0.7368164062,0.0664062500,0.0629882812,-0.3356933594,3.8757324219,-0.4730224609
0.0825710297,-0.7368164062,0.0664062500,0.0629882812,-0.2288818359,0.0305175781,-0.4730224609
0.0852739811,-0.7329101562,0.0722656250,0.0449218750,-0.2288818359,-3.8757324219,-0.1983642578
0.0881860256,-0.7329101562,0.0722656250,0.0449218750,-0.5035400391,-0.0762939453,-0.1983642578
0.0908398628,-0.7329101562,0.0722656250,0.0449218750,-0.5035400391,0.0152587891,-0.0457763672
0.0935359001,-0.7329101562,0.0722656250,0.0595703125,-0.6256103516,0.0152587891,-0.0457763672
0.0965199471,-0.7304687500,0.0678710938,0.0595703125,-0.6256103516,-0.1678466797,-0.1831054688
0.0992739201,-0.7304687500,0.0678710938,0.0595703125,-0.2593994141,-0.1678466797,-0.1831054688
0.1019690037,-0.7304687500,0.0678710938,0.0595703125,-0.2593994141,-0.1220703125,-0.4119873047
0.1046659946,-0.7304687500,0.0649414062,0.0571289062,-0.6256103516,-0.1220703125,-0.4119873047
0.1073689461,-0.7290039062,0.0649414062,0.0571289062,-0.6256103516,0.0915527344,-0.2746582031
0.1100790501,-0.7290039062,0.0649414062,0.0571289062,-0.9002685547,0.0915527344,-0.2746582031
0.1127769947,-0.7290039062,0.0649414062,0.0571289062,-0.9002685547,0.3051757812,-0.1373291016
0.1154730320,-0.7275390625,0.0644531250,0.0595703125,-0.6256103516,0.3051757812,-0.1373291016
0.1182889938,-0.7275390625,0.0644531250,0.0595703125,-0.6256103516,0.2136230469,0.0152587891
0.1209900379,-0.7275390625,0.0644531250,0.0595703125,-0.3509521484,0.2136230469,0.0152587891
0.1236889362,-0.7275390625,0.0644531250,0.0595703125,-0.3509521484,-0.0610351562,-0.1373291016
0.1263968945,-0.7299804688,0.0659179688,0.0561523438,-0.3509521484,-0.0610351562,-0.1373291016
0.1290669441,-0.7299804688,0.0659179688,0.0561523438,-0.3509521484,-0.0610351562,-0.0152587891
0.1316380501,-0.7299804688,0.0659179688,0.0561523438,-0.0610351562,-0.0610351562,-0.0152587891
0.1342029572,-0.7299804688,0.0659179688,0.0668945312,-0.0610351562,-0.0610351562,0.0000000000
0.1367678642,-0.7324218750,0.0693359375,0.0668945312,0.0152587891,0.1525878906,0.0000000000
0.1395039558,-0.7324218750,0.0693359375,0.0668945312,0.0152587891,0.1525878906,-0.0610351562
0.1420710087,-0.7324218750,0.0693359375,0.0668945312,0.3662109375,0.0915527344,-0.0610351562
0.1446380615,-0.7324218750,0.0649414062,0.0625000000,0.3662109375,0.0915527344,-0.0610351562
0.1472058296,-0.7294921875,0.0649414062,0.0625000000,0.2593994141,0.1525878906,-0.1678466797
0.1500120163,-0.7294921875,0.0649414062,0.0625000000,0.2593994141,0.1525878906,-0.1678466797
0.1527130604,-0.7294921875,0.0649414062,0.0625000000,-0.0762939453,0.3662109375,-0.3509521484
0.1554129124,-0.7294921875,0.0708007812,0.0576171875,-0.0762939453,0.3662109375,-0.3509521484
0.1581199169,-0.7294921875,0.0708007812,0.0576171875,0.1525878906,0.0305175781,-0.4119873047
0.1608219147,-0.7294921875,0.0708007812,0.0576171875,0.1525878906,0.0305175781,-0.4119873047
0.1635198593,-0.7294921875,0.0708007812,0.0576171875,0.1373291016,-0.0610351562,-0.1068115234
0.1662139893,-0.7329101562,0.0639648438,0.0571289062,0.1373291016,-0.0610351562,-0.1068115234
0.1688749790,-0.7329101562,0.0639648438,0.0571289062,-0.1220703125,-0.2746582031,0.0000000000
0.1714448929,-0.7329101562,0.0639648438,0.0571289062,-0.1220703125,-0.2746582031,0.0000000000
0.1740179062,-0.7329101562,0.0639648438,0.0571289062,-0.2746582031,-0.1373291016,-0.0305175781
0.1765849590,-0.7255859375,0.0659179688,0.0590820312,-0.2746582031,-0.1373291016,-0.0305175781
0.1792778969,-0.7255859375,0.0659179688,0.0590820312,0.2746582031,-0.2593994141,-0.1068115234
0.1820869446,-0.7255859375,0.0659179688,0.0590820312,0.2746582031,-0.2593994141,-0.1068115234
0.1847898960,-0.7255859375,0.0659179688,0.0571289062,-0.0152587891,0.1220703125,-0.0762939453
0.1874918938,-0.7314453125,0.0703125000,0.0571289062,-0.0152587891,0.1220703125,-0.0762939453
0.1901969910,-0.7314453125,0.0703125000,0.0571289062,-0.3967285156,0.4119873047,-0.1678466797
0.1928930283,-0.7314453125,0.0703125000,0.0571289062,-0.3967285156,0.4119873047,-0.1678466797
0.1955888271,-0.7260742188,0.0722656250,0.0483398438,0.0915527344,0.1525878906,-0.3204345703
0.1983008385,-0.7260742188,0.0722656250,0.0483398438,0.0915527344,0.1525878906,-0.3204345703
0.2010028362,-0.7260742188,0.0722656250,0.0483398438,0.1831054688,0.0305175781,-0.3662109375
0.2037010193,-0.7260742188,0.0722656250,0.0483398438,0.1831054688,0.0305175781,-0.3662109375
0.2064390182,-0.7314453125,0.0639648438,0.0512695312,0.0610351562,0.4272460938,-0.0915527344
0.2090940475,-0.7314453125,0.0639648438,0.0512695312,0.0610351562,0.4272460938,-0.0915527344
0.2116599083,-0.7314453125,0.0639648438,0.0512695312,0.1220703125,0.2288818359,0.1983642578
0.2142329216,-0.7314453125,0.0639648438,0.0512695312,0.1220703125,0.2288818359,0.1983642578
0.2168040276,-0.7319335938,0.0629882812,0.0566406250,0.0457763672,-0.0762939453,0.2288818359
0.2194998264,-0.7319335938,0.0629882812,0.0566406250,0.0457763672,-0.0762939453,0.2288818359
0.2221958637,-0.7319335938,0.0629882812,0.0566406250,0.4882812500,-0.6256103516,-0.1983642578
0.2248868942,-0.7319335938,0.0629882812,0.0566406250,0.4882812500,-0.6256103516,-0.1983642578
0.2275829315,-0.7319335938,0.0639648438,0.0634765625,0.3204345703,-0.3814697266,-0.1983642578
0.2302930355,-0.7319335938,0.0639648438,0.0634765625,0.3204345703,-0.3814697266,-0.1983642578
0.2329838276,-0.7319335938,0.0639648438,0.0634765625,-0.3662109375,-0.3509521484,-0.0610351562
0.2356829643,-0.7319335938,0.0664062500,0.0551757812,-0.3662109375,-0.3509521484,-0.0610351562
0.2383599281,-0.7314453125,0.0664062500,0.0551757812,-0.6408691406,-0.0610351562,0.0762939453
0.2409288883,-0.7314453125,0.0664062500,0.0551757812,-0.6408691406,-0.0610351562,0.0762939453
0.2434949875,-0.7314453125,0.0664062500,0.0551757812,-0.6408691406,-0.0305175781,0.1068115234
0.2461650372,-0.7368164062,0.0644531250,0.0605468750,-0.3204345703,-0.0305175781,0.1068115234
0.2488808632,-0.7368164062,0.0644531250,0.0605468750,-0.3204345703,-0.1525878906,0.2288818359
0.2514488697,-0.7368164062,0.0644531250,0.0605468750,0.3051757812,-0.1525878906,0.2288818359
0.2540118694,-0.7368164062,0.0644531250,0.0605468750,0.3051757812,-0.1525878906,0.2899169922
0.2565829754,-0.7314453125,0.0742187500,0.0576171875,-0.0152587891,-0.3814697266,0.2899169922
0.2593100071,-0.7314453125,0.0742187500,0.0576171875,-0.0152587891,-0.3814697266,0.4730224609
0.2618780136,-0.7314453125,0.0742187500,0.0576171875,-0.2746582031,-0.2899169922,0.4730224609
0.2644438744,-0.7314453125,0.0742187500,0.0576171875,-0.2746582031,-0.2899169922,0.4730224609
0.2670068741,-0.7348632812,0.0688476562,0.0517578125,-0.7934570312,-0.1525878906,0.4119873047
0.2697119713,-0.7348632812,0.0688476562,0.0517578125,-0.7934570312,-0.1525878906,0.4119873047
0.2724089622,-0.7348632812,0.0688476562,0.0517578125,-0.5950927734,-0.1983642578,0.1678466797
0.2751059532,-0.7348632812,0.0688476562,0.0517578125,-0.5950927734,-0.1983642578,0.1678466797
0.2778129578,-0.7250976562,0.0712890625,0.0527343750,-0.4272460938,0.1373291016,0.1373291016
0.2805089951,-0.7250976562,0.0712890625,0.0527343750,-0.4272460938,0.1373291016,0.1373291016
0.2832119465,-0.7250976562,0.0712890625,0.0527343750,-0.0915527344,0.4882812500,0.1983642578
0.2859108448,-0.7250976562,0.0712890625,0.0566406250,-0.0915527344,0.4882812500,0.1983642578
0.2886068821,-0.7246093750,0.0664062500,0.0566406250,0.0457763672,0.2288818359,0.3509521484
0.2913060188,-0.7246093750,0.0664062500,0.0566406250,0.0457763672,0.2288818359,0.3509521484
0.2940759659,-0.7246093750,0.0664062500,0.0566406250,-0.1068115234,0.1373291016,0.4272460938
0.2966489792,-0.7299804688,0.0751953125,0.0473632812,-0.1068115234,0.1373291016,0.4272460938
0.2994289398,-0.7299804688,0.0751953125,0.0473632812,-0.0305175781,0.1220703125,0.5187988281
0.3020899296,-0.7299804688,0.0751953125,0.0473632812,-0.0305175781,0.1220703125,0.5187988281
0.3048570156,-0.7299804688,0.0751953125,0.0473632812,0.4577636719,-0.1678466797,0.4272460938
0.3079178333,-0.7275390625,0.0556640625,0.0620117188,0.4577636719,-0.1678466797,0.4272460938
0.3105950356,-0.7275390625,0.0556640625,0.0620117188,0.2136230469,0.0305175781,0.4119873047
0.3131659031,-0.7275390625,0.0556640625,0.0620117188,0.2136230469,0.0305175781,0.4119873047
0.3157320023,-0.7275390625,0.0556640625,0.0620117188,0.5187988281,-0.2136230469,0.6103515625
0.3183350563,-0.7387695312,0.0649414062,0.0615234375,0.5187988281,-0.2136230469,0.6103515625
0.3210339546,-0.7387695312,0.0649414062,0.0615234375,0.1220703125,-0.1068115234,0.6866455078
0.3237340450,-0.7387695312,0.0649414062,0.0615234375,0.1220703125,-0.1068115234,0.6866455078
0.3264310360,-0.7387695312,0.0742187500,0.0537109375,0.0305175781,0.3814697266,0.5340576172
0.3291418552,-0.7363281250,0.0742187500,0.0537109375,0.0305175781,0.3814697266,0.5340576172
0.3318419456,-0.7363281250,0.0742187500,0.0537109375,0.4730224609,0.0762939453,0.6103515625
0.3345389366,-0.7363281250,0.0742187500,0.0537109375,0.4730224609,0.0762939453,0.6103515625
0.3372378349,-0.7353515625,0.0673828125,0.0590820312,0.7781982422,-0.4119873047,0.3967285156
0.3398489952,-0.7353515625,0.0673828125,0.0590820312,0.7781982422,-0.4119873047,0.3967285156
0.3424110413,-0.7353515625,0.0673828125,0.0590820312,1.1596679688,-0.4425048828,0.7476806641
0.3449759483,-0.7353515625,0.0673828125,0.0590820312,1.1596679688,-0.4425048828,0.7476806641
0.3475449085,-0.7353515625,0.0668945312,0.0478515625,1.4953613281,-0.1831054688,0.7019042969
0.3501548767,-0.7353515625,0.0668945312,0.0478515625,1.4953613281,-0.1831054688,0.7019042969
0.3527228832,-0.7353515625,0.0668945312,0.0478515625,1.0528564453,0.0000000000,0.3662109375
0.3552908897,-0.7353515625,0.0668945312,0.0478515625,1.0528564453,0.0000000000,0.3662109375
0.3579189777,-0.7265625000,0.0659179688,0.0444335938,1.0528564453,-0.1373291016,0.2593994141
0.3605070114,-0.7265625000,0.0659179688,0.0444335938,0.8697509766,-0.1373291016,0.2593994141
0.3630728722,-0.7265625000,0.0659179688,0.0444335938,0.8697509766,3.7689208984,0.8850097656
0.3656389713,-0.7265625000,0.0659179688,0.0444335938,0.5798339844,0.0915527344,0.8850097656
0.3683869839,-0.7333984375,0.0771484375,0.0498046875,0.5798339844,-3.8146972656,1.0833740234
0.3710830212,-0.7333984375,0.0771484375,0.0498046875,1.4038085938,-0.2593994141,1.0833740234
0.3738808632,-0.7333984375,0.0771484375,0.0498046875,1.4038085938,-0.2593994141,0.9002685547
0.3765828609,-0.7333984375,0.0771484375,0.0493164062,1.7852783203,-0.1373291016,0.9002685547
0.3792948723,-0.7348632812,0.0722656250,0.0493164062,1.7852783203,-0.1373291016,0.9918212891
0.3819940090,-0.7348632812,0.0722656250,0.0493164062,1.2969970703,-0.0915527344,0.9918212891
0.3846900463,-0.7348632812,0.0722656250,0.0493164062,1.2969970703,-0.0915527344,0.5493164062
0.3873858452,-0.7324218750,0.0639648438,0.0590820312,1.5563964844,-0.1525878906,0.5493164062
0.3900878429,-0.7324218750,0.0639648438,0.0590820312,1.5563964844,-0.1525878906,0.8239746094
0.3927860260,-0.7324218750,0.0639648438,0.0590820312,1.4801025391,-0.2441406250,0.8239746094
0.3954808712,-0.7324218750,0.0639648438,0.0590820312,1.4801025391,-0.2441406250,1.0681152344
0.3981649876,-0.7275390625,0.0678710938,0.0478515625,2.1057128906,-0.0762939453,1.0681152344
0.4007308483,-0.7275390625,0.0678710938,0.0478515625,2.1057128906,-0.0762939453,0.9460449219
0.4032979012,-0.7275390625,0.0678710938,0.0478515625,1.7700195312,-0.1831054688,0.9460449219
0.4058609009,-0.7275390625,0.0678710938,0.0478515625,1.7700195312,-0.1831054688,0.9460449219
0.4085199833,-0.7309570312,0.0673828125,0.0576171875,1.3885498047,-0.0915527344,1.1444091797
0.4112148285,-0.7309570312,0.0673828125,0.0576171875,1.3885498047,-0.0915527344,1.1444091797
0.4139130116,-0.7309570312,0.0673828125,0.0576171875,1.6479492188,-0.1678466797,1.1444091797
0.4166049957,-0.7309570312,0.0673828125,0.0576171875,1.6479492188,-0.1678466797,1.1444091797
0.4193189144,-0.7250976562,0.0620117188,0.0551757812,1.8463134766,-0.0762939453,0.8392333984
0.4220180511,-0.7250976562,0.0620117188,0.0551757812,1.8463134766,-0.0762939453,0.8392333984
0.4249799252,-0.7250976562,0.0620117188,0.0551757812,2.4566650391,-0.1831054688,0.9918212891
0.4280929565,-0.7241210938,0.0698242188,0.0683593750,2.4566650391,-0.1831054688,1.0833740234
0.4307990074,-0.7241210938,0.0698242188,0.0683593750,2.2583007812,-0.2136230469,1.0833740234
0.4334938526,-0.7241210938,0.0698242188,0.0683593750,2.2583007812,-0.2136230469,1.2359619141
0.4361848831,-0.7241210938,0.0698242188,0.0683593750,2.0141601562,-0.2441406250,1.2359619141
0.4388959408,-0.7290039062,0.0600585938,0.0571289062,2.0141601562,-0.2441406250,1.3122558594
0.4416999817,-0.7290039062,0.0600585938,0.0571289062,1.5869140625,-0.2899169922,1.3122558594
0.4443969727,-0.7290039062,0.0600585938,0.0571289062,1.5869140625,-0.2899169922,1.1138916016
0.4470989704,-0.7290039062,0.0600585938,0.0581054688,1.0986328125,-0.0610351562,1.1138916016
0.4497039318,-0.7358398438,0.0791015625,0.0581054688,1.0986328125,-0.0610351562,1.0223388672
0.4522628784,-0.7358398438,0.0791015625,0.0581054688,1.0070800781,-0.2746582031,1.0223388672
0.4548308849,-0.7358398438,0.0791015625,0.0581054688,1.0070800781,-0.2746582031,1.0223388672
0.4573988914,-0.7358398438,0.0791015625,0.0439453125,1.0070800781,-0.2746582031,0.9613037109
0.4600138664,-0.7387695312,0.0737304688,0.0439453125,1.0070800781,-0.2746582031,0.9613037109
0.4625849724,-0.7387695312,0.0737304688,0.0439453125,1.0070800781,-0.1831054688,0.8697509766
0.4651508331,-0.7387695312,0.0737304688,0.0439453125,1.0070800781,-0.1831054688,0.8697509766
0.4677209854,-0.7387695312,0.0751953125,0.0541992188,0.6408691406,-0.1220703125,0.6408691406
0.4703409672,-0.7358398438,0.0751953125,0.0541992188,0.6408691406,-0.1220703125,0.6408691406
0.4729099274,-0.7358398438,0.0751953125,0.0541992188,0.3356933594,0.0457763672,0.5340576172
0.4754788876,-0.7358398438,0.0751953125,0.0541992188,0.3356933594,0.0457763672,0.5340576172
0.4781990051,-0.7358398438,0.0805664062,0.0532226562,0.3204345703,0.1068115234,0.7324218750
0.4807660580,-0.7270507812,0.0805664062,0.0532226562,0.3204345703,0.1068115234,0.7324218750
0.4833350182,-0.7270507812,0.0805664062,0.0532226562,0.1525878906,0.3967285156,0.3662109375
0.4859039783,-0.7270507812,0.0805664062,0.0532226562,0.1525878906,0.3967285156,0.3662109375
0.4886100292,-0.7353515625,0.0781250000,0.0571289062,-0.1983642578,0.6713867188,0.0610351562
0.4913098812,-0.7353515625,0.0781250000,0.0571289062,-0.1983642578,0.6713867188,0.0610351562
0.4940068722,-0.7353515625,0.0781250000,0.0571289062,-0.0457763672,0.3204345703,-0.1373291016
0.4967088699,-0.7353515625,0.0781250000,0.0571289062,-0.0457763672,0.3204345703,-0.1373291016
0.4993329048,-0.7324218750,0.0732421875,0.0561523438,-0.0457763672,0.4272460938,-0.0152587891
0.5019040108,-0.7324218750,0.0732421875,0.0561523438,-0.1525878906,0.4272460938,-0.0152587891
0.5045878887,-0.7324218750,0.0732421875,0.0561523438,-0.1525878906,0.4272460938,0.1525878906
0.5071589947,-0.7324218750,0.0732421875,0.0561523438,0.3814697266,0.4577636719,0.1525878906
0.5098810196,-0.7255859375,0.0698242188,0.0532226562,0.3814697266,0.4577636719,0.0610351562
0.5125808716,-0.7255859375,0.0698242188,0.0532226562,0.4119873047,0.1678466797,0.0610351562
0.5152759552,-0.7255859375,0.0698242188,0.0532226562,0.4119873047,-3.7384033203,0.0305175781
0.5180208683,-0.7255859375,0.0698242188,0.0551757812,0.5645751953,-0.0305175781,0.0305175781
0.5207219124,-0.7241210938,0.0727539062,0.0551757812,0.5645751953,3.8757324219,-0.2136230469
0.5234210491,-0.7241210938,0.0727539062,0.0551757812,0.3204345703,0.1373291016,-0.2136230469
0.5261209011,-0.7241210938,0.0727539062,0.0551757812,0.3204345703,0.1373291016,-0.5187988281
0.5288619995,-0.7231445312,0.0864257812,0.0527343750,0.7476806641,0.0000000000,-0.5187988281
0.5315568447,-0.7231445312,0.0864257812,0.0527343750,0.7476806641,0.0000000000,-0.4730224609
0.5342500210,-0.7231445312,0.0864257812,0.0527343750,1.7242431641,-0.0457763672,-0.4730224609
0.5369460583,-0.7231445312,0.0864257812,0.0527343750,1.7242431641,-0.0457763672,-0.3662109375
0.5396170616,-0.7275390625,0.0722656250,0.0551757812,1.5106201172,0.1525878906,-0.3662109375
0.5421848297,-0.7275390625,0.0722656250,0.0551757812,1.5106201172,0.1525878906,-0.4119873047
0.5449168682,-0.7275390625,0.0722656250,0.0551757812,1.4801025391,0.1678466797,-0.4119873047
0.5474848747,-0.7275390625,0.0722656250,0.0551757812,1.4801025391,0.1678466797,-0.5035400391
0.5505168438,-0.7275390625,0.0722656250,0.0502929688,1.4190673828,0.2441406250,-0.5035400391
0.5532159805,-0.7275390625,0.0722656250,0.0502929688,1.4190673828,0.2441406250,-0.6866455078
0.5559129715,-0.7275390625,0.0722656250,0.0502929688,1.3427734375,0.1068115234,-0.6866455078
0.5586569309,-0.7275390625,0.0693359375,0.0512695312,1.3427734375,0.1068115234,-0.4730224609
0.5613548756,-0.7260742188,0.0693359375,0.0512695312,0.8239746094,0.0152587891,-0.4730224609
0.5640559196,-0.7260742188,0.0693359375,0.0512695312,0.8239746094,0.0152587891,-0.3204345703
0.5667560101,-0.7260742188,0.0693359375,0.0512695312,0.5493164062,-0.0305175781,-0.3204345703
0.5695698261,-0.7294921875,0.0678710938,0.0483398438,0.5493164062,-0.0305175781,-0.3814697266
0.5722699165,-0.7294921875,0.0678710938,0.0483398438,0.2288818359,0.3356933594,-0.3814697266
0.5749659538,-0.7294921875,0.0678710938,0.0483398438,0.2288818359,0.3356933594,-0.4577636719
0.5776629448,-0.7294921875,0.0678710938,0.0483398438,-0.0915527344,0.2288818359,-0.4577636719
0.5802538395,-0.7333984375,0.0717773438,0.0517578125,-0.0915527344,0.2288818359,-0.4577636719
0.5828230381,-0.7333984375,0.0717773438,0.0517578125,0.5340576172,0.2593994141,-0.8239746094
0.5853888988,-0.7333984375,0.0717773438,0.0517578125,0.5340576172,0.2593994141,-0.8239746094
0.5880219936,-0.7333984375,0.0717773438,0.0517578125,0.8544921875,0.2136230469,-0.8392333984
0.5905950069,-0.7353515625,0.0771484375,0.0512695312,0.8544921875,0.2136230469,-0.8392333984
0.5931589603,-0.7353515625,0.0771484375,0.0512695312,0.8392333984,0.1220703125,-0.4119873047
0.5957269669,-0.7353515625,0.0771484375,0.0512695312,0.8392333984,0.1220703125,-0.4119873047
0.5983879566,-0.7353515625,0.0771484375,0.0541992188,0.3662109375,0.7019042969,-0.5187988281
0.6010379791,-0.7358398438,0.0756835938,0.0541992188,0.3662109375,0.7019042969,-0.5187988281
0.6036019325,-0.7358398438,0.0756835938,0.0541992188,0.8392333984,0.9002685547,-0.5187988281
0.6061730385,-0.7358398438,0.0756835938,0.0541992188,0.8392333984,0.9002685547,-0.5187988281
0.6089048386,-0.7358398438,0.0756835938,0.0449218750,1.3885498047,0.1068115234,-0.1678466797
0.6114709377,-0.7294921875,0.0732421875,0.0449218750,1.3885498047,0.1068115234,-0.1678466797
0.6140420437,-0.7294921875,0.0732421875,0.0449218750,1.1901855469,-0.0610351562,-0.0152587891
0.6166059971,-0.7294921875,0.0732421875,0.0449218750,1.1901855469,-0.0610351562,-0.0152587891
0.6193919182,-0.7294921875,0.0634765625,0.0556640625,1.0375976562,-0.0305175781,0.0000000000
0.6220560074,-0.7304687500,0.0634765625,0.0556640625,1.0375976562,-0.0305175781,0.0000000000
0.6252110004,-0.7304687500,0.0634765625,0.0556640625,0.9155273438,0.3814697266,0.1068115234
0.6279249191,-0.7304687500,0.0634765625,0.0556640625,0.9155273438,0.3814697266,0.1068115234
0.6306250095,-0.7299804688,0.0634765625,0.0502929688,1.0375976562,0.0457763672,0.1525878906
0.6334300041,-0.7299804688,0.0634765625,0.0502929688,1.0375976562,0.0457763672,0.1525878906
0.6361329556,-0.7299804688,0.0634765625,0.0502929688,1.0070800781,-0.2593994141,0.1831054688
0.6388800144,-0.7299804688,0.0634765625,0.0551757812,1.0070800781,-0.2593994141,0.1831054688
0.6415779591,-0.7285156250,0.0678710938,0.0551757812,0.7781982422,0.0610351562,0.4272460938
0.6442849636,-0.7285156250,0.0678710938,0.0551757812,0.7781982422,0.0610351562,0.4272460938
0.6469819546,-0.7285156250,0.0678710938,0.0551757812,0.3967285156,0.2593994141,0.3204345703
0.6497030258,-0.7285156250,0.0717773438,0.0532226562,0.3967285156,0.2593994141,0.3204345703
0.6524009705,-0.7304687500,0.0717773438,0.0532226562,0.4882812500,0.3814697266,0.4119873047
0.6550989151,-0.7304687500,0.0717773438,0.0532226562,0.4882812500,0.3814697266,0.4119873047
0.6578199863,-0.7304687500,0.0717773438,0.0532226562,1.1291503906,0.2899169922,0.3814697266
0.6603870392,-0.7358398438,0.0668945312,0.0512695312,1.1291503906,0.2899169922,0.3814697266
0.6629519463,-0.7358398438,0.0668945312,0.0512695312,0.9460449219,0.2746582031,0.7629394531
0.6655249596,-0.7358398438,0.0668945312,0.0512695312,0.9460449219,0.2746582031,0.7629394531
0.6682188511,-0.7358398438,0.0668945312,0.0512695312,0.9460449219,0.0152587891,0.6561279297
0.6707959175,-0.7338867188,0.0791015625,0.0561523438,1.0833740234,0.0152587891,0.6561279297
0.6733658314,-0.7338867188,0.0791015625,0.0561523438,1.0833740234,-3.8909912109,0.4882812500
0.6759378910,-0.7338867188,0.0791015625,0.0561523438,1.0833740234,-0.1068115234,0.4882812500
0.6786289215,-0.7338867188,0.0791015625,0.0561523438,1.0833740234,3.7994384766,0.5645751953
0.6813268661,-0.7333984375,0.0693359375,0.0454101562,0.7934570312,0.0610351562,0.5645751953
0.6840200424,-0.7333984375,0.0693359375,0.0454101562,0.7934570312,0.0610351562,0.4119873047
0.6867249012,-0.7333984375,0.0693359375,0.0454101562,0.1831054688,0.0000000000,0.4119873047
0.6893990040,-0.7333984375,0.0693359375,0.0561523438,0.1831054688,0.0000000000,0.4425048828
0.6919660568,-0.7260742188,0.0722656250,0.0561523438,-0.1831054688,0.4425048828,0.4425048828
0.6945359707,-0.7260742188,0.0722656250,0.0561523438,-0.1831054688,0.4425048828,0.4425048828
0.6972110271,-0.7260742188,0.0722656250,0.0561523438,-0.1983642578,0.3967285156,0.5798339844
0.6999218464,-0.7260742188,0.0747070312,0.0522460938,-0.1983642578,0.3967285156,0.5798339844
0.7026188374,-0.7241210938,0.0747070312,0.0522460938,-0.1831054688,0.3356933594,0.2441406250
0.7053179741,-0.7241210938,0.0747070312,0.0522460938,-0.1831054688,0.3356933594,0.2441406250
0.7080638409,-0.7241210938,0.0747070312,0.0522460938,-0.2899169922,0.4272460938,0.3051757812
0.7107648849,-0.7304687500,0.0683593750,0.0541992188,-0.2899169922,0.4272460938,0.3051757812
0.7134678364,-0.7304687500,0.0683593750,0.0541992188,0.0762939453,0.8087158203,0.5493164062
0.7161669731,-0.7304687500,0.0683593750,0.0541992188,0.0762939453,0.8087158203,0.5493164062
0.7188818455,-0.7304687500,0.0683593750,0.0541992188,0.3509521484,0.3509521484,0.5950927734
0.7215888500,-0.7270507812,0.0839843750,0.0546875000,0.3509521484,0.3509521484,0.5950927734
0.7242879868,-0.7270507812,0.0839843750,0.0546875000,0.4730224609,0.2593994141,0.2899169922
0.7269868851,-0.7270507812,0.0839843750,0.0546875000,0.4730224609,0.2593994141,0.2899169922
0.7297048569,-0.7270507812,0.0839843750,0.0522460938,0.7324218750,0.3356933594,0.0152587891
0.7324080467,-0.7363281250,0.0756835938,0.0522460938,0.7324218750,0.3356933594,-3.8909912109
0.7352080345,-0.7363281250,0.0756835938,0.0522460938,0.8697509766,0.7629394531,-0.0457763672
0.7382919788,-0.7363281250,0.0756835938,0.0522460938,0.8697509766,0.7629394531,-0.2288818359
0.7408628464,-0.7280273438,0.0722656250,0.0532226562,1.3122558594,0.6561279297,-0.2288818359
0.7434349060,-0.7280273438,0.0722656250,0.0532226562,1.3122558594,0.6561279297,-0.2288818359
0.7459979057,-0.7280273438,0.0722656250,0.0532226562,1.0375976562,0.4425048828,-0.0762939453
0.7486128807,-0.7280273438,0.0722656250,0.0532226562,1.0375976562,0.4425048828,-0.0762939453
0.7513098717,-0.7285156250,0.0678710938,0.0502929688,0.7629394531,0.5645751953,0.0305175781
0.7540090084,-0.7285156250,0.0678710938,0.0502929688,0.7629394531,0.5645751953,0.0305175781
0.7567100525,-0.7285156250,0.0678710938,0.0502929688,0.7019042969,0.5035400391,0.0610351562
0.7594139576,-0.7285156250,0.0678710938,0.0502929688,0.7019042969,0.5035400391,0.0610351562
0.7622230053,-0.7373046875,0.0683593750,0.0498046875,0.5493164062,0.4577636719,0.0915527344
0.7649290562,-0.7373046875,0.0683593750,0.0498046875,0.5493164062,0.4577636719,0.0915527344
0.7676298618,-0.7373046875,0.0683593750,0.0498046875,0.5798339844,0.5187988281,0.0915527344
0.7702250481,-0.7373046875,0.0683593750,0.0488281250,0.5798339844,0.5187988281,0.0915527344
0.7727930546,-0.7314453125,0.0722656250,0.0488281250,-0.1525878906,0.9765625000,-0.0610351562
0.7753589153,-0.7314453125,0.0722656250,0.0488281250,-0.1525878906,0.9765625000,-0.0610351562
0.7779819965,-0.7314453125,0.0722656250,0.0488281250,-0.2441406250,1.1444091797,0.0000000000
0.7805469036,-0.7314453125,0.0722656250,0.0454101562,-0.2441406250,1.1444091797,0.0000000000
0.7831108570,-0.7319335938,0.0673828125,0.0454101562,-0.1220703125,1.2969970703,0.0305175781
0.7856879234,-0.7319335938,0.0673828125,0.0454101562,-0.1220703125,1.2969970703,0.0305175781
0.7883958817,-0.7319335938,0.0673828125,0.0454101562,-0.0457763672,0.6103515625,0.3814697266
0.7909669876,-0.7319335938,0.0712890625,0.0463867188,-0.0457763672,0.6103515625,0.3814697266
0.7935309410,-0.7348632812,0.0712890625,0.0463867188,-0.3509521484,0.8697509766,0.3051757812
0.7961008549,-0.7348632812,0.0712890625,0.0463867188,-0.3509521484,0.8697509766,0.3051757812
0.7991628647,-0.7348632812,0.0712890625,0.0463867188,-0.4272460938,1.0681152344,0.0762939453
0.8029139042,-0.7270507812,0.0747070312,0.0483398438,-0.4272460938,1.0681152344,0.3967285156
0.8064348698,-0.7270507812,0.0747070312,0.0483398438,0.0762939453,0.7934570312,0.3967285156
0.8095300198,-0.7270507812,0.0747070312,0.0483398438,0.0762939453,0.9002685547,0.3356933594
0.8122308254,-0.7285156250,0.0742187500,0.0400390625,0.3204345703,0.9002685547,0.3356933594
0.8149318695,-0.7285156250,0.0742187500,0.0400390625,0.3204345703,0.8697509766,0.0152587891
0.8176310062,-0.7285156250,0.0742187500,0.0400390625,0.6256103516,0.8697509766,0.0152587891
0.8203380108,-0.7285156250,0.0742187500,0.0400390625,0.6256103516,0.5798339844,0.2746582031
0.8230419159,-0.7138671875,0.0825195312,0.0244140625,1.1444091797,0.5798339844,0.2746582031
0.8257448673,-0.7138671875,0.0825195312,0.0244140625,1.1444091797,0.5798339844,0.2136230469
0.8285648823,-0.7138671875,0.0825195312,0.0244140625,1.0681152344,0.8544921875,0.2136230469
0.8312649727,-0.7138671875,0.1040039062,0.0073242188,1.0681152344,0.9613037109,0.2746582031
0.8339669704,-0.7304687500,0.1040039062,0.0073242188,1.4038085938,0.9613037109,0.2746582031
0.8366699219,-0.7304687500,0.1040039062,0.0073242188,1.4038085938,1.4801025391,0.2136230469
0.8393800259,-0.7304687500,0.1040039062,0.0073242188,2.3803710938,1.4801025391,0.2136230469
0.8420748711,-0.7416992188,0.1137695312,0.0190429688,2.3803710938,1.4801025391,-0.5340576172
0.8447740078,-0.7416992188,0.1137695312,0.0190429688,2.6245117188,1.4953613281,-0.5340576172
0.8474709988,-0.7416992188,0.1137695312,0.0190429688,2.6245117188,1.4953613281,-0.5798339844
0.8501849174,-0.7416992188,0.1137695312,0.0190429688,3.3721923828,1.2664794922,-0.5798339844
0.8528859615,-0.7524414062,0.0859375000,0.0332031250,3.3721923828,1.1138916016,-0.6256103516
0.8557720184,-0.7524414062,0.0859375000,0.0332031250,3.7536621094,1.1138916016,-0.6256103516
0.8585059643,-0.7524414062,0.0859375000,0.0332031250,3.7536621094,0.8239746094,-0.5645751953
0.8613460064,-0.7524414062,0.0815429688,0.0512695312,3.8452148438,0.8239746094,-0.5645751953
0.8640539646,-0.7358398438,0.0815429688,0.0512695312,3.8452148438,1.2817382812,-0.4730224609
0.8667559624,-0.7358398438,0.0815429688,0.0512695312,2.9907226562,1.2817382812,-0.4730224609
0.8694610596,-0.7358398438,0.0815429688,0.0512695312,2.9907226562,1.6784667969,-0.7476806641
0.8721599579,-0.7231445312,0.0830078125,0.0629882812,3.2653808594,1.6784667969,-0.7476806641
0.8748610020,-0.7231445312,0.0830078125,0.0629882812,3.2653808594,1.5258789062,-1.0223388672
0.8775579929,-0.7231445312,0.0830078125,0.0629882812,3.9062500000,1.5258789062,-1.0223388672
0.8802678585,-0.7231445312,0.0830078125,0.0629882812,3.9062500000,1.4190673828,-0.7324218750
0.8829669952,-0.7001953125,0.0751953125,0.0576171875,5.0811767578,1.4190673828,-0.7324218750
0.8856630325,-0.7001953125,0.0751953125,0.0576171875,5.0811767578,1.2054443359,-0.4577636719
0.8883578777,-0.7001953125,0.0751953125,0.0576171875,5.9509277344,1.2054443359,-0.4577636719
0.8909249306,-0.7001953125,0.0751953125,0.0576171875,5.9509277344,1.2054443359,-0.2899169922
0.8936059475,-0.6997070312,0.1083984375,0.0507812500,5.9967041016,1.3275146484,-0.2899169922
0.8961670399,-0.6997070312,0.1083984375,0.0507812500,5.9967041016,1.3275146484,-0.1525878906
0.8987400532,-0.6997070312,0.1083984375,0.0507812500,5.4016113281,1.1749267578,-0.1525878906
0.9013140202,-0.6997070312,0.1083984375,0.0170898438,5.4016113281,1.1749267578,-0.1525878906
0.9038779736,-0.7290039062,0.0878906250,0.0170898438,4.6081542969,0.9918212891,-0.1068115234
0.9064450264,-0.7290039062,0.0878906250,0.0170898438,4.6081542969,0.9918212891,-0.1068115234
0.9091608524,-0.7290039062,0.0878906250,0.0170898438,3.1127929688,1.4343261719,0.1831054688
0.9117259979,-0.7290039062,0.0878906250,0.0400390625,3.1127929688,1.4343261719,0.1831054688
0.9142980576,-0.7270507812,0.0864257812,0.0400390625,2.6855468750,1.7089843750,0.3204345703
0.9168639183,-0.7270507812,0.0864257812,0.0400390625,2.6855468750,1.7089843750,0.3204345703
0.9195649624,-0.7270507812,0.0864257812,0.0400390625,3.0364990234,1.7852783203,0.3814697266
0.9221279621,-0.7270507812,0.0747070312,0.0395507812,3.0364990234,1.7852783203,0.3814697266
0.9246869087,-0.7402343750,0.0747070312,0.0395507812,3.4332275391,2.2430419922,0.3204345703
0.9272470474,-0.7402343750,0.0747070312,0.0395507812,3.4332275391,2.2430419922,0.3204345703
0.9300358295,-0.7402343750,0.0747070312,0.0395507812,3.6926269531,1.8310546875,0.7934570312
0.9325969219,-0.7568359375,0.0214843750,0.0566406250,3.6926269531,1.8310546875,0.7934570312
0.9351630211,-0.7568359375,0.0214843750,0.0566406250,3.1585693359,0.9002685547,1.0070800781
0.9377238750,-0.7568359375,0.0214843750,0.0566406250,3.1585693359,0.9002685547,1.0070800781
0.9403450489,-0.7568359375,0.0214843750,0.0566406250,3.1585693359,0.8239746094,1.0070800781
0.9429118633,-0.7753906250,-0.0146484375,0.0747070312,2.7923583984,0.8239746094,1.0070800781
0.9454739094,-0.7753906250,-0.0146484375,0.0747070312,2.7923583984,0.8239746094,1.3275146484
0.9480729103,-0.7753906250,-0.0146484375,0.0747070312,1.5563964844,1.7700195312,1.3275146484
0.9506409168,-0.7753906250,-0.0146484375,0.0747070312,1.5563964844,1.7700195312,2.5787353516
0.9532039165,-0.7441406250,0.0385742188,0.0629882812,-1.0223388672,2.6855468750,2.5787353516
0.9558789730,-0.7441406250,0.0385742188,0.0629882812,-1.0223388672,2.6855468750,2.5787353516
0.9585359097,-0.7441406250,0.0385742188,0.0629882812,-2.1667480469,3.3569335938,3.7994384766
0.9610989094,-0.7441406250,0.0385742188,0.0629882812,-2.1667480469,3.3569335938,3.7994384766
0.9636700153,-0.7158203125,0.0629882812,0.0727539062,-2.0141601562,3.5705566406,4.5623779297
0.9662280083,-0.7158203125,0.0629882812,0.0727539062,-2.0141601562,3.5705566406,4.5623779297
0.9688458443,-0.7158203125,0.0629882812,0.0727539062,-1.0833740234,3.5400390625,4.9438476562
0.9714088440,-0.7158203125,0.0629882812,0.0727539062,-1.0833740234,3.5400390625,4.9438476562
0.9741129875,-0.7177734375,0.0732421875,0.0639648438,0.2746582031,3.4179687500,4.7760009766
0.9766900539,-0.7177734375,0.0732421875,0.0639648438,0.2746582031,3.4179687500,4.7760009766
0.9794859886,-0.7177734375,0.0732421875,0.0639648438,2.0446777344,3.5247802734,5.5999755859
0.9820489883,-0.7177734375,0.0732421875,0.0590820312,2.0446777344,3.5247802734,5.5999755859
0.9846160412,-0.7133789062,0.0664062500,0.0590820312,3.0517578125,4.0283203125,6.5612792969
0.9871759415,-0.7133789062,0.0664062500,0.0590820312,3.0517578125,4.0283203125,6.5612792969
0.9897909164,-0.7133789062,0.0664062500,0.0590820312,3.7841796875,4.1351318359,7.5073242188
0.9923510551,-0.7133789062,0.0664062500,0.0649414062,3.7841796875,4.1351318359,7.5073242188
0.9949140549,-0.7270507812,0.0576171875,0.0649414062,7.6904296875,3.9520263672,8.2397460938
0.9974799156,-0.7270507812,0.0576171875,0.0649414062,4.1046142578,3.9520263672,8.2397460938
1.0001358986,-0.7270507812,0.0576171875,0.0649414062,4.1046142578,3.4179687500,8.4228515625
1.0027019978,-0.7270507812,0.0180664062,0.0590820312,3.1738281250,3.4179687500,8.4228515625
1.0052618980,-0.7480468750,0.0180664062,0.0590820312,3.1738281250,3.4179687500,9.0637207031
1.0078098774,-0.7480468750,0.0180664062,0.0590820312,1.7852783203,3.1890869141,9.0637207031
1.0103769302,-0.7480468750,0.0180664062,0.0590820312,1.7852783203,3.1890869141,9.0637207031
1.0129408836,-0.7480468750,0.0219726562,0.0747070312,1.4190673828,4.0435791016,9.4757080078
1.0155029297,-0.7451171875,0.0219726562,0.0747070312,1.4190673828,4.0435791016,9.4757080078
1.0182080269,-0.7451171875,0.0219726562,0.0747070312,0.0762939453,5.1116943359,10.2691650391
1.0207729340,-0.7451171875,0.0219726562,0.0747070312,0.0762939453,5.1116943359,10.2691650391
1.0233409405,-0.7441406250,0.0771484375,0.0771484375,-0.6713867188,5.6152343750,11.1694335938
1.0259058475,-0.7441406250,0.0771484375,0.0771484375,-0.6713867188,5.6152343750,11.1694335938
1.0286219120,-0.7441406250,0.0771484375,0.0771484375,-0.7781982422,6.1950683594,11.9018554688
1.0311968327,-0.7441406250,0.0771484375,0.0771484375,-0.7781982422,6.1950683594,11.9018554688
1.0337648392,-0.7583007812,0.0805664062,0.0703125000,-0.4272460938,5.8593750000,12.2375488281
1.0363290310,-0.7583007812,0.0805664062,0.0703125000,-0.4272460938,5.8593750000,12.2375488281
1.0390808582,-0.7583007812,0.0805664062,0.0703125000,0.7171630859,5.8593750000,12.2070312500
1.0417459011,-0.7583007812,0.0805664062,0.0703125000,0.7171630859,5.8593750000,12.2070312500
1.0444169044,-0.7504882812,0.0615234375,0.0629882812,1.9378662109,5.6915283203,12.7868652344
1.0470809937,-0.7504882812,0.0615234375,0.0629882812,1.9378662109,5.6915283203,12.7868652344
1.0497870445,-0.7504882812,0.0615234375,0.0629882812,2.3956298828,6.0882568359,13.6718750000
1.0524909496,-0.7504882812,0.0615234375,0.0629882812,2.3956298828,6.0882568359,13.6718750000
1.0551919937,-0.7480468750,0.0458984375,0.0698242188,1.7242431641,6.2103271484,14.6484375000
1.0579059124,-0.7480468750,0.0458984375,0.0698242188,1.7242431641,6.2103271484,14.6484375000
1.0606148243,-0.7480468750,0.0458984375,0.0698242188,-0.0305175781,6.5612792969,15.8996582031
1.0633230209,-0.7480468750,0.0312500000,0.0620117188,-0.0305175781,6.5612792969,15.8996582031
1.0660369396,-0.7456054688,0.0312500000,0.0620117188,-0.4577636719,6.7901611328,17.9901123047
1.0687499046,-0.7456054688,0.0312500000,0.0620117188,-0.4577636719,6.7901611328,17.9901123047
1.0714528561,-0.7456054688,0.0312500000,0.0620117188,-1.0375976562,7.0800781250,19.8211669922
1.0741639137,-0.7465820312,0.0180664062,0.0551757812,-1.0375976562,7.0800781250,19.8211669922
1.0768728256,-0.7465820312,0.0180664062,0.0551757812,-1.3122558594,7.2021484375,22.1099853516
1.0795848370,-0.7465820312,0.0180664062,0.0551757812,-1.3122558594,7.2021484375,22.1099853516
1.0823938847,-0.7465820312,0.0180664062,0.0551757812,-1.7395019531,7.7514648438,24.4750976562
1.0850958824,-0.7377929688,0.0112304688,0.0620117188,-1.7395019531,7.7514648438,24.4750976562
1.0878138542,-0.7377929688,0.0112304688,0.0620117188,-2.3651123047,8.0261230469,27.2674560547
1.0903799534,-0.7377929688,0.0112304688,0.0620117188,-2.3651123047,8.0261230469,27.2674560547
1.0929479599,-0.7377929688,0.0112304688,0.0620117188,-2.4108886719,7.9498291016,30.0903320312
1.0956020355,-0.7480468750,0.0073242188,0.0498046875,-2.4108886719,7.9498291016,30.0903320312
1.0981969833,-0.7480468750,0.0073242188,0.0498046875,-2.4108886719,6.8817138672,33.4320068359
1.1009058952,-0.7480468750,0.0073242188,0.0498046875,-2.5482177734,6.8817138672,33.4320068359
1.1036059856,-0.7480468750,-0.1176757812,0.0209960938,-6.4544677734,5.6610107422,37.0941162109
1.1063029766,-0.7524414062,-0.0585937500,0.0209960938,-4.8675537109,5.6610107422,37.0941162109
1.1090099812,-0.7524414062,-0.0585937500,0.0209960938,-4.8675537109,5.0964355469,39.4592285156
1.1117088795,-0.7524414062,-0.0585937500,0.0209960938,-5.7678222656,5.0964355469,39.4592285156
1.1145269871,-0.7832031250,-0.0717773438,0.0639648438,-5.7678222656,5.9967041016,41.1224365234
1.1180939674,-0.7832031250,-0.0717773438,0.0639648438,-5.1727294922,5.9967041016,41.1224365234
1.1206579208,-0.7832031250,-0.0717773438,0.0639648438,-8.4533691406,6.3018798828,44.4641113281
1.1232278347,-0.7832031250,-0.0717773438,0.0639648438,-8.4533691406,6.3018798828,44.4641113281
1.1257929802,-0.7778320312,0.0458984375,0.0761718750,-10.3912353516,6.4849853516,46.8139648438
1.1283700466,-0.7778320312,0.0458984375,0.0761718750,-10.3912353516,6.4849853516,46.8139648438
1.1309468746,-0.7778320312,0.0458984375,0.0761718750,-10.3912353516,6.0272216797,48.3093261719
1.1335158348,-0.7778320312,0.0458984375,0.0488281250,-10.4522705078,6.0272216797,48.3093261719
1.1360909939,-0.8056640625,0.0859375000,0.0488281250,-10.4522705078,6.0272216797,50.3997802734
1.1386909485,-0.8056640625,0.0859375000,0.0488281250,-9.1400146484,5.9661865234,50.3997802734
1.1412580013,-0.8056640625,0.0859375000,0.0488281250,-9.1400146484,5.9661865234,51.8188476562
1.1438300610,-0.8056640625,0.0859375000,0.0361328125,-5.4779052734,5.9356689453,51.8188476562
1.1463999748,-0.7983398438,0.0883789062,0.0361328125,-5.4779052734,5.9356689453,51.8188476562
1.1491270065,-0.7983398438,0.0883789062,0.0361328125,-2.3040771484,6.7443847656,53.2531738281
1.1516978741,-0.7983398438,0.0883789062,0.0361328125,-2.3040771484,6.7443847656,53.2531738281
1.1542618275,-0.7983398438,0.0815429688,0.0166015625,0.1068115234,6.5155029297,54.9011230469
1.1568379402,-0.7866210938,0.0815429688,0.0166015625,0.1068115234,6.5155029297,54.9011230469
1.1595649719,-0.7866210938,0.0815429688,0.0166015625,1.6174316406,5.9051513672,56.5948486328
1.1621389389,-0.7866210938,0.0815429688,0.0166015625,1.6174316406,5.9051513672,56.5948486328
1.1647109985,-0.8276367188,0.1005859375,0.0112304688,1.9226074219,5.6610107422,58.7768554688
1.1672780514,-0.8276367188,0.1005859375,0.0112304688,1.9226074219,5.6610107422,58.7768554688
1.1701169014,-0.8276367188,0.1005859375,0.0112304688,1.0986328125,5.3863525391,61.0504150391
1.1728219986,-0.8276367188,0.1005859375,0.0112304688,1.0986328125,5.3863525391,61.0504150391
1.1755218506,-0.8779296875,0.0756835938,0.0131835938,1.8768310547,4.7607421875,63.7969970703
1.1782588959,-0.8779296875,0.0756835938,0.0131835938,1.8768310547,4.7607421875,63.7969970703
1.1808269024,-0.8779296875,0.0756835938,0.0131835938,3.2806396484,4.2266845703,66.8334960938
1.1833970547,-0.8779296875,0.0756835938,0.0131835938,3.2806396484,4.2266845703,66.8334960938
1.1859738827,-0.8896484375,0.0712890625,0.0234375000,4.5318603516,3.6468505859,69.5495605469
1.1885888577,-0.8896484375,0.0712890625,0.0234375000,4.5318603516,3.6468505859,69.5495605469
1.1912908554,-0.8896484375,0.0712890625,0.0234375000,6.0424804688,2.5329589844,71.6552734375
1.1939978600,-0.8896484375,0.0712890625,0.0234375000,6.0424804688,2.5329589844,71.6552734375
1.1967010498,-0.8969726562,0.0942382812,0.0463867188,8.7738037109,1.6632080078,73.8067626953
1.1994090080,-0.8969726562,0.0942382812,0.0463867188,8.7738037109,1.6632080078,73.8067626953
1.2021079063,-0.8969726562,0.0942382812,0.0463867188,13.5955810547,1.6174316406,77.5451660156
1.2048158646,-0.8969726562,0.1386718750,0.0468750000,13.5955810547,1.6174316406,77.5451660156
1.2075250149,-0.9218750000,0.1386718750,0.0468750000,18.5852050781,0.4577636719,82.4737548828
1.2102818489,-0.9218750000,0.1386718750,0.0468750000,18.5852050781,0.4577636719,82.4737548828
1.2130980492,-0.9218750000,0.1386718750,0.0468750000,23.4527587891,-2.3498535156,86.0900878906
1.2158100605,-1.0639648438,0.0405273438,0.0742187500,23.4527587891,-2.3498535156,86.0900878906
1.2185268402,-1.0639648438,0.0405273438,0.0742187500,27.9846191406,-3.0517578125,88.6535644531
1.2212328911,-1.0639648438,0.0405273438,0.0742187500,27.9846191406,-3.0517578125,88.6535644531
1.2239480019,-1.0639648438,0.0405273438,0.0742187500,32.2418212891,-2.3803710938,92.3614501953
1.2266919613,-1.1518554688,0.0053710938,0.0322265625,32.2418212891,-2.3803710938,92.3614501953
1.2296409607,-1.1518554688,0.0053710938,0.0322265625,35.6292724609,-2.5634765625,95.9625244141
1.2322130203,-1.1518554688,0.0053710938,0.0322265625,35.6292724609,-2.5634765625,95.9625244141
1.2347929478,-1.1518554688,0.0053710938,0.0942382812,38.5131835938,-2.5939941406,98.7701416016
1.2373650074,-1.2182617188,0.0307617188,0.0942382812,38.5131835938,-2.5939941406,98.7701416016
1.2400889397,-1.2182617188,0.0307617188,0.0942382812,40.9851074219,-2.4261474609,101.1199951172
1.2427999973,-1.2182617188,0.0307617188,0.0942382812,40.9851074219,-2.4261474609,101.1199951172
1.2455079556,-1.1982421875,-0.0141601562,0.1347656250,41.3513183594,-2.1514892578,102.9815673828
1.2482519150,-1.1982421875,-0.0141601562,0.1347656250,41.3513183594,-2.1514892578,102.9815673828
1.2509598732,-1.1982421875,-0.0141601562,0.1347656250,37.9333496094,-3.0975341797,103.6071777344
1.2536690235,-1.1982421875,-0.0141601562,0.1347656250,37.9333496094,-3.0975341797,103.6071777344
1.2563769817,-1.1240234375,0.0688476562,0.1806640625,32.9742431641,-4.8065185547,104.2480468750
1.2590408325,-1.1240234375,0.0688476562,0.1806640625,32.9742431641,-4.8065185547,104.2480468750
1.2616150379,-1.1240234375,0.0688476562,0.1806640625,29.0679931641,-6.4239501953,105.6671142578
1.2641909122,-1.1240234375,0.0688476562,0.1806640625,29.3426513672,-6.4239501953,105.6671142578
1.2667598724,-1.1381835938,0.2495117188,0.2143554688,29.3426513672,-10.3302001953,105.6671142578
1.2693419456,-1.1381835938,0.2495117188,0.2143554688,26.6723632812,-8.6212158203,105.6671142578
1.2719209194,-1.1381835938,0.2495117188,0.2143554688,26.6723632812,-8.6212158203,104.6447753906
1.2744939327,-1.1381835938,0.2495117188,0.2143554688,26.5045166016,-10.4064941406,104.6447753906
1.2771790028,-1.1625976562,0.2973632812,0.1904296875,26.5045166016,-10.4064941406,103.8360595703
1.2799148560,-1.1625976562,0.2973632812,0.1904296875,30.1513671875,-9.3536376953,103.8360595703
1.2824828625,-1.1625976562,0.2973632812,0.1904296875,30.1513671875,-9.3536376953,103.8360595703
1.2850618362,-1.1625976562,0.2973632812,0.1435546875,36.8957519531,-8.4228515625,104.6447753906
1.2876360416,-1.1005859375,0.3491210938,0.1435546875,36.8957519531,-8.4228515625,104.6447753906
1.2904229164,-1.1005859375,0.3491210938,0.1435546875,43.4112548828,-9.6435546875,105.2551269531
1.2931349277,-1.1005859375,0.3491210938,0.1435546875,43.4112548828,-9.6435546875,105.2551269531
1.2958369255,-1.1005859375,0.1962890625,0.1933593750,47.2106933594,-11.0626220703,102.8289794922
1.2985608578,-1.0732421875,0.1962890625,0.1933593750,47.2106933594,-11.0626220703,102.8289794922
1.3012690544,-1.0732421875,0.1962890625,0.1933593750,49.4079589844,-9.9029541016,97.3815917969
1.3039720058,-1.0732421875,0.1962890625,0.1933593750,49.4079589844,-9.9029541016,97.3815917969
1.3066740036,-1.0156250000,0.2006835938,0.1723632812,52.5360107422,-8.8806152344,93.0023193359
1.3093919754,-1.0156250000,0.2006835938,0.1723632812,52.5360107422,-8.8806152344,93.0023193359
1.3120968342,-1.0156250000,0.2006835938,0.1723632812,55.0079345703,-9.4909667969,90.1184082031
1.3148038387,-1.0156250000,0.2006835938,0.1723632812,55.0079345703,-9.4909667969,90.1184082031
1.3175079823,-0.9448242188,0.2490234375,0.1352539062,54.3670654297,-9.8419189453,87.1582031250
1.3202319145,-0.9448242188,0.2490234375,0.1352539062,54.3670654297,-9.8419189453,87.1582031250
1.3229348660,-0.9448242188,0.2490234375,0.1352539062,52.4902343750,-9.7503662109,83.8928222656
1.3256409168,-0.9448242188,0.2490234375,0.1196289062,52.4902343750,-9.7503662109,83.8928222656
1.3283619881,-0.9165039062,0.2207031250,0.1196289062,50.4608154297,-9.9029541016,80.2154541016
1.3310680389,-0.9165039062,0.2207031250,0.1196289062,50.4608154297,-9.9029541016,80.2154541016
1.3337750435,-0.9165039062,0.2207031250,0.1196289062,48.3551025391,-9.7656250000,76.1718750000
1.3364889622,-0.8886718750,0.2104492188,0.1005859375,48.3551025391,-9.7656250000,76.1718750000
1.3392150402,-0.8886718750,0.2104492188,0.1005859375,45.4711914062,-8.8043212891,72.0520019531
1.3420369625,-0.8886718750,0.2104492188,0.1005859375,45.4711914062,-8.8043212891,72.0520019531
1.3448309898,-0.8886718750,0.2104492188,0.1005859375,43.3502197266,-8.6822509766,67.8863525391
1.3479468822,-0.8442382812,0.1884765625,0.0610351562,43.3502197266,-8.6822509766,64.1326904297
1.3506679535,-0.8442382812,0.1884765625,0.0610351562,40.5426025391,-9.2773437500,64.1326904297
1.3533768654,-0.8442382812,0.1884765625,0.0610351562,40.5426025391,-9.2773437500,60.0433349609
1.3560948372,-0.8442382812,0.1665039062,0.0283203125,36.5600585938,-9.6740722656,60.0433349609
1.3588080406,-0.8286132812,0.1665039062,0.0283203125,36.5600585938,-9.6740722656,56.0455322266
1.3615109921,-0.8286132812,0.1665039062,0.0283203125,32.0587158203,-9.6740722656,56.0455322266
1.3642220497,-0.8286132812,0.1665039062,0.0283203125,32.0587158203,-9.6740722656,52.3529052734
1.3669240475,-0.8115234375,0.1328125000,0.0136718750,26.4892578125,-9.5367431641,52.3529052734
1.3696768284,-0.8115234375,0.1328125000,0.0136718750,26.4892578125,-9.5367431641,48.9196777344
1.3723850250,-0.8115234375,0.1328125000,0.0136718750,20.2026367188,-9.5214843750,48.9196777344
1.3750970364,-0.8115234375,0.1328125000,0.0136718750,20.2026367188,-9.5214843750,44.8150634766
1.3778219223,-0.8095703125,0.0634765625,-0.0156250000,13.0157470703,-8.6364746094,44.8150634766
1.3803949356,-0.8095703125,0.0634765625,-0.0156250000,13.0157470703,-8.6364746094,44.8150634766
1.3829698563,-0.8095703125,0.0634765625,-0.0156250000,4.8675537109,-8.3160400391,41.1224365234
1.3855509758,-0.8095703125,0.0634765625,-0.0156250000,4.8675537109,-8.3160400391,41.1224365234
1.3881368637,-0.8090820312,0.0532226562,-0.0278320312,-3.4942626953,-7.7819824219,36.8347167969
1.3907120228,-0.8090820312,0.0532226562,-0.0278320312,-3.4942626953,-7.7819824219,36.8347167969
1.3932878971,-0.8090820312,0.0532226562,-0.0278320312,-12.2833251953,-7.7362060547,32.3638916016
1.3958630562,-0.8090820312,0.0532226562,-0.0278320312,-12.2833251953,-7.7362060547,32.3638916016
1.3985939026,-0.7729492188,0.0703125000,-0.0273437500,-20.7977294922,-7.6293945312,27.5268554688
1.4011669159,-0.7729492188,0.0703125000,-0.0273437500,-20.7977294922,-7.6293945312,27.5268554688
1.4037380219,-0.7729492188,0.0703125000,-0.0273437500,-27.2521972656,-7.1563720703,22.2778320312
1.4064309597,-0.7729492188,0.0703125000,0.0024414062,-27.2521972656,-7.1563720703,22.2778320312
1.4092109203,-0.7631835938,0.1049804688,0.0024414062,-30.6396484375,-6.1645507812,17.7764892578
1.4119219780,-0.7631835938,0.1049804688,0.0024414062,-30.6396484375,-6.1645507812,17.7764892578
1.4146318436,-0.7631835938,0.1049804688,0.0024414062,-32.7148437500,-5.6152343750,13.0615234375
1.4173419476,-0.7114257812,0.0834960938,-0.0078125000,-32.7148437500,-5.6152343750,13.0615234375
1.4200978279,-0.7114257812,0.0834960938,-0.0078125000,-35.1104736328,-5.6762695312,7.1105957031
1.4227979183,-0.7114257812,0.0834960938,-0.0078125000,-35.1104736328,-5.6762695312,7.1105957031
1.4255020618,-0.7114257812,0.0834960938,-0.0078125000,-37.6892089844,-5.5389404297,0.9155273438
1.4282419682,-0.6352539062,0.0429687500,-0.0039062500,-37.6892089844,-5.5389404297,0.9155273438
1.4308099747,-0.6352539062,0.0429687500,-0.0039062500,-40.3442382812,-4.6691894531,-5.7525634766
1.4333808422,-0.6352539062,0.0429687500,-0.0039062500,-40.3442382812,-4.6691894531,-5.7525634766
1.4359560013,-0.6352539062,0.0429687500,-0.0039062500,-42.1752929688,-4.1809082031,-12.4664306641
1.4385800362,-0.5644531250,0.0571289062,-0.0253906250,-42.1752929688,-4.1809082031,-12.4664306641
1.4412889481,-0.5644531250,0.0571289062,-0.0253906250,-43.8537597656,-3.9672851562,-19.1192626953
1.4439959526,-0.5644531250,0.0571289062,-0.0253906250,-43.8537597656,-3.9672851562,-19.1192626953
1.4467029572,-0.5644531250,0.0571289062,-0.0083007812,-43.8537597656,-3.3416748047,-26.2756347656
1.4494168758,-0.5078125000,0.0883789062,-0.0083007812,-45.6695556641,-3.3416748047,-26.2756347656
1.4521219730,-0.5078125000,0.0883789062,-0.0083007812,-45.6695556641,-1.9836425781,-33.2336425781
1.4548339844,-0.5078125000,0.0883789062,-0.0083007812,-46.5698242188,-1.9836425781,-33.2336425781
1.4575488567,-0.4682617188,0.0844726562,-0.0219726562,-46.5698242188,-1.4190673828,-40.9240722656
1.4602880478,-0.4682617188,0.0844726562,-0.0219726562,-46.4172363281,-1.4190673828,-40.9240722656
1.4629988670,-0.4682617188,0.0844726562,-0.0219726562,-46.4324951172,-0.8087158203,-47.9278564453
1.4658389091,-0.4682617188,0.0844726562,-0.0219726562,-46.4324951172,-0.8087158203,-47.9278564453
1.4688658714,-0.4428710938,0.1054687500,0.0004882812,-46.2036132812,-0.2288818359,-54.4433593750
1.4716908932,-0.4428710938,0.1054687500,0.0004882812,-46.2036132812,-0.2288818359,-54.4433593750
1.4744019508,-0.4428710938,0.1054687500,0.0004882812,-44.6166992188,0.3356933594,-61.0351562500
1.4771108627,-0.4428710938,0.2304687500,0.0102539062,-44.6166992188,0.3356933594,-61.0351562500
1.4797220230,-0.4179687500,0.1357421875,0.0102539062,-42.4194335938,0.5035400391,-67.5201416016
1.4822969437,-0.4179687500,0.1357421875,0.0102539062,-42.4194335938,0.5035400391,-67.5201416016
1.4848730564,-0.4179687500,0.1357421875,0.0102539062,-42.4194335938,0.9307861328,-73.2116699219
1.4874498844,-0.4179687500,0.1396484375,0.0166015625,-41.0614013672,0.9307861328,-73.2116699219
1.4901518822,-0.4331054688,0.1396484375,0.0166015625,-41.0614013672,0.9460449219,-78.1097412109
1.4928669930,-0.4331054688,0.1396484375,0.0166015625,-40.4052734375,0.9460449219,-78.1097412109
1.4955730438,-0.4331054688,0.1396484375,0.0166015625,-40.4052734375,0.8239746094,-82.9467773438
1.4982759953,-0.4311523438,0.1640625000,-0.0043945312,-40.3594970703,0.8239746094,-82.9467773438
1.5008530617,-0.4311523438,0.1640625000,-0.0043945312,-40.3594970703,0.8239746094,-87.8448486328
1.5034258366,-0.4311523438,0.1640625000,-0.0043945312,-40.0238037109,1.4190673828,-87.8448486328
1.5060069561,-0.4311523438,0.1640625000,-0.0043945312,-40.0238037109,1.4190673828,-91.7510986328
1.5086379051,-0.4345703125,0.1547851562,-0.0170898438,-39.7644042969,1.4343261719,-91.7510986328
1.5112168789,-0.4345703125,0.1547851562,-0.0170898438,-39.7644042969,1.4343261719,-95.6573486328
1.5137979984,-0.4345703125,0.1547851562,-0.0170898438,-39.7644042969,1.7395019531,-95.3369140625
1.5163719654,-0.4345703125,0.1547851562,-0.0170898438,-39.7644042969,1.7395019531,-95.3369140625
1.5190088749,-0.4296875000,0.1748046875,-0.0468750000,-41.1071777344,2.2888183594,-99.0295410156
1.5215840340,-0.4296875000,0.1748046875,-0.0468750000,-41.1071777344,2.2888183594,-99.0295410156
1.5241599083,-0.4296875000,0.1748046875,-0.0468750000,-42.5872802734,2.5482177734,-102.7526855469
1.5267379284,-0.4296875000,0.1748046875,-0.0468750000,-42.5872802734,2.5482177734,-102.7526855469
1.5294020176,-0.4257812500,0.1816406250,-0.0615234375,-44.3267822266,3.4637451172,-105.1635742188
1.5319788456,-0.4257812500,0.1816406250,-0.0615234375,-44.3267822266,3.4637451172,-105.1635742188
1.5346589088,-0.4257812500,0.1816406250,-0.0615234375,-46.2341308594,4.5013427734,-106.6436767578
1.5372309685,-0.4257812500,0.1816406250,-0.0615234375,-46.2341308594,4.5013427734,-106.6436767578
1.5399289131,-0.4243164062,0.2192382812,-0.0527343750,-48.4771728516,6.3171386719,-108.7646484375
1.5426318645,-0.4243164062,0.2192382812,-0.0527343750,-48.4771728516,6.3171386719,-108.7646484375
1.5453410149,-0.4243164062,0.2192382812,-0.0527343750,-49.1638183594,8.0108642578,-109.7259521484
1.5480899811,-0.4243164062,0.2446289062,-0.0429687500,-49.1638183594,8.0108642578,-109.7259521484
1.5507988930,-0.4086914062,0.2446289062,-0.0429687500,-49.3011474609,9.0026855469,-110.3210449219
1.5535049438,-0.4086914062,0.2446289062,-0.0429687500,-49.3011474609,9.0026855469,-110.3210449219
1.5562100410,-0.4086914062,0.2446289062,-0.0429687500,-49.2858886719,10.7727050781,-110.6872558594
1.5589349270,-0.4106445312,0.2763671875,-0.0585937500,-49.2858886719,10.7727050781,-110.6872558594
1.5616550446,-0.4106445312,0.2763671875,-0.0585937500,-48.5229492188,12.9852294922,-110.5346679688
1.5643639565,-0.4106445312,0.2763671875,-0.0585937500,-48.5229492188,12.9852294922,-110.5346679688
1.5670690536,-0.4106445312,0.2763671875,-0.0585937500,-48.5382080078,14.8468017578,-109.7564697266
1.5697939396,-0.4077148438,0.3105468750,-0.0664062500,-48.5382080078,14.8468017578,-109.7564697266
1.5724990368,-0.4077148438,0.3105468750,-0.0664062500,-48.8128662109,16.1590576172,-108.6578369141
1.5752120018,-0.4077148438,0.3105468750,-0.0664062500,-48.8128662109,16.1590576172,-108.6578369141
1.5779299736,-0.4077148438,0.3105468750,-0.0571289062,-48.9501953125,17.4102783203,-107.3760986328
1.5805089474,-0.4243164062,0.3237304688,-0.0571289062,-48.9501953125,17.4102783203,-107.3760986328
1.5830919743,-0.4243164062,0.3237304688,-0.0571289062,-48.1262207031,19.3939208984,-106.2011718750
1.5857598782,-0.4243164062,0.3237304688,-0.0571289062,-48.1262207031,19.3939208984,-106.2011718750
1.5887238979,-0.4375000000,0.3569335938,-0.0410156250,-46.6918945312,21.1791992188,-104.5074462891
1.5914418697,-0.4375000000,0.3569335938,-0.0410156250,-46.6918945312,21.1791992188,-104.5074462891
1.5941469669,-0.4375000000,0.3569335938,-0.0410156250,-44.4946289062,22.3083496094,-102.4627685547
1.5968589783,-0.4375000000,0.3569335938,-0.0410156250,-44.4946289062,22.3083496094,-102.4627685547
1.5996899605,-0.4291992188,0.3784179688,-0.0405273438,-42.6788330078,23.4222412109,-100.3265380859
1.6023998260,-0.4291992188,0.3784179688,-0.0405273438,-42.6788330078,23.4222412109,-100.3265380859
1.6051189899,-0.4291992188,0.3784179688,-0.0405273438,-41.5802001953,24.7497558594,-97.7325439453
1.6078350544,-0.4291992188,0.3784179688,-0.0405273438,-41.5802001953,24.7497558594,-97.7325439453
1.6105458736,-0.4291992188,0.3925781250,-0.0336914062,-39.5050048828,25.6347656250,-95.2453613281
1.6132488251,-0.4291992188,0.3925781250,-0.0336914062,-39.5050048828,25.6347656250,-95.2453613281
1.6159589291,-0.4291992188,0.3925781250,-0.0336914062,-38.6810302734,26.0772705078,-92.1020507812
1.6186490059,-0.4291992188,0.3671875000,-0.0170898438,-38.6810302734,26.0772705078,-92.1020507812
1.6212229729,-0.4111328125,0.3671875000,-0.0170898438,-38.4216308594,26.0009765625,-88.6230468750
1.6237959862,-0.4111328125,0.3671875000,-0.0170898438,-38.4216308594,26.0009765625,-88.6230468750
1.6263780594,-0.4111328125,0.3671875000,-0.0170898438,-42.3278808594,25.2990722656,-85.1593017578
1.6289579868,-0.4111328125,0.4096679688,-0.0122070312,-39.8712158203,25.2990722656,-85.1593017578
1.6315429211,-0.4096679688,0.4096679688,-0.0122070312,-39.8712158203,25.2990722656,-81.1462402344
1.6341178417,-0.4096679688,0.4096679688,-0.0122070312,-42.0074462891,24.9328613281,-81.1462402344
1.6366958618,-0.4096679688,0.4096679688,-0.0122070312,-42.0074462891,24.9328613281,-76.1566162109
1.6393709183,-0.3901367188,0.4462890625,-0.0180664062,-43.6248779297,25.4058837891,-76.1566162109
1.6419470310,-0.3901367188,0.4462890625,-0.0180664062,-43.6248779297,25.4058837891,-72.2503662109
1.6445250511,-0.3901367188,0.4462890625,-0.0180664062,-44.7082519531,24.5666503906,-71.0296630859
1.6471068859,-0.3901367188,0.4462890625,-0.0180664062,-44.7082519531,24.5666503906,-67.1234130859
1.6499378681,-0.4204101562,0.4931640625,0.0078125000,-46.9207763672,23.5290527344,-66.7114257812
1.6526498795,-0.4204101562,0.4931640625,0.0078125000,-46.9207763672,23.5290527344,-58.8989257812
1.6553640366,-0.4204101562,0.4931640625,0.0078125000,-47.5921630859,23.6358642578,-61.8591308594
1.6580820084,-0.4204101562,0.4931640625,0.0078125000,-47.5921630859,23.6358642578,-57.9528808594
1.6607918739,-0.4306640625,0.6005859375,-0.0112304688,-46.9665527344,24.8718261719,-56.4727783203
1.6635968685,-0.4306640625,0.6005859375,-0.0112304688,-46.9665527344,24.8718261719,-48.6602783203
1.6663069725,-0.4306640625,0.6005859375,-0.0112304688,-44.5861816406,25.3753662109,-50.3082275391
1.6690649986,-0.4306640625,0.6577148438,-0.0092773438,-44.5861816406,25.3753662109,-46.4019775391
1.6717748642,-0.4326171875,0.6577148438,-0.0092773438,-41.2292480469,23.4222412109,-43.5333251953
1.6744940281,-0.4326171875,0.6577148438,-0.0092773438,-41.2292480469,23.4222412109,-35.7208251953
1.6771948338,-0.4326171875,0.6577148438,-0.0092773438,-39.2913818359,21.8048095703,-36.9720458984
1.6798188686,-0.5034179688,0.6059570312,0.0400390625,-39.2913818359,21.8048095703,-36.9720458984
1.6823990345,-0.5034179688,0.6059570312,0.0400390625,-38.4063720703,22.3236083984,-30.9143066406
1.6849758625,-0.5034179688,0.6059570312,0.0400390625,-38.4063720703,22.3236083984,-30.9143066406
1.6875510216,-0.5034179688,0.6059570312,0.0400390625,-37.6586914062,23.2696533203,-24.8107910156
1.6903128624,-0.5605468750,0.4912109375,0.0307617188,-37.6586914062,23.2696533203,-24.8107910156
1.6930239201,-0.5605468750,0.4912109375,0.0307617188,-38.3453369141,23.0407714844,-19.2871093750
1.6957418919,-0.5605468750,0.4912109375,0.0307617188,-38.3453369141,23.0407714844,-19.2871093750
1.6984949112,-0.5605468750,0.4912109375,0.0307617188,-41.3818359375,21.6064453125,-13.5345458984
1.7012019157,-0.5585937500,0.4365234375,0.0322265625,-41.3818359375,21.6064453125,-13.5345458984
1.7039599419,-0.5585937500,0.4365234375,0.0322265625,-44.6472167969,20.6146240234,-7.4157714844
1.7068419456,-0.5585937500,0.4365234375,0.0322265625,-44.6472167969,20.6146240234,-7.4157714844
1.7096829414,-0.5585937500,0.4487304688,0.0473632812,-48.0346679688,19.9584960938,-1.7242431641
1.7123918533,-0.5498046875,0.4487304688,0.0473632812,-48.0346679688,19.9584960938,-1.7242431641
1.7150969505,-0.5498046875,0.4487304688,0.0473632812,-49.6826171875,18.8140869141,2.5787353516
1.7178208828,-0.5498046875,0.4487304688,0.0473632812,-49.6826171875,18.8140869141,2.5787353516
1.7205300331,-0.5488281250,0.4404296875,0.0581054688,-49.3011474609,18.6004638672,7.0800781250
1.7232358456,-0.5488281250,0.4404296875,0.0581054688,-49.3011474609,18.6004638672,7.0800781250
1.7259500027,-0.5488281250,0.4404296875,0.0581054688,-47.5921630859,17.9748535156,11.4135742188
1.7287378311,-0.5488281250,0.4404296875,0.0581054688,-47.5921630859,17.9748535156,11.4135742188
1.7313230038,-0.5292968750,0.3691406250,0.0766601562,-46.5698242188,17.1813964844,14.9993896484
1.7338988781,-0.5292968750,0.3691406250,0.0766601562,-46.5698242188,17.1813964844,14.9993896484
1.7364759445,-0.5292968750,0.3691406250,0.0766601562,-47.3327636719,15.7012939453,18.0664062500
1.7390868664,-0.5292968750,0.3691406250,0.0766601562,-47.3327636719,15.7012939453,18.0664062500
1.7416620255,-0.5009765625,0.3496093750,0.0854492188,-48.6145019531,14.3890380859,21.0571289062
1.7442400455,-0.5009765625,0.3496093750,0.0854492188,-48.6145019531,14.3890380859,21.0571289062
1.7468218803,-0.5009765625,0.3496093750,0.0854492188,-49.8962402344,10.9863281250,26.6418457031
1.7494440079,-0.5009765625,0.3496093750,0.3588867188,-49.8962402344,10.9863281250,26.6418457031
1.7520248890,-0.8149414062,0.6435546875,0.3588867188,-55.1910400391,2.2430419922,39.0625000000
1.7546000481,-0.8149414062,0.6435546875,0.3588867188,-55.1910400391,2.2430419922,39.0625000000
1.7571778297,-0.8149414062,0.6435546875,0.3588867188,-62.7288818359,-11.0015869141,59.8907470703
1.7599189281,-0.8149414062,0.9404296875,0.7597656250,-62.7288818359,-11.0015869141,59.8907470703
1.7624979019,-1.5307617188,0.9404296875,0.7597656250,-66.6351318359,-27.3284912109,81.5124511719
1.7650718689,-1.5307617188,0.9404296875,0.7597656250,-69.3817138672,-27.3284912109,81.5124511719
1.7676508427,-1.5307617188,0.9404296875,0.7597656250,-69.3817138672,-36.2701416016,94.8181152344
1.7704420090,-1.9208984375,0.7641601562,0.6186523438,-68.3441162109,-36.2701416016,94.8181152344
1.7731568813,-1.9208984375,0.7641601562,0.6186523438,-68.3441162109,-31.2347412109,96.7407226562
1.7758638859,-1.9208984375,0.7641601562,0.6186523438,-51.6815185547,-31.2347412109,96.7407226562
1.7785530090,-1.9208984375,0.7641601562,0.6186523438,-51.6815185547,-19.5159912109,88.1958007812
1.7811338902,-1.3554687500,0.1528320312,0.0673828125,-25.3448486328,-19.1650390625,88.1958007812
1.7837109566,-1.3554687500,0.1528320312,0.0673828125,-25.3448486328,-19.1650390625,77.0721435547
1.7862868309,-1.3554687500,0.1528320312,0.0673828125,-2.8076171875,-7.4768066406,77.0721435547
1.7889380455,-1.3554687500,0.1528320312,0.0673828125,-2.8076171875,-7.4768066406,65.5822753906
1.7916388512,-0.5776367188,-0.3247070312,-0.3642578125,14.3127441406,-0.6561279297,65.5822753906
1.7944579124,-0.5776367188,-0.3247070312,-0.3642578125,14.3127441406,-0.6561279297,58.4259033203
1.7971658707,-0.5776367188,-0.3247070312,-0.3642578125,20.0347900391,-0.4882812500,58.4259033203
1.7998800278,-0.5776367188,-0.3247070312,-0.3691406250,20.0347900391,-0.4882812500,57.2662353516
1.8025898933,-0.3198242188,-0.3691406250,-0.3691406250,13.5040283203,-2.8686523438,57.2662353516
1.8052949905,-0.3198242188,-0.3691406250,-0.3691406250,13.5040283203,-2.8686523438,62.1948242188
1.8080508709,-0.3198242188,-0.3691406250,-0.3691406250,-0.7019042969,-4.5013427734,62.1948242188
1.8107519150,-0.4448242188,-0.0502929688,-0.1650390625,-0.7019042969,-4.5013427734,69.1223144531
1.8134560585,-0.4174804688,-0.0502929688,-0.1650390625,-18.7683105469,-4.0283203125,69.1223144531
1.8161649704,-0.4174804688,-0.0502929688,-0.1650390625,-18.7683105469,-4.0283203125,74.1729736328
1.8188779354,-0.4174804688,-0.0502929688,-0.1650390625,-39.2456054688,-2.5024414062,74.1729736328
1.8215768337,-0.3813476562,0.2802734375,0.0307617188,-39.2456054688,-2.5024414062,77.1026611328
1.8243629932,-0.3813476562,0.2802734375,0.0307617188,-59.0820312500,-3.6773681641,77.1026611328
1.8270719051,-0.3813476562,0.2802734375,0.0307617188,-59.0820312500,-3.6773681641,78.1555175781
1.8298430443,-0.3813476562,0.2802734375,0.0307617188,-75.4394531250,-8.8500976562,78.1555175781
1.8328049183,-0.2573242188,0.4218750000,0.1508789062,-75.4394531250,-8.8500976562,79.3914794922
1.8353819847,-0.2573242188,0.4218750000,0.1508789062,-90.1031494141,-14.8925781250,79.3914794922
1.8380360603,-0.2573242188,0.4218750000,0.1508789062,-90.1031494141,-14.8925781250,79.0557861328
1.8407418728,-0.2573242188,0.3515625000,0.1586914062,-103.0120849609,-20.9197998047,79.0557861328
1.8434510231,-0.1533203125,0.3515625000,0.1586914062,-103.0120849609,-20.9197998047,76.6296386719
1.8461630344,-0.1533203125,0.3515625000,0.1586914062,-113.3270263672,-26.3824462891,76.6296386719
1.8488819599,-0.1533203125,0.3515625000,0.1586914062,-113.3270263672,-26.3824462891,72.7691650391
1.8515939713,-0.1660156250,0.4653320312,0.1103515625,-114.4409179688,-31.1737060547,72.7691650391
1.8543078899,-0.1660156250,0.4653320312,0.1103515625,-114.4409179688,-31.1737060547,68.4051513672
1.8570120335,-0.1660156250,0.4653320312,0.1103515625,-104.3701171875,-34.9578857422,68.4051513672
1.8597629070,-0.1660156250,0.4653320312,0.1103515625,-104.3701171875,-34.9578857422,63.9343261719
1.8623368740,-0.3500976562,0.7812500000,0.0009765625,-84.9914550781,-38.0706787109,63.9343261719
1.8649129868,-0.3500976562,0.7812500000,0.0009765625,-84.9914550781,-38.0706787109,63.9343261719
1.8674979210,-0.3500976562,0.7812500000,0.0009765625,-58.5784912109,-39.0472412109,59.1125488281
1.8700759411,-0.3500976562,0.7812500000,0.0009765625,-58.5784912109,-39.0472412109,59.1125488281
1.8726530075,-0.7485351562,0.9487304688,0.0083007812,-27.7557373047,-38.1317138672,53.2531738281
1.8752348423,-0.7485351562,0.9487304688,0.0083007812,-27.7557373047,-38.1317138672,53.2531738281
1.8779170513,-0.7485351562,0.9487304688,0.0083007812,-1.9226074219,-38.3605957031,47.0581054688
1.8804960251,-0.7485351562,0.9487304688,-0.1166992188,-1.9226074219,-38.3605957031,47.0581054688
1.8830690384,-1.1372070312,0.6562500000,-0.0136718750,15.3045654297,-37.5213623047,38.5742187500
1.8856420517,-1.1372070312,0.6562500000,-0.0136718750,15.3045654297,-37.5213623047,38.5742187500
1.8883910179,-1.1372070312,0.6562500000,-0.0136718750,28.7933349609,-34.3475341797,28.8543701172
1.8911018372,-1.1372070312,0.2802734375,-0.0825195312,28.7933349609,-34.3475341797,28.8543701172
1.8938119411,-1.2255859375,0.2802734375,-0.0825195312,35.9039306641,-33.0047607422,22.3236083984
1.8965229988,-1.2255859375,0.2802734375,-0.0825195312,35.9039306641,-33.0047607422,22.3236083984
1.8992769718,-1.2255859375,0.2802734375,-0.0825195312,38.0401611328,-32.0739746094,18.8446044922
1.9019908905,-1.1240234375,0.1357421875,-0.0615234375,38.0401611328,-32.0739746094,18.8446044922
1.9046988487,-1.1240234375,0.1357421875,-0.0615234375,34.4085693359,-30.9906005859,17.2119140625
1.9074099064,-1.1240234375,0.1357421875,-0.0615234375,34.4085693359,-30.9906005859,17.2119140625
1.9100248814,-1.1240234375,0.1357421875,-0.0615234375,22.3541259766,-29.7241210938,16.2963867188
1.9126009941,-0.9013671875,0.1494140625,-0.0180664062,22.3541259766,-29.7241210938,16.2963867188
1.9151799679,-0.9013671875,0.1494140625,-0.0180664062,7.6141357422,-27.7557373047,15.7165527344
1.9177899361,-0.9013671875,0.1494140625,-0.0180664062,7.6141357422,-27.7557373047,15.7165527344
1.9205038548,-0.9013671875,0.1494140625,-0.0180664062,-2.7160644531,-26.1993408203,14.6636962891
1.9233200550,-0.5878906250,0.3305664062,0.0341796875,-2.7160644531,-26.1993408203,14.6636962891
1.9260299206,-0.5878906250,0.3305664062,0.0341796875,-9.8114013672,-25.4211425781,12.7868652344
1.9287550449,-0.5878906250,0.3305664062,0.0341796875,-9.8114013672,-25.4211425781,12.7868652344
1.9314670563,-0.5878906250,0.3774414062,0.1855468750,-14.4348144531,-22.9034423828,9.9639892578
1.9341709614,-0.4365234375,0.3774414062,0.1855468750,-14.4348144531,-22.9034423828,9.9639892578
1.9368839264,-0.4365234375,0.3774414062,0.1855468750,-14.6636962891,-20.1873779297,6.5002441406
1.9396069050,-0.4365234375,0.3774414062,0.1855468750,-14.6636962891,-20.1873779297,6.5002441406
1.9423129559,-0.5161132812,0.3286132812,0.2768554688,-13.4124755859,-20.3399658203,2.4871826172
1.9451639652,-0.5161132812,0.3286132812,0.2768554688,-13.4124755859,-20.3399658203,2.4871826172
1.9482550621,-0.5161132812,0.3286132812,0.2768554688,-9.4604492188,-21.6217041016,-1.3885498047
1.9508349895,-0.5161132812,0.3286132812,0.2768554688,-9.4604492188,-21.6217041016,-1.3885498047
1.9534058571,-0.7036132812,0.3276367188,0.2695312500,-3.9825439453,-22.3541259766,-5.4016113281
1.9559769630,-0.7036132812,0.3276367188,0.2695312500,-3.9825439453,-22.3541259766,-5.4016113281
1.9585959911,-0.7036132812,0.3276367188,0.2695312500,1.2969970703,-21.7285156250,-8.8348388672
1.9613049030,-0.7036132812,0.3276367188,0.2089843750,1.2969970703,-21.7285156250,-8.8348388672
1.9640078545,-0.8256835938,0.3378906250,0.2089843750,6.6070556641,-21.5759277344,-12.6037597656
1.9667210579,-0.8256835938,0.3378906250,0.2089843750,6.6070556641,-21.5759277344,-12.6037597656
1.9694800377,-0.8256835938,0.3378906250,0.2089843750,10.6964111328,-20.7214355469,-15.9301757812
1.9721980095,-0.9506835938,0.3500976562,0.1225585938,10.6964111328,-20.7214355469,-15.9301757812
1.9748990536,-0.8979492188,0.3500976562,0.1225585938,14.8162841797,-19.0429687500,-18.6767578125
1.9776070118,-0.8979492188,0.3500976562,0.1225585938,14.8162841797,-19.0429687500,-18.6767578125
1.9802129269,-0.8979492188,0.3500976562,0.1225585938,18.7225341797,-17.6086425781,-20.4467773438
1.9827878475,-0.8339843750,0.3642578125,0.0981445312,18.6614990234,-17.6086425781,-20.4467773438
1.9853680134,-0.8339843750,0.3642578125,0.0981445312,18.6614990234,-17.6086425781,-22.4151611328
1.9881219864,-0.8339843750,0.3642578125,0.0981445312,20.6756591797,-15.9301757812,-22.4151611328
1.9907078743,-0.8339843750,0.3642578125,0.0981445312,20.6756591797,-12.0239257812,-24.8718261719
1.9932889938,-0.7446289062,0.3969726562,0.0991210938,19.8516845703,-15.0909423828,-24.8718261719
1.9958648682,-0.7446289062,0.3969726562,0.0991210938,19.8516845703,-15.0909423828,-26.3977050781
1.9986000061,-0.7446289062,0.3969726562,0.0991210938,17.4102783203,-13.9770507812,-26.3977050781
2.0011839867,-0.7446289062,0.3969726562,0.0991210938,17.4102783203,-13.9770507812,-30.3039550781
2.0037610531,-0.6875000000,0.3657226562,0.0668945312,14.8468017578,-13.6108398438,-28.2592773438
2.0063378811,-0.6875000000,0.3657226562,0.0668945312,14.8468017578,-13.6108398438,-28.2592773438
2.0090818405,-0.6875000000,0.3657226562,0.0668945312,10.9710693359,-14.3432617188,-31.0058593750
2.0117900372,-0.6875000000,0.3657226562,0.1064453125,10.9710693359,-14.3432617188,-31.0058593750
2.0145030022,-0.6826171875,0.3417968750,0.1064453125,7.8582763672,-14.4805908203,-32.7911376953
2.0172090530,-0.6826171875,0.3417968750,0.1064453125,7.8582763672,-14.4805908203,-32.7911376953
2.0199239254,-0.6826171875,0.3417968750,0.1064453125,6.5765380859,-14.0228271484,-34.5153808594
2.0226318836,-0.6826171875,0.3276367188,0.1015625000,6.5765380859,-14.0228271484,-34.5153808594
2.0253398418,-0.6630859375,0.3276367188,0.1015625000,5.3558349609,-14.1296386719,-36.3616943359
2.0280749798,-0.6630859375,0.3276367188,0.1015625000,5.3558349609,-14.1296386719,-36.3616943359
2.0306520462,-0.6630859375,0.3276367188,0.1015625000,5.3405761719,-14.7399902344,-38.3911132812
2.0332250595,-0.6899414062,0.3320312500,0.1176757812,5.3405761719,-14.7399902344,-38.3911132812
2.0358059406,-0.6899414062,0.3320312500,0.1176757812,6.1492919922,-14.2669677734,-40.1611328125
2.0383739471,-0.6899414062,0.3320312500,0.1176757812,6.1492919922,-14.2669677734,-40.1611328125
2.0409410000,-0.6899414062,0.3320312500,0.1176757812,8.0261230469,-13.9617919922,-41.7785644531
2.0435140133,-0.7250976562,0.3105468750,0.1010742188,8.0261230469,-13.9617919922,-41.7785644531
2.0460839272,-0.7250976562,0.3105468750,0.1010742188,10.2081298828,-14.3737792969,-43.2586669922
2.0488169193,-0.7250976562,0.3105468750,0.1010742188,10.2081298828,-14.3737792969,-43.2586669922
2.0515079498,-0.7250976562,0.3105468750,0.1010742188,13.6566162109,-14.1143798828,-44.0979003906
2.0540838242,-0.7504882812,0.2666015625,0.1074218750,13.6566162109,-14.1143798828,-44.0979003906
2.0566608906,-0.7504882812,0.2666015625,0.1074218750,16.9067382812,-13.0767822266,-45.1965332031
2.0592789650,-0.7504882812,0.2666015625,0.1074218750,16.9067382812,-13.0767822266,-45.1965332031
2.0618438721,-0.7504882812,0.2666015625,0.1074218750,20.8129882812,-11.9018554688,-45.3491210938
2.0645229816,-0.7485351562,0.2421875000,0.1308593750,19.5465087891,-11.9018554688,-45.3491210938
2.0670988560,-0.7485351562,0.2421875000,0.1308593750,22.5372314453,-11.2152099609,-45.1965332031
2.0700469017,-0.7485351562,0.2421875000,0.1308593750,22.5372314453,-11.2152099609,-45.1965332031
2.0726208687,-0.7485351562,0.2421875000,0.1450195312,22.5372314453,-10.4217529297,-45.6695556641
2.0751960278,-0.7124023438,0.1865234375,0.1450195312,24.5208740234,-10.4217529297,-45.6695556641
2.0778129101,-0.7124023438,0.1865234375,0.1450195312,24.5208740234,-10.4217529297,-46.4324951172
2.0805258751,-0.7124023438,0.1865234375,0.1450195312,26.2145996094,-10.1318359375,-46.4324951172
2.0832388401,-0.7124023438,0.1831054688,0.1538085938,26.2145996094,-10.1318359375,-46.5087890625
2.0859498978,-0.6748046875,0.1831054688,0.1538085938,27.1911621094,-10.1165771484,-46.5087890625
2.0886659622,-0.6748046875,0.1831054688,0.1538085938,27.1911621094,-10.1165771484,-45.6848144531
2.0913829803,-0.6748046875,0.1831054688,0.1538085938,27.5726318359,-10.7269287109,-45.6848144531
2.0940890312,-0.6621093750,0.1679687500,0.1220703125,27.5726318359,-10.7269287109,-45.3186035156
2.0967969894,-0.6621093750,0.1679687500,0.1220703125,30.0598144531,-11.2915039062,-45.3186035156
2.0994460583,-0.6621093750,0.1679687500,0.1220703125,30.0598144531,-11.2915039062,-45.8221435547
2.1020188332,-0.6621093750,0.1679687500,0.1220703125,30.9295654297,-12.2833251953,-45.8221435547
2.1045939922,-0.7319335938,0.1650390625,0.1206054688,30.9295654297,-12.2833251953,-45.8221435547
2.1071710587,-0.7319335938,0.1650390625,0.1206054688,31.2957763672,-12.3596191406,-46.0968017578
2.1098070145,-0.7319335938,0.1650390625,0.1206054688,31.2957763672,-12.3596191406,-46.0968017578
2.1123859882,-0.7319335938,0.1650390625,0.1206054688,33.1420898438,-12.1154785156,-45.7000732422
2.1150729656,-0.7934570312,0.1323242188,0.0727539062,33.1420898438,-12.1154785156,-45.7000732422
2.1176588535,-0.7934570312,0.1323242188,0.0727539062,34.7900390625,-11.1541748047,-44.3267822266
2.1203279495,-0.7934570312,0.1323242188,0.0727539062,34.7900390625,-11.1541748047,-44.3267822266
2.1229050159,-0.7934570312,0.1323242188,0.1137695312,34.4390869141,-11.2609863281,-42.5109863281
2.1254830360,-0.7553710938,0.1743164062,0.1137695312,34.4390869141,-11.2609863281,-42.5109863281
2.1282098293,-0.7553710938,0.1743164062,0.1137695312,32.7606201172,-12.3291015625,-40.9851074219
2.1309030056,-0.7553710938,0.1743164062,0.1137695312,32.7606201172,-12.3291015625,-40.9851074219
2.1335999966,-0.7553710938,0.1738281250,0.1191406250,32.3486328125,-12.2222900391,-40.0695800781
2.1362969875,-0.7294921875,0.1738281250,0.1191406250,32.3486328125,-12.2222900391,-40.0695800781
2.1389918327,-0.7294921875,0.1738281250,0.1191406250,34.0728759766,-11.0168457031,-39.3981933594
2.1416678429,-0.7294921875,0.1738281250,0.1191406250,34.0728759766,-11.0168457031,-39.3981933594
2.1443400383,-0.6962890625,0.1235351562,0.1191406250,36.2854003906,-9.7961425781,-38.7725830078
2.1470119953,-0.6962890625,0.1235351562,0.1191406250,36.2854003906,-9.7961425781,-38.7725830078
2.1497609615,-0.6962890625,0.1235351562,0.1191406250,35.1409912109,-8.3312988281,-37.5213623047
2.1523368359,-0.6962890625,0.1235351562,0.1191406250,35.1409912109,-8.3312988281,-37.5213623047
2.1549139023,-0.6538085938,0.1401367188,0.1416015625,31.6619873047,-6.3629150391,-36.4532470703
2.1574869156,-0.6538085938,0.1401367188,0.1416015625,31.6619873047,-6.3629150391,-36.4532470703
2.1600730419,-0.6538085938,0.1401367188,0.1416015625,26.8554687500,-5.0354003906,-35.2325439453
2.1626529694,-0.6538085938,0.1401367188,0.1416015625,26.8554687500,-5.0354003906,-35.2325439453
2.1652228832,-0.6254882812,0.1650390625,0.1596679688,26.8554687500,-4.2877197266,-34.1491699219
2.1678199768,-0.6254882812,0.1650390625,0.1596679688,23.4832763672,-4.2877197266,-34.1491699219
2.1705260277,-0.6254882812,0.1650390625,0.1596679688,23.4832763672,-2.8381347656,-33.1726074219
2.1732239723,-0.6254882812,0.1650390625,0.1596679688,22.2015380859,-2.8381347656,-33.1726074219
2.1759319305,-0.6132812500,0.2236328125,0.1958007812,22.2015380859,-1.4801025391,-32.1350097656
2.1787929535,-0.6132812500,0.2236328125,0.1958007812,21.8200683594,-1.4801025391,-32.1350097656
2.1814990044,-0.6132812500,0.2236328125,0.1958007812,21.8200683594,-1.2512207031,-31.6162109375
2.1844439507,-0.6274414062,0.2246093750,0.1816406250,21.6674804688,-1.2512207031,-31.6162109375
2.1871550083,-0.6274414062,0.2246093750,0.1816406250,23.7884521484,-1.2512207031,-31.4483642578
2.1902730465,-0.6274414062,0.2246093750,0.1816406250,23.7884521484,-1.2512207031,-31.4483642578
2.1929800510,-0.6274414062,0.2246093750,0.1816406250,24.7802734375,-1.3427734375,-31.5551757812
2.1956870556,-0.6840820312,0.1718750000,0.1762695312,24.7802734375,-1.3427734375,-31.5551757812
2.1983768940,-0.6840820312,0.1718750000,0.1762695312,22.7203369141,-1.9378662109,-31.0516357422
2.2009508610,-0.6840820312,0.1718750000,0.1762695312,22.7203369141,-1.9378662109,-31.0516357422
2.2035319805,-0.6840820312,0.1718750000,0.0512695312,20.3704833984,-2.3345947266,-29.8919677734
2.2061090469,-0.7065429688,0.0830078125,0.1093750000,20.3704833984,-2.3345947266,-29.8919677734
2.2087459564,-0.7065429688,0.0830078125,0.1093750000,16.4642333984,-1.8005371094,-28.6865234375
2.2114539146,-0.7065429688,0.0830078125,0.1093750000,17.3797607422,-1.8005371094,-28.6865234375
2.2141699791,-0.7065429688,0.0708007812,0.1098632812,13.4735107422,-0.9307861328,-27.2827148438
2.2168779373,-0.6777343750,0.0708007812,0.1098632812,13.0462646484,-0.9307861328,-27.2827148438
2.2195188999,-0.6777343750,0.0708007812,0.1098632812,13.0462646484,-0.9307861328,-25.2532958984
2.2220900059,-0.6777343750,0.0708007812,0.1098632812,9.3231201172,-0.5950927734,-25.2532958984
2.2246680260,-0.6777343750,0.1152343750,0.0410156250,9.3231201172,-0.5950927734,-22.9797363281
2.2272398472,-0.6616210938,0.1152343750,0.0410156250,7.1868896484,-0.6561279297,-22.9797363281
2.2298209667,-0.6616210938,0.1152343750,0.0410156250,7.1868896484,-0.6561279297,-22.9797363281
2.2323958874,-0.6616210938,0.1152343750,0.0410156250,3.0670166016,-0.8544921875,-20.8435058594
2.2349679470,-0.6982421875,0.0996093750,0.0400390625,3.0670166016,-0.8544921875,-20.8435058594
2.2375359535,-0.6982421875,0.0996093750,0.0400390625,0.5645751953,0.5035400391,-18.4326171875
2.2402849197,-0.6982421875,0.0996093750,0.0400390625,0.5645751953,0.5035400391,-18.4326171875
2.2429678440,-0.6982421875,0.0996093750,0.0400390625,1.2664794922,2.1820068359,-16.4947509766
2.2455439568,-0.6977539062,0.1386718750,0.0698242188,1.2664794922,2.1820068359,-16.4947509766
2.2482080460,-0.6977539062,0.1386718750,0.0698242188,1.6479492188,3.6926269531,-14.2059326172
2.2507908344,-0.6977539062,0.1386718750,0.0698242188,1.6479492188,3.6926269531,-14.2059326172
2.2533638477,-0.6977539062,0.1386718750,0.0698242188,3.3874511719,4.2266845703,-11.6729736328
2.2559330463,-0.6694335938,0.2407226562,0.1005859375,3.3874511719,4.2266845703,-11.6729736328
2.2585530281,-0.6694335938,0.2407226562,0.1005859375,6.3781738281,3.3874511719,-9.7351074219
2.2612619400,-0.6694335938,0.2407226562,0.1005859375,6.3781738281,3.3874511719,-9.7351074219
2.2639548779,-0.6694335938,0.2407226562,0.1005859375,11.0626220703,2.9449462891,-9.0026855469
2.2666668892,-0.6801757812,0.2060546875,0.1025390625,11.0626220703,2.9449462891,-9.0026855469
2.2693810463,-0.6801757812,0.2060546875,0.1025390625,16.5100097656,4.0435791016,-6.9427490234
2.2720830441,-0.6801757812,0.2060546875,0.1025390625,16.5100097656,4.0435791016,-6.9427490234
2.2747929096,-0.6801757812,0.1176757812,0.1225585938,20.9045410156,5.1269531250,-3.4332275391
2.2774939537,-0.6835937500,0.1176757812,0.1225585938,20.9045410156,5.1269531250,-3.4332275391
2.2802059650,-0.6835937500,0.1176757812,0.1225585938,22.5830078125,4.4860839844,-0.1373291016
2.2829089165,-0.6835937500,0.1176757812,0.1225585938,22.5830078125,4.4860839844,-0.1373291016
2.2856130600,-0.6811523438,0.0107421875,0.1323242188,22.8881835938,2.3803710938,2.5787353516
2.2883310318,-0.6811523438,0.0107421875,0.1323242188,22.8881835938,2.3803710938,2.5787353516
2.2910308838,-0.6811523438,0.0107421875,0.1323242188,21.3012695312,1.2664794922,4.4555664062
2.2937309742,-0.6811523438,0.0107421875,0.1323242188,21.3012695312,1.2664794922,4.4555664062
2.2964370251,-0.7226562500,-0.1049804688,0.1381835938,18.1274414062,0.7324218750,5.7525634766
2.2990920544,-0.7226562500,-0.1049804688,0.1381835938,18.1274414062,0.7324218750,5.7525634766
2.3016619682,-0.7226562500,-0.1049804688,0.1381835938,14.2974853516,0.7781982422,8.0413818359
2.3043990135,-0.7226562500,-0.1049804688,0.1381835938,14.2974853516,0.7781982422,8.0413818359
2.3070929050,-0.7392578125,-0.1811523438,0.1406250000,10.2996826172,0.6713867188,9.7656250000
2.3101029396,-0.7392578125,-0.1811523438,0.1406250000,10.2996826172,0.6713867188,9.7656250000
2.3128080368,-0.7392578125,-0.1811523438,0.1406250000,2.6092529297,0.8392333984,11.7034912109
2.3155088425,-0.7392578125,0.0141601562,0.1391601562,2.6092529297,0.8392333984,11.7034912109
2.3182618618,-0.7495117188,0.0141601562,0.1391601562,-3.8452148438,1.8005371094,13.7023925781
2.3209638596,-0.7495117188,0.0141601562,0.1391601562,-3.8452148438,1.8005371094,13.7023925781
2.3236749172,-0.7495117188,0.0141601562,0.1391601562,-5.0354003906,0.8239746094,15.8386230469
2.3263750076,-0.7607421875,0.2011718750,0.1059570312,-5.0354003906,0.8239746094,15.8386230469
2.3290870190,-0.7607421875,0.2011718750,0.1059570312,-2.6397705078,0.2593994141,16.6473388672
2.3317940235,-0.7607421875,0.2011718750,0.1059570312,-2.6397705078,0.2593994141,16.6473388672
2.3344979286,-0.7607421875,0.2011718750,0.1059570312,3.4942626953,0.2593994141,16.4184570312
2.3371989727,-0.7373046875,0.2050781250,0.0693359375,3.4942626953,0.2593994141,16.4184570312
2.3398170471,-0.7373046875,0.2050781250,0.0693359375,11.3067626953,-0.2136230469,15.5487060547
2.3423919678,-0.7373046875,0.2050781250,0.0693359375,11.3067626953,-0.2136230469,15.5487060547
2.3449678421,-0.7373046875,0.2050781250,0.0615234375,19.1192626953,-0.5493164062,15.7012939453
2.3475408554,-0.7084960938,0.1879882812,0.0615234375,17.6391601562,-0.5493164062,15.7012939453
2.3501598835,-0.7084960938,0.1879882812,0.0615234375,17.6391601562,-0.5493164062,15.5487060547
2.3527419567,-0.7084960938,0.1879882812,0.0615234375,20.4467773438,-1.2512207031,15.5487060547
2.3553149700,-0.7084960938,0.1879882812,0.0576171875,20.4467773438,-1.2512207031,14.9688720703
2.3579599857,-0.7436523438,0.1386718750,0.0576171875,21.8505859375,-1.2054443359,14.9688720703
2.3605539799,-0.7436523438,0.1386718750,0.0576171875,21.8505859375,-1.2054443359,18.8751220703
2.3631310463,-0.7436523438,0.1386718750,0.0576171875,22.0031738281,-0.5035400391,15.9301757812
2.3657100201,-0.7436523438,0.1127929688,0.0673828125,22.0031738281,-0.5035400391,15.9301757812
2.3684179783,-0.7656250000,0.1127929688,0.0673828125,20.4925537109,0.2288818359,18.0206298828
2.3712320328,-0.7656250000,0.1127929688,0.0673828125,20.4925537109,0.2288818359,18.0206298828
2.3739399910,-0.7656250000,0.1127929688,0.0673828125,17.2271728516,-0.7171630859,18.5089111328
2.3766429424,-0.7622070312,0.0805664062,0.1025390625,17.2271728516,-0.7171630859,18.5089111328
2.3793630600,-0.7622070312,0.0805664062,0.1025390625,15.2893066406,-1.6784667969,17.7307128906
2.3820788860,-0.7622070312,0.0805664062,0.1025390625,15.2893066406,-1.6784667969,17.7307128906
2.3847799301,-0.7622070312,0.0805664062,0.1025390625,14.4042968750,-1.4038085938,17.3645019531
2.3874869347,-0.8076171875,0.0844726562,0.1074218750,14.4042968750,-1.4038085938,17.3645019531
2.3900749683,-0.8076171875,0.0844726562,0.1074218750,12.2375488281,-2.1057128906,17.1813964844
2.3926470280,-0.8076171875,0.0844726562,0.1074218750,12.2375488281,-2.1057128906,17.1813964844
2.3952238560,-0.8076171875,0.0844726562,0.1074218750,12.3138427734,-2.1667480469,16.3421630859
2.3978109360,-0.8740234375,-0.0346679688,0.1196289062,12.3138427734,-2.1667480469,16.3421630859
2.4003829956,-0.8740234375,-0.0346679688,0.1196289062,15.2282714844,0.0915527344,14.7552490234
2.4029679298,-0.8740234375,-0.0346679688,0.1196289062,15.2282714844,0.0915527344,14.7552490234
2.4055428505,-0.8740234375,-0.0346679688,0.1401367188,16.4489746094,2.4414062500,15.3198242188
2.4082078934,-0.9213867188,0.1469726562,0.1401367188,16.4489746094,2.4414062500,15.3198242188
2.4107909203,-0.9213867188,0.1469726562,0.1401367188,22.0794677734,4.8217773438,16.0675048828
2.4133629799,-0.9213867188,0.1469726562,0.1401367188,22.0794677734,4.8217773438,16.0675048828
2.4159400463,-0.9213867188,0.2719726562,0.1264648438,26.1840820312,5.6610107422,13.9160156250
2.4186339378,-0.9721679688,0.2856445312,0.1264648438,26.1840820312,5.6610107422,13.9160156250
2.4213080406,-0.9721679688,0.2856445312,0.1264648438,30.8380126953,6.5765380859,11.8255615234
2.4243340492,-0.9721679688,0.2856445312,0.1264648438,30.8380126953,6.5765380859,11.8255615234
2.4270238876,-0.9931640625,0.2270507812,0.0966796875,37.8875732422,7.0953369141,10.3759765625
2.4300539494,-0.9931640625,0.2270507812,0.0966796875,37.8875732422,7.0953369141,10.3759765625
2.4326319695,-0.9931640625,0.2270507812,0.0966796875,47.0733642578,9.7198486328,9.5672607422
2.4353089333,-0.9931640625,0.2270507812,0.0966796875,47.0733642578,9.7198486328,9.5672607422
2.4380660057,-1.0283203125,0.2075195312,0.0957031250,49.3927001953,12.9852294922,8.0871582031
2.4407329559,-1.0283203125,0.2075195312,0.0957031250,49.3927001953,12.9852294922,8.0871582031
2.4434058666,-1.0283203125,0.2075195312,0.0957031250,48.0041503906,14.0686035156,7.0648193359
2.4462699890,-1.0283203125,0.3325195312,-0.0083007812,48.0041503906,14.0686035156,7.0648193359
2.4489710331,-1.1054687500,0.2519531250,-0.0083007812,47.6379394531,15.9759521484,6.3629150391
2.4516470432,-1.1054687500,0.2519531250,-0.0083007812,47.6379394531,15.9759521484,6.3629150391
2.4543130398,-1.1054687500,0.2519531250,-0.0083007812,47.7142333984,19.2871093750,6.1798095703
2.4570789337,-1.2080078125,0.1826171875,0.0400390625,47.7142333984,19.2871093750,6.1798095703
2.4596960545,-1.2080078125,0.1826171875,0.0400390625,48.3398437500,23.3917236328,6.2408447266
2.4622659683,-1.2080078125,0.1826171875,0.0400390625,48.3398437500,23.3917236328,6.2408447266
2.4648399353,-1.2080078125,0.1826171875,0.0400390625,48.3856201172,26.0009765625,6.5765380859
2.4674220085,-1.2133789062,0.1357421875,0.0805664062,48.3856201172,26.0009765625,6.5765380859
2.4700200558,-1.2133789062,0.1357421875,0.0805664062,48.3856201172,26.0314941406,7.2937011719
2.4725968838,-1.2133789062,0.1357421875,0.0805664062,46.7681884766,26.0314941406,7.2937011719
2.4751689434,-1.2133789062,0.1357421875,0.0805664062,46.7681884766,26.0314941406,8.1939697266
2.4778988361,-1.2578125000,0.1733398438,0.1040039062,48.7060546875,23.7121582031,8.1939697266
2.4804809093,-1.2578125000,0.1733398438,0.1040039062,48.7060546875,23.7121582031,7.4920654297
2.4830558300,-1.2578125000,0.1733398438,0.1040039062,56.1065673828,19.8974609375,7.4920654297
2.4856300354,-1.2578125000,0.1733398438,0.1040039062,56.1065673828,19.8974609375,7.4920654297
2.4883790016,-1.2915039062,0.0732421875,0.1772460938,68.4814453125,14.8468017578,6.5765380859
2.4910869598,-1.2915039062,0.0732421875,0.1772460938,68.4814453125,14.8468017578,6.5765380859
2.4937949181,-1.2915039062,0.0732421875,0.1772460938,81.2225341797,10.6201171875,6.1798095703
2.4965019226,-1.2915039062,0.0732421875,0.1738281250,81.2225341797,10.6201171875,10.0860595703
2.4992089272,-1.3959960938,-0.0703125000,0.1738281250,90.8966064453,8.2550048828,8.0871582031
2.5020408630,-1.3959960938,-0.0703125000,0.1738281250,90.8966064453,8.2550048828,11.9476318359
2.5047500134,-1.3959960938,-0.0703125000,0.1738281250,97.0611572266,6.1950683594,11.9476318359
2.5074558258,-1.3388671875,-0.2548828125,0.1704101562,97.0611572266,6.1950683594,11.9476318359
2.5100548267,-1.3388671875,-0.2548828125,0.1704101562,101.9744873047,3.7689208984,15.1367187500
2.5126218796,-1.3388671875,-0.2548828125,0.1704101562,101.9744873047,3.7689208984,15.1367187500
2.5151958466,-1.3388671875,-0.2548828125,0.1704101562,101.5472412109,0.6256103516,18.6462402344
2.5177969933,-1.2084960938,-0.5136718750,0.1059570312,101.5472412109,0.6256103516,18.6462402344
2.5205049515,-1.2084960938,-0.5136718750,0.1059570312,94.2077636719,-1.3275146484,23.3459472656
2.5232160091,-1.2084960938,-0.5136718750,0.1059570312,94.2077636719,-1.3275146484,23.3459472656
2.5259208679,-1.2084960938,-0.5136718750,0.1059570312,78.4759521484,-0.6866455078,29.4342041016
2.5287768841,-1.1103515625,-0.7226562500,-0.0205078125,78.4759521484,-0.6866455078,29.4342041016
2.5314660072,-1.1103515625,-0.7226562500,-0.0205078125,58.2885742188,3.6010742188,38.0859375000
2.5341579914,-1.1103515625,-0.7226562500,-0.0205078125,58.2885742188,3.6010742188,38.0859375000
2.5368559361,-1.1103515625,-0.7226562500,-0.1079101562,35.7513427734,7.2784423828,53.5278320312
2.5395660400,-0.9804687500,-0.5712890625,-0.1079101562,35.7513427734,7.2784423828,53.5278320312
2.5422689915,-0.9804687500,-0.5712890625,-0.1079101562,4.9591064453,3.7689208984,75.7598876953
2.5451219082,-0.9804687500,-0.5712890625,-0.1079101562,4.9591064453,3.7689208984,75.7598876953
2.5478279591,-1.1748046875,0.1523437500,0.0659179688,-27.4200439453,-3.6926269531,101.4404296875
2.5510149002,-1.1748046875,0.1523437500,0.0659179688,-27.4200439453,-3.6926269531,132.6904296875
2.5535879135,-1.1748046875,0.1523437500,0.0659179688,-55.9387207031,-10.1165771484,131.6375732422
2.5561668873,-1.1748046875,0.1523437500,0.0659179688,-55.9387207031,-10.1165771484,131.6375732422
2.5587420464,-1.4829101562,1.0551757812,0.4174804688,-80.5206298828,-18.7377929688,163.0401611328
2.5613138676,-1.4829101562,1.0551757812,0.4174804688,-80.5206298828,-18.7377929688,163.0401611328
2.5638928413,-1.4829101562,1.0551757812,0.4174804688,-90.3015136719,-27.3742675781,190.9942626953
2.5665738583,-1.4829101562,1.0551757812,0.4174804688,-90.3015136719,-27.3742675781,190.9942626953
2.5691878796,-1.6821289062,1.3706054688,0.5615234375,-80.7800292969,-30.5328369141,214.3554687500
2.5717618465,-1.6821289062,1.3706054688,0.5615234375,-80.7800292969,-30.5328369141,214.3554687500
2.5743329525,-1.6821289062,1.3706054688,0.5615234375,-56.9610595703,-26.9622802734,232.4829101562
2.5769109726,-1.6821289062,1.3706054688,0.5615234375,-56.9610595703,-26.9622802734,232.4829101562
2.5794880390,-1.9033203125,1.2563476562,0.5151367188,-27.7252197266,-24.5819091797,243.3319091797
2.5820560455,-1.9033203125,1.2563476562,0.5151367188,-27.7252197266,-24.5819091797,243.3319091797
2.5846350193,-1.9033203125,1.2563476562,0.5151367188,-0.7324218750,-26.5350341797,249.2980957031
2.5872049332,-1.9033203125,1.2563476562,0.5234375000,-0.7324218750,-26.5350341797,249.2980957031
2.5898389816,-1.9121093750,1.2719726562,0.5234375000,-0.7324218750,-31.0668945312,259.5520019531
2.5924098492,-1.9121093750,1.2719726562,0.5234375000,23.7274169922,-31.0668945312,259.5520019531
2.5949840546,-1.9121093750,1.2719726562,0.5234375000,23.7274169922,-31.0668945312,273.2391357422
2.5975589752,-1.9121093750,0.8969726562,0.5107421875,42.2973632812,-32.6690673828,273.2391357422
2.6002888680,-1.8349609375,0.9316406250,0.5107421875,42.2973632812,-32.6690673828,280.4565429688
2.6028628349,-1.8349609375,0.9316406250,0.5107421875,55.5114746094,-30.3802490234,280.4565429688
2.6054430008,-1.8349609375,0.9316406250,0.5107421875,55.5114746094,-30.3802490234,284.3627929688
2.6081869602,-1.7099609375,0.6289062500,0.4350585938,63.6901855469,-27.2369384766,282.6385498047
2.6107599735,-1.7221679688,0.6289062500,0.4350585938,63.6901855469,-27.2369384766,282.6385498047
2.6133420467,-1.7221679688,0.6289062500,0.4350585938,62.6220703125,-22.2625732422,283.9508056641
2.6159179211,-1.7221679688,0.6289062500,0.4350585938,62.6220703125,-22.2625732422,283.9508056641
2.6184940338,-1.6069335938,0.5498046875,0.3588867188,53.8787841797,-15.2282714844,285.0952148438
2.6210689545,-1.6069335938,0.5498046875,0.3588867188,53.8787841797,-15.2282714844,285.0952148438
2.6236460209,-1.6069335938,0.5498046875,0.3588867188,41.7022705078,-9.5977783203,283.5388183594
2.6262199879,-1.6069335938,0.5498046875,0.3588867188,41.7022705078,-9.5977783203,283.5388183594
2.6290009022,-1.5473632812,0.4008789062,0.2382812500,28.5797119141,-6.1340332031,280.4870605469
2.6317069530,-1.5473632812,0.4008789062,0.2382812500,28.5797119141,-6.1340332031,280.4870605469
2.6344170570,-1.5473632812,0.4008789062,0.2382812500,16.5557861328,-3.5705566406,277.9693603516
2.6371200085,-1.5473632812,0.4008789062,0.2382812500,16.5557861328,-3.5705566406,277.9693603516
2.6397709846,-1.4306640625,0.2485351562,0.1743164062,2.3193359375,-0.9155273438,274.1394042969
2.6423439980,-1.4306640625,0.2485351562,0.1743164062,2.3193359375,-0.9155273438,274.1394042969
2.6449120045,-1.4306640625,0.2485351562,0.1743164062,-12.6342773438,0.6561279297,267.7154541016
2.6474900246,-1.4306640625,0.2485351562,0.1743164062,-12.6342773438,0.6561279297,267.7154541016
2.6501929760,-1.2011718750,0.1162109375,0.1118164062,-26.0772705078,0.9460449219,258.3007812500
2.6529040337,-1.2011718750,0.1162109375,0.1118164062,-26.0772705078,0.9460449219,258.3007812500
2.6556110382,-1.2011718750,0.1162109375,0.1118164062,-37.8417968750,0.0000000000,246.3989257812
2.6583240032,-1.2011718750,-0.0019531250,0.0219726562,-37.8417968750,0.0000000000,246.3989257812
2.6610379219,-0.8867187500,-0.0019531250,0.0219726562,-46.2188720703,-1.1596679688,233.0474853516
2.6637389660,-0.8867187500,-0.0019531250,0.0219726562,-46.2188720703,-1.1596679688,233.0474853516
2.6665189266,-0.8867187500,-0.0019531250,0.0219726562,-50.5981445312,-2.8076171875,219.8486328125
2.6696758270,-0.5952148438,-0.0776367188,-0.0415039062,-50.5981445312,-2.8076171875,219.8486328125
2.6723799706,-0.5952148438,-0.0776367188,-0.0415039062,-51.2542724609,-5.4626464844,205.6884765625
2.6750869751,-0.5952148438,-0.0776367188,-0.0415039062,-51.2542724609,-5.4626464844,205.6884765625
2.6778030396,-0.5952148438,-0.0776367188,-0.0415039062,-48.2788085938,-7.4310302734,189.5294189453
2.6805059910,-0.3344726562,-0.1914062500,-0.0659179688,-48.2788085938,-7.4310302734,189.5294189453
2.6832180023,-0.3344726562,-0.1914062500,-0.0659179688,-42.8314208984,-9.7351074219,171.9665527344
2.6859278679,-0.3344726562,-0.1914062500,-0.0659179688,-42.8314208984,-9.7351074219,171.9665527344
2.6886448860,-0.3344726562,-0.3457031250,-0.0839843750,-37.2161865234,-11.3830566406,154.6020507812
2.6912260056,-0.1162109375,-0.3457031250,-0.0839843750,-37.2161865234,-11.3830566406,154.6020507812
2.6939089298,-0.1162109375,-0.3457031250,-0.0839843750,-34.8358154297,-11.0778808594,137.1307373047
2.6964979172,-0.1162109375,-0.3457031250,-0.0839843750,-34.8358154297,-11.0778808594,137.1307373047
2.6990840435,-0.1162109375,-0.4843750000,-0.0722656250,-36.5142822266,-10.4370117188,119.9951171875
2.7016630173,-0.0434570312,-0.4843750000,-0.0722656250,-36.5142822266,-10.4370117188,119.9951171875
2.7042510509,-0.0434570312,-0.4843750000,-0.0722656250,-40.4205322266,-9.8114013672,103.5614013672
2.7068228722,-0.0434570312,-0.4843750000,-0.0722656250,-39.8101806641,-9.8114013672,103.5614013672
2.7094469070,-0.0380859375,-0.5571289062,-0.0844726562,-39.8101806641,-9.8114013672,88.3483886719
2.7120249271,-0.0380859375,-0.5571289062,-0.0844726562,-43.9605712891,-9.7198486328,88.3483886719
2.7146029472,-0.0380859375,-0.5571289062,-0.0844726562,-43.9605712891,-9.7198486328,74.0509033203
2.7171790600,-0.0380859375,-0.5571289062,-0.0844726562,-48.9349365234,-9.0026855469,74.0509033203
2.7199008465,0.0019531250,-0.5620117188,-0.0717773438,-48.9349365234,-9.0026855469,59.6618652344
2.7224810123,0.0019531250,-0.5620117188,-0.0717773438,-55.7403564453,-9.6130371094,59.6618652344
2.7250640392,0.0019531250,-0.5620117188,-0.0717773438,-55.7403564453,-9.6130371094,59.6618652344
2.7276380062,0.0019531250,-0.5620117188,-0.0717773438,-61.0198974609,-10.8032226562,44.3267822266
2.7304248810,0.0761718750,-0.5224609375,-0.0747070312,-61.0198974609,-10.8032226562,44.3267822266
2.7331299782,0.0761718750,-0.5224609375,-0.0747070312,-62.4237060547,-11.5661621094,28.5339355469
2.7358398438,0.0761718750,-0.5224609375,-0.0747070312,-62.4237060547,-11.5661621094,12.9089355469
2.7386908531,0.0761718750,-0.5224609375,-0.1059570312,-60.4248046875,-10.6506347656,13.3361816406
2.7412698269,0.0913085938,-0.4418945312,-0.1059570312,-60.4248046875,-10.6506347656,13.3361816406
2.7438440323,0.0913085938,-0.4418945312,-0.1059570312,-55.7250976562,-9.2926025391,-2.0904541016
2.7464170456,0.0913085938,-0.4418945312,-0.1059570312,-55.7250976562,-9.2926025391,-2.0904541016
2.7490918636,0.0913085938,-0.4418945312,-0.1333007812,-51.4984130859,-6.8511962891,-18.4173583984
2.7517960072,0.1083984375,-0.4223632812,-0.1333007812,-51.4984130859,-6.8511962891,-18.4173583984
2.7545080185,0.1083984375,-0.4223632812,-0.1333007812,-49.1943359375,-3.7536621094,-34.2254638672
2.7573258877,0.1083984375,-0.4223632812,-0.1333007812,-49.1943359375,-3.7536621094,-34.2254638672
2.7600839138,0.1323242188,-0.4418945312,-0.1503906250,-47.7294921875,-1.1444091797,-49.6215820312
2.7627990246,0.1323242188,-0.4418945312,-0.1503906250,-47.7294921875,-1.1444091797,-49.6215820312
2.7655060291,0.1323242188,-0.4418945312,-0.1503906250,-47.3175048828,1.1444091797,-64.7125244141
2.7682149410,0.1323242188,-0.4418945312,-0.1503906250,-47.3175048828,1.1444091797,-64.7125244141
2.7709228992,0.1069335938,-0.4125976562,-0.1757812500,-47.3785400391,4.2419433594,-79.5593261719
2.7736258507,0.1069335938,-0.4125976562,-0.1757812500,-47.3785400391,4.2419433594,-79.5593261719
2.7763400078,0.1069335938,-0.4125976562,-0.1757812500,-46.9665527344,7.9650878906,-93.0938720703
2.7790880203,0.1069335938,-0.4125976562,-0.1669921875,-46.9665527344,7.9650878906,-93.0938720703
2.7817959785,0.0507812500,-0.3559570312,-0.1669921875,-45.3948974609,11.0321044922,-105.5755615234
2.7846519947,0.0507812500,-0.3559570312,-0.1669921875,-45.3948974609,11.0321044922,-105.5755615234
2.7877948284,0.0507812500,-0.3559570312,-0.1669921875,-43.4570312500,14.2059326172,-117.9351806641
2.7903850079,0.0234375000,-0.2929687500,-0.1455078125,-43.4570312500,14.2059326172,-117.9351806641
2.7929680347,0.0234375000,-0.2929687500,-0.1455078125,-40.8020019531,17.4560546875,-129.0893554688
2.7955470085,0.0234375000,-0.2929687500,-0.1455078125,-40.8020019531,17.4560546875,-129.0893554688
2.7981438637,0.0234375000,-0.2929687500,-0.1455078125,-36.5905761719,20.9197998047,-140.2130126953
2.8008499146,0.0024414062,-0.2080078125,-0.1240234375,-36.5905761719,20.9197998047,-140.2130126953
2.8035619259,0.0024414062,-0.2080078125,-0.1240234375,-31.9366455078,24.7192382812,-151.0620117188
2.8062658310,0.0024414062,-0.2080078125,-0.1240234375,-31.9366455078,24.7192382812,-151.0620117188
2.8089890480,0.0024414062,-0.2080078125,-0.1240234375,-26.1840820312,28.2592773438,-161.0107421875
2.8116939068,0.0019531250,-0.1333007812,-0.1005859375,-26.1840820312,28.2592773438,-161.0107421875
2.8144040108,0.0019531250,-0.1333007812,-0.1005859375,-18.9971923828,31.2957763672,-170.5627441406
2.8171238899,0.0019531250,-0.1333007812,-0.1005859375,-18.9971923828,31.2957763672,-170.5627441406
2.8197989464,0.0019531250,-0.0083007812,-0.1040039062,-11.3067626953,33.7829589844,-178.8940429688
2.8224890232,0.0122070312,-0.0727539062,-0.1040039062,-11.3067626953,33.7829589844,-178.8940429688
2.8250749111,0.0122070312,-0.0727539062,-0.1040039062,-4.4097900391,37.1856689453,-186.8286132812
2.8276519775,0.0122070312,-0.0727539062,-0.1040039062,-4.4097900391,37.1856689453,-186.8286132812
2.8303239346,-0.1127929688,0.0097656250,-0.0454101562,3.2653808594,40.1763916016,-193.4509277344
2.8329019547,-0.0244140625,0.0097656250,-0.0454101562,3.2653808594,40.1763916016,-193.4509277344
2.8354799747,-0.0244140625,0.0097656250,-0.0454101562,12.0086669922,42.0837402344,-199.8443603516
2.8382010460,-0.0244140625,0.0097656250,-0.0454101562,12.0086669922,42.0837402344,-199.8443603516
2.8407788277,-0.0317382812,0.0566406250,-0.0458984375,20.6451416016,44.1894531250,-205.6274414062
2.8433568478,-0.0317382812,0.0566406250,-0.0458984375,20.6451416016,44.1894531250,-205.6274414062
2.8459360600,-0.0317382812,0.0566406250,-0.0458984375,26.5502929688,45.5322265625,-209.5489501953
2.8485589027,-0.0317382812,0.0566406250,-0.0458984375,26.5502929688,45.5322265625,-209.5489501953
2.8512718678,-0.0649414062,0.1069335938,-0.0317382812,31.4941406250,47.0275878906,-212.2344970703
2.8540470600,-0.0649414062,0.1069335938,-0.0317382812,31.4941406250,47.0275878906,-212.2344970703
2.8566248417,-0.0649414062,0.1069335938,-0.0317382812,31.4941406250,47.7600097656,-214.3859863281
2.8594169617,-0.0649414062,0.1069335938,-0.0317382812,32.5012207031,47.7600097656,-214.3859863281
2.8620889187,-0.0893554688,0.1640625000,-0.0600585938,28.5949707031,48.1109619141,-215.1641845703
2.8650009632,-0.0893554688,0.1640625000,-0.0600585938,28.4729003906,48.1109619141,-215.1641845703
2.8677120209,-0.0893554688,0.1640625000,-0.0600585938,21.5454101562,47.5921630859,-215.0268554688
2.8704259396,-0.0893554688,0.2319335938,-0.0576171875,21.5454101562,47.5921630859,-215.0268554688
2.8731348515,-0.1435546875,0.2319335938,-0.0576171875,12.7868652344,46.9055175781,-212.9669189453
2.8758418560,-0.1435546875,0.2319335938,-0.0576171875,12.7868652344,46.9055175781,-212.9669189453
2.8785648346,-0.1435546875,0.2319335938,-0.0576171875,2.1362304688,46.3104248047,-209.6557617188
2.8812758923,-0.2241210938,0.3833007812,-0.0600585938,2.1362304688,46.3104248047,-209.6557617188
2.8839850426,-0.2241210938,0.3833007812,-0.0600585938,-9.7351074219,45.8831787109,-205.0933837891
2.8868050575,-0.2241210938,0.3833007812,-0.0600585938,-9.7351074219,45.8831787109,-205.0933837891
2.8894469738,-0.2241210938,0.3833007812,-0.0600585938,-25.3601074219,44.2810058594,-199.2797851562
2.8920228481,-0.2910156250,0.5493164062,0.0078125000,-23.7274169922,44.2810058594,-199.2797851562
2.8946030140,-0.2910156250,0.5493164062,0.0078125000,-23.7274169922,40.3747558594,-192.0623779297
2.8971798420,-0.2910156250,0.5493164062,0.0078125000,-36.6821289062,41.9311523438,-192.0623779297
2.8998069763,-0.2910156250,0.5493164062,0.0078125000,-36.6821289062,41.9311523438,-183.0139160156
2.9023878574,-0.3750000000,0.7939453125,0.1328125000,-46.9055175781,40.0390625000,-183.0139160156
2.9049639702,-0.3750000000,0.7939453125,0.1328125000,-46.9055175781,40.0390625000,-175.2014160156
2.9075419903,-0.3750000000,0.7939453125,0.1328125000,-52.4749755859,37.5671386719,-172.2717285156
2.9102869034,-0.3750000000,0.7939453125,0.2568359375,-52.4749755859,37.5671386719,-156.6467285156
2.9128608704,-0.4282226562,1.0356445312,0.2568359375,-55.0231933594,35.1562500000,-159.9121093750
2.9154410362,-0.4282226562,1.0356445312,0.2568359375,-55.0231933594,35.1562500000,-159.9121093750
2.9181840420,-0.4282226562,1.0356445312,0.2568359375,-55.7250976562,32.6690673828,-146.4691162109
2.9208929539,-0.4282226562,1.2060546875,0.3388671875,-55.7250976562,32.6690673828,-146.4691162109
2.9236018658,-0.4584960938,1.2060546875,0.3388671875,-55.1757812500,30.6396484375,-132.8430175781
2.9263060093,-0.4584960938,1.2060546875,0.3388671875,-55.1757812500,30.6396484375,-132.8430175781
2.9290108681,-0.4584960938,1.2060546875,0.3388671875,-54.5806884766,28.5186767578,-119.4152832031
2.9317219257,-0.4829101562,1.2495117188,0.3852539062,-54.5806884766,28.5186767578,-119.4152832031
2.9344298840,-0.4829101562,1.2495117188,0.3852539062,-55.0842285156,26.4282226562,-104.4616699219
2.9371409416,-0.4829101562,1.2495117188,0.3852539062,-55.0842285156,26.4282226562,-104.4616699219
2.9397890568,-0.4829101562,1.2495117188,0.3852539062,-57.0678710938,24.9633789062,-89.4775390625
2.9423680305,-0.4824218750,1.2543945312,0.3911132812,-57.0678710938,24.9633789062,-89.4775390625
2.9449479580,-0.4824218750,1.2543945312,0.3911132812,-59.4635009766,23.3612060547,-74.3408203125
2.9475259781,-0.4824218750,1.2543945312,0.3911132812,-59.4635009766,23.3612060547,-74.3408203125
2.9503788948,-0.4824218750,1.2543945312,0.3911132812,-62.7746582031,20.9655761719,-60.1806640625
2.9530909061,-0.4140625000,1.1767578125,0.3950195312,-62.7746582031,20.9655761719,-60.1806640625
2.9557988644,-0.4140625000,1.1767578125,0.3950195312,-66.3604736328,18.0053710938,-47.8515625000
2.9585199356,-0.4140625000,1.1767578125,0.3950195312,-66.3604736328,18.0053710938,-47.8515625000
2.9612319469,-0.4140625000,0.9760742188,0.3920898438,-70.8465576172,14.5416259766,-37.2314453125
2.9639420509,-0.3198242188,0.9760742188,0.3920898438,-70.8465576172,14.5416259766,-37.2314453125
2.9666500092,-0.3198242188,0.9760742188,0.3920898438,-74.6459960938,11.3220214844,-28.4423828125
2.9693758488,-0.3198242188,0.9760742188,0.3920898438,-74.6459960938,11.3220214844,-28.4423828125
2.9720869064,-0.1391601562,0.7377929688,0.3623046875,-78.8574218750,7.7972412109,-20.7366943359
2.9750950336,-0.1391601562,0.7377929688,0.3623046875,-78.8574218750,7.7972412109,-20.7366943359
2.9781899452,-0.1391601562,0.7377929688,0.3623046875,-84.0454101562,-1.5716552734,-15.6860351562
2.9809088707,-0.1391601562,0.7377929688,0.9873046875,-84.0454101562,-1.5716552734,-15.6860351562
2.9836168289,0.0888671875,1.1367187500,0.9785156250,-115.3411865234,-32.9132080078,-2.9296875000
2.9863228798,0.0888671875,1.1367187500,0.9785156250,-115.3411865234,-32.9132080078,-2.9296875000
2.9890189171,0.0888671875,1.1367187500,0.9785156250,-123.2452392578,-57.0220947266,43.8385009766
2.9915938377,0.0888671875,2.8481445312,1.4541015625,-123.2452392578,-57.0220947266,43.8385009766
2.9941749573,-1.0698242188,2.8481445312,1.4541015625,-49.4842529297,-55.7556152344,96.6796875000
2.9967489243,-1.0698242188,2.8481445312,1.4541015625,-49.4842529297,-55.7556152344,96.6796875000
2.9994108677,-1.0698242188,2.8481445312,1.4541015625,19.9127197266,-27.9083251953,93.1701660156
3.0021238327,-2.1987304688,1.7045898438,-0.1318359375,19.9127197266,-27.9083251953,93.1701660156
3.0048279762,-2.1987304688,1.7045898438,-0.1318359375,62.9882812500,-4.8522949219,37.7502441406
3.0075340271,-2.1987304688,1.7045898438,-0.1318359375,62.9882812500,-4.8522949219,37.7502441406
3.0101640224,-2.1987304688,1.7045898438,-0.1318359375,67.7947998047,-1.5869140625,-5.7067871094
3.0127289295,-1.3486328125,-1.2221679688,-1.0151367188,67.7947998047,-1.5869140625,-5.7067871094
3.0153999329,-1.3486328125,-1.2221679688,-1.0151367188,49.5910644531,-2.2888183594,2.4414062500
3.0180399418,-1.3486328125,-1.2221679688,-1.0151367188,49.5910644531,-2.2888183594,2.4414062500
3.0206129551,-1.3486328125,-1.2221679688,-1.0151367188,38.7268066406,12.9394531250,35.9954833984
3.0231850147,-1.1015625000,-0.4018554688,-0.5346679688,38.7268066406,12.9394531250,35.9954833984
3.0257589817,-1.1015625000,-0.4018554688,-0.5346679688,21.4233398438,34.3170166016,52.4139404297
3.0284359455,-1.1015625000,-0.4018554688,-0.5346679688,21.4233398438,34.3170166016,52.4139404297
3.0310158730,-1.1015625000,-0.4018554688,-0.5346679688,-13.7329101562,33.4930419922,51.8951416016
3.0335929394,-0.6635742188,0.6870117188,0.0302734375,-15.0146484375,33.4930419922,51.8951416016
3.0361709595,-0.6635742188,0.6870117188,0.0302734375,-15.0146484375,19.3634033203,44.5404052734
3.0388879776,-0.6635742188,0.6870117188,0.0302734375,-57.9223632812,19.3634033203,44.5404052734
3.0414628983,-0.6635742188,0.6870117188,0.1552734375,-57.9223632812,11.5509033203,38.7420654297
3.0440428257,-0.5068359375,0.9047851562,0.1606445312,-89.1571044922,10.4522705078,38.7420654297
3.0466158390,-0.5068359375,0.9047851562,0.1606445312,-89.1571044922,10.4522705078,39.5965576172
3.0493190289,-0.5068359375,0.9047851562,0.1606445312,-86.4715576172,8.6364746094,39.5965576172
3.0520248413,-0.5068359375,0.5297851562,0.0854492188,-86.4715576172,8.6364746094,40.4968261719
3.0547349453,-0.2006835938,0.5717773438,0.0854492188,-55.9997558594,10.1623535156,40.4968261719
3.0574429035,-0.2006835938,0.5717773438,0.0854492188,-55.9997558594,10.1623535156,35.8581542969
3.0601558685,-0.2006835938,0.5717773438,0.0854492188,-31.4331054688,10.1623535156,35.8581542969
3.0628650188,-0.0317382812,0.3945312500,0.2880859375,-31.4331054688,10.1623535156,25.7873535156
3.0655758381,-0.0317382812,0.3945312500,0.2880859375,-26.6571044922,6.8511962891,25.7873535156
3.0682759285,-0.0317382812,0.3945312500,0.2880859375,-26.6571044922,6.8511962891,17.9748535156
3.0708429813,-0.0317382812,0.3945312500,0.2880859375,-24.8718261719,2.2735595703,16.8609619141
3.0734128952,-0.4726562500,0.6030273438,0.4360351562,-24.8718261719,2.2735595703,16.8609619141
3.0759818554,-0.4726562500,0.6030273438,0.4360351562,-16.7846679688,-0.3509521484,10.8642578125
3.0787599087,-0.4726562500,0.6030273438,0.4360351562,-16.7846679688,-0.3509521484,10.8642578125
3.0813369751,-0.4726562500,0.6030273438,0.4360351562,-3.8909912109,-1.4038085938,5.5236816406
3.0839009285,-0.8178710938,0.6059570312,0.2993164062,-3.8909912109,-1.4038085938,5.5236816406
3.0864670277,-0.8178710938,0.6059570312,0.2993164062,11.0015869141,-3.4332275391,-0.6713867188
3.0890698433,-0.8178710938,0.6059570312,0.2993164062,11.0015869141,-3.4332275391,-0.6713867188
3.0916428566,-0.8178710938,0.6059570312,0.2993164062,23.0102539062,-6.1798095703,-6.4697265625
3.0942399502,-0.8247070312,0.4565429688,0.0639648438,23.0102539062,-6.1798095703,-6.4697265625
3.0968329906,-0.8247070312,0.4565429688,0.0639648438,27.4047851562,-6.2713623047,-11.1846923828
3.0997638702,-0.8247070312,0.4565429688,0.0639648438,27.4047851562,-6.2713623047,-11.1846923828
3.1024749279,-0.8247070312,0.4565429688,-0.0761718750,24.9328613281,-4.5471191406,-12.7563476562
3.1051809788,-0.8139648438,0.3925781250,-0.0761718750,24.9328613281,-4.5471191406,-12.7563476562
3.1078989506,-0.8139648438,0.3925781250,-0.0761718750,17.8680419922,-1.8768310547,-12.0697021484
3.1106009483,-0.8139648438,0.3925781250,-0.0761718750,17.8680419922,-1.8768310547,-12.0697021484
3.1133048534,-0.7905273438,0.3291015625,-0.0434570312,8.9874267578,-0.2746582031,-10.7574462891
3.1160080433,-0.7905273438,0.3291015625,-0.0434570312,8.9874267578,-0.2746582031,-10.7574462891
3.1187260151,-0.7905273438,0.3291015625,-0.0434570312,1.0528564453,0.2746582031,-9.9334716797
3.1214249134,-0.7905273438,0.3291015625,-0.0434570312,1.0528564453,0.2746582031,-9.9334716797
3.1241219044,-0.7402343750,0.2758789062,0.1040039062,-6.0119628906,0.7629394531,-9.8114013672
3.1268210411,-0.7402343750,0.2758789062,0.1040039062,-6.0119628906,0.7629394531,-9.8114013672
3.1294548512,-0.7402343750,0.2758789062,0.1040039062,-11.2915039062,0.5493164062,-10.0555419922
3.1320259571,-0.7402343750,0.2758789062,0.1040039062,-11.2915039062,0.5493164062,-10.0555419922
3.1346030235,-0.6425781250,0.3330078125,0.1850585938,-12.9241943359,-0.5187988281,-11.4440917969
3.1371798515,-0.6425781250,0.3330078125,0.1850585938,-12.9241943359,-0.5187988281,-11.4440917969
3.1398038864,-0.6425781250,0.3330078125,0.1850585938,-9.0179443359,-1.9226074219,-14.0686035156
3.1424748898,-0.6425781250,0.3330078125,0.1850585938,-11.3677978516,-1.9226074219,-14.0686035156
3.1450500488,-0.6059570312,0.4418945312,0.2031250000,-11.3677978516,-2.8839111328,-18.1732177734
3.1476230621,-0.6059570312,0.4418945312,0.2031250000,-7.5836181641,-2.8839111328,-18.1732177734
3.1503150463,-0.6059570312,0.4418945312,0.2031250000,-7.5836181641,-6.7901611328,-23.6968994141
3.1528868675,-0.6059570312,0.4418945312,0.1689453125,-3.8452148438,-4.2266845703,-23.6968994141
3.1554579735,-0.6083984375,0.4433593750,0.1689453125,-3.8452148438,-4.2266845703,-28.6712646484
3.1581900120,-0.6083984375,0.4433593750,0.1689453125,-0.9002685547,-5.3710937500,-28.6712646484
3.1609790325,-0.6083984375,0.4433593750,0.1689453125,-0.9002685547,-5.3710937500,-31.4636230469
3.1635580063,-0.6083984375,0.3828125000,0.1318359375,2.2888183594,-6.9427490234,-31.4636230469
3.1661260128,-0.6215820312,0.3828125000,0.1318359375,2.2888183594,-6.9427490234,-31.4636230469
3.1688530445,-0.6215820312,0.3828125000,0.1318359375,3.5400390625,-6.8054199219,-33.3099365234
3.1715168953,-0.6215820312,0.3828125000,0.1318359375,3.5400390625,-6.8054199219,-33.3099365234
3.1744320393,-0.6528320312,0.3510742188,0.1499023438,3.9367675781,-5.8441162109,-34.1644287109
3.1771509647,-0.6528320312,0.3510742188,0.1499023438,3.9367675781,-5.8441162109,-34.8052978516
3.1798708439,-0.6528320312,0.3510742188,0.1499023438,4.5166015625,-5.2032470703,-34.8052978516
3.1825759411,-0.6528320312,0.3510742188,0.1499023438,4.5166015625,-5.2032470703,-36.1328125000
3.1852810383,-0.6865234375,0.3183593750,0.1611328125,4.4250488281,-3.6468505859,-36.1328125000
3.1880340576,-0.6865234375,0.3183593750,0.1611328125,4.4250488281,-3.6468505859,-36.7279052734
3.1907479763,-0.6865234375,0.3183593750,0.1611328125,3.7994384766,-2.2125244141,-36.7279052734
3.1934518814,-0.6865234375,0.3183593750,0.1855468750,3.7994384766,-2.2125244141,-37.0941162109
3.1961560249,-0.6821289062,0.3183593750,0.1855468750,2.8991699219,-0.9613037109,-37.0941162109
3.1988739967,-0.6821289062,0.3183593750,0.1855468750,2.8991699219,-0.9613037109,-37.0941162109
3.2015788555,-0.6821289062,0.3183593750,0.1855468750,1.8463134766,-0.0152587891,-37.5213623047
3.2042889595,-0.6894531250,0.3085937500,0.1909179688,1.8463134766,-0.0152587891,-37.5213623047
3.2070000172,-0.6894531250,0.3085937500,0.1909179688,2.0141601562,1.1138916016,-38.1927490234
3.2097380161,-0.6894531250,0.3085937500,0.1909179688,2.0141601562,1.1138916016,-42.0989990234
3.2123138905,-0.6894531250,0.3085937500,0.1909179688,2.8839111328,2.2430419922,-39.7644042969
3.2148818970,-0.6865234375,0.2978515625,0.1684570312,2.8839111328,2.2430419922,-39.7644042969
3.2174479961,-0.6865234375,0.2978515625,0.1684570312,3.4179687500,3.6926269531,-40.7104492188
3.2202088833,-0.6865234375,0.2978515625,0.1684570312,3.4179687500,3.6926269531,-40.7104492188
3.2227709293,-0.6865234375,0.2978515625,0.1684570312,3.7078857422,5.5236816406,-40.8935546875
3.2253448963,-0.6850585938,0.3100585938,0.1699218750,3.7078857422,5.5236816406,-40.8935546875
3.2279658318,-0.6850585938,0.3100585938,0.1699218750,3.6926269531,6.8664550781,-41.0614013672
3.2306740284,-0.6850585938,0.3100585938,0.1699218750,3.6926269531,6.8664550781,-41.0614013672
3.2333829403,-0.6850585938,0.3100585938,0.1933593750,3.3874511719,8.3770751953,-41.8243408203
3.2360858917,-0.6972656250,0.3149414062,0.1933593750,3.3874511719,8.3770751953,-41.8243408203
3.2387468815,-0.6972656250,0.3149414062,0.1933593750,3.3874511719,9.8724365234,-42.3431396484
3.2413220406,-0.6972656250,0.3149414062,0.1933593750,3.3874511719,9.8724365234,-42.3431396484
3.2438828945,-0.6972656250,0.3149414062,0.1689453125,4.4403076172,10.6964111328,-42.9687500000
3.2464568615,-0.6987304688,0.2617187500,0.1689453125,4.4403076172,10.6964111328,-42.9687500000
3.2491328716,-0.6987304688,0.2617187500,0.1689453125,5.7983398438,11.1541748047,-43.5028076172
3.2518408298,-0.6987304688,0.2617187500,0.1689453125,5.7983398438,11.1541748047,-43.5028076172
3.2545578480,-0.6923828125,0.2578125000,0.1611328125,5.9967041016,11.8865966797,-44.2352294922
3.2572610378,-0.6923828125,0.2578125000,0.1611328125,5.9967041016,11.8865966797,-44.2352294922
3.2599768639,-0.6923828125,0.2578125000,0.1611328125,6.9427490234,12.4359130859,-45.2270507812
3.2626929283,-0.6923828125,0.2578125000,0.1611328125,6.9427490234,12.4359130859,-45.2270507812
3.2653980255,-0.7089843750,0.2841796875,0.1313476562,7.2937011719,13.2598876953,-45.9899902344
3.2681210041,-0.7089843750,0.2841796875,0.1313476562,7.2937011719,13.2598876953,-45.9899902344
3.2708220482,-0.7089843750,0.2841796875,0.1313476562,8.2702636719,13.4277343750,-46.9665527344
3.2736330032,-0.7089843750,0.2841796875,0.0063476562,8.2702636719,13.4277343750,-46.9665527344
3.2763469219,-0.7016601562,0.2739257812,0.1030273438,8.8043212891,12.5274658203,-47.2869873047
3.2791018486,-0.7016601562,0.2739257812,0.1030273438,8.8043212891,12.5274658203,-47.2869873047
3.2818078995,-0.7016601562,0.2739257812,0.1030273438,8.2702636719,12.1459960938,-47.5769042969
3.2846698761,-0.7016601562,0.2583007812,0.0751953125,8.2702636719,12.1459960938,-47.5769042969
3.2878129482,-0.6796875000,0.2583007812,0.0751953125,7.8582763672,11.7187500000,-47.7600097656
3.2903938293,-0.6796875000,0.2583007812,0.0751953125,7.8582763672,11.7187500000,-47.7600097656
3.2929689884,-0.6796875000,0.2583007812,0.0751953125,7.6904296875,11.2457275391,-47.8057861328
3.2955389023,-0.6972656250,0.2270507812,0.0649414062,7.6904296875,11.2457275391,-47.8057861328
3.2981429100,-0.6972656250,0.2270507812,0.0649414062,6.8969726562,10.8184814453,-47.3937988281
3.3008399010,-0.6972656250,0.2270507812,0.0649414062,6.8969726562,10.8184814453,-47.3937988281
3.3035490513,-0.6972656250,0.2270507812,0.0649414062,5.3558349609,10.4675292969,-47.3480224609
3.3062539101,-0.7094726562,0.2109375000,0.0595703125,5.3558349609,10.4675292969,-47.3480224609
3.3089308739,-0.7094726562,0.2109375000,0.0595703125,4.1351318359,10.8184814453,-47.6379394531
3.3115079403,-0.7094726562,0.2109375000,0.0595703125,4.1351318359,10.8184814453,-47.6379394531
3.3140778542,-0.7094726562,0.2109375000,0.0595703125,0.2288818359,10.8337402344,-47.4548339844
3.3166470528,-0.7124023438,0.2016601562,0.0600585938,3.8146972656,10.8337402344,-47.4548339844
3.3192658424,-0.7124023438,0.2016601562,0.0600585938,3.8146972656,10.9100341797,-46.8597412109
3.3218338490,-0.7124023438,0.2016601562,0.0600585938,3.4942626953,10.9100341797,-46.8597412109
3.3244068623,-0.7124023438,0.2016601562,0.1044921875,3.4942626953,10.9100341797,-46.2341308594
3.3269789219,-0.6845703125,0.1840820312,0.1044921875,1.9226074219,10.4675292969,-46.2341308594
3.3297278881,-0.6845703125,0.1840820312,0.1044921875,1.9226074219,10.4675292969,-45.8374023438
3.3323030472,-0.6845703125,0.1840820312,0.1044921875,0.8850097656,10.4980468750,-45.8374023438
3.3348739147,-0.6845703125,0.1816406250,0.1376953125,0.8850097656,10.4980468750,-45.8374023438
3.3375558853,-0.7114257812,0.1816406250,0.1376953125,2.7313232422,10.5590820312,-45.8831787109
3.3402938843,-0.7114257812,0.1816406250,0.1376953125,2.7313232422,10.5590820312,-45.8831787109
3.3428668976,-0.7114257812,0.1816406250,0.1376953125,4.8065185547,11.2304687500,-45.5932617188
3.3454439640,-0.7060546875,0.1743164062,0.1225585938,4.8065185547,11.2304687500,-45.5932617188
3.3480720520,-0.7060546875,0.1743164062,0.1225585938,6.8817138672,11.0015869141,-45.7000732422
3.3506448269,-0.7060546875,0.1743164062,0.1225585938,6.8817138672,11.0015869141,-45.7000732422
3.3532190323,-0.7060546875,0.1743164062,0.1225585938,7.7819824219,9.9182128906,-46.0510253906
3.3557889462,-0.6845703125,0.2329101562,0.1333007812,7.7819824219,9.9182128906,-46.0510253906
3.3583550453,-0.6845703125,0.2329101562,0.1333007812,9.2468261719,9.1552734375,-45.7000732422
3.3609268665,-0.6845703125,0.2329101562,0.1333007812,9.2468261719,9.1552734375,-45.7000732422
