# time_stamp before, Acceleration x, Acceleration y, Acceleration z, Gyro x, Gyro y, Gyro z
0.0000000000,-0.7299804688,0.0620117188,0.0429687500,0.0915527344,-0.0915527344,0.5645751953
0.0026969910,-0.7299804688,0.0620117188,0.0429687500,-0.2593994141,-0.0152587891,0.3204345703
0.0053911209,-0.7250976562,0.0576171875,0.0498046875,-0.2593994141,-0.0152587891,0.3204345703
0.0080981255,-0.7250976562,0.0576171875,0.0498046875,-0.4119873047,0.5645751953,0.1525878906
0.0107891560,-0.7250976562,0.0576171875,0.0498046875,-0.4119873047,0.5645751953,0.1525878906
0.0134849548,-0.7250976562,0.0576171875,0.0541992188,0.1068115234,0.2593994141,0.1373291016
0.0161881447,-0.7373046875,0.0639648438,0.0541992188,0.1068115234,0.2593994141,0.1373291016
0.0188820362,-0.7373046875,0.0639648438,0.0541992188,0.0610351562,0.3204345703,0.2746582031
0.0215790272,-0.7373046875,0.0639648438,0.0541992188,0.0610351562,0.3204345703,0.2746582031
0.0242750645,-0.7373046875,0.0585937500,0.0551757812,-0.1373291016,0.1373291016,0.2288818359
0.0269341469,-0.7324218750,0.0585937500,0.0551757812,-0.1373291016,0.1373291016,0.2288818359
0.0295031071,-0.7324218750,0.0585937500,0.0551757812,-0.1373291016,0.0305175781,-0.3204345703
0.0320661068,-0.7324218750,0.0585937500,0.0551757812,-0.1373291016,0.0305175781,-0.3204345703
0.0346369743,-0.7333984375,0.0605468750,0.0493164062,-0.1373291016,-3.8757324219,0.0152587891
0.0372700691,-0.7333984375,0.0605468750,0.0493164062,-0.0305175781,-0.1373291016,0.0152587891
0.0398399830,-0.7333984375,0.0605468750,0.0493164062,-0.0305175781,-0.1373291016,-0.0610351562
0.0424060822,-0.7333984375,0.0605468750,0.0493164062,-0.0915527344,-0.1831054688,-0.0610351562
0.0449709892,-0.7299804688,0.0566406250,0.0498046875,-0.0915527344,-0.1831054688,-0.0610351562
0.0476610661,-0.7299804688,0.0566406250,0.0498046875,-0.0915527344,0.2136230469,-0.0610351562
0.0502331257,-0.7299804688,0.0566406250,0.0498046875,-0.0915527344,0.2136230469,-0.0610351562
0.0529680252,-0.7299804688,0.0566406250,0.0498046875,-0.2441406250,0.1068115234,0.0915527344
0.0556411743,-0.7309570312,0.0620117188,0.0463867188,-0.2441406250,0.1068115234,0.0915527344
0.0584580898,-0.7309570312,0.0620117188,0.0463867188,-0.2593994141,0.2441406250,0.0152587891
0.0611560345,-0.7309570312,0.0620117188,0.0463867188,-0.2593994141,0.2441406250,-3.8909912109
0.0638589859,-0.7309570312,0.0620117188,0.0541992188,-0.2899169922,0.2593994141,-0.2593994141
0.0665400028,-0.7358398438,0.0590820312,0.0541992188,-0.2899169922,0.2593994141,-0.2593994141
0.0691080093,-0.7358398438,0.0590820312,0.0541992188,-0.1220703125,-0.2441406250,-0.1678466797
0.0716781616,-0.7358398438,0.0590820312,0.0541992188,-0.1220703125,-0.2441406250,-0.1678466797
0.0742490292,-0.7358398438,0.0590820312,0.0493164062,-0.1373291016,0.2746582031,-0.2288818359
0.0769240856,-0.7275390625,0.0654296875,0.0493164062,-0.1373291016,0.2746582031,-0.2288818359
0.0796201229,-0.7275390625,0.0654296875,0.0493164062,0.0610351562,0.1373291016,-0.0152587891
0.0823190212,-0.7275390625,0.0654296875,0.0493164062,0.0610351562,0.1373291016,-0.0152587891
0.0848841667,-0.7275390625,0.0556640625,0.0473632812,-0.3204345703,0.0152587891,-0.0610351562
0.0876660347,-0.7392578125,0.0556640625,0.0473632812,-0.3204345703,0.0152587891,-0.0610351562
0.0903270245,-0.7392578125,0.0556640625,0.0473632812,-0.3051757812,0.4272460938,0.0305175781
0.0936181545,-0.7392578125,0.0556640625,0.0473632812,-0.3051757812,0.4272460938,0.0305175781
0.0963301659,-0.7290039062,0.0576171875,0.0473632812,-0.7324218750,0.3509521484,0.0915527344
0.0990321636,-0.7290039062,0.0576171875,0.0473632812,-0.7324218750,0.3509521484,0.0915527344
0.1017360687,-0.7290039062,0.0576171875,0.0473632812,-1.0223388672,0.3204345703,-0.0305175781
0.1044361591,-0.7290039062,0.0576171875,0.0483398438,-1.0223388672,0.3204345703,-0.0305175781
0.1070909500,-0.7338867188,0.0595703125,0.0483398438,-0.7781982422,0.1220703125,0.0152587891
0.1096570492,-0.7338867188,0.0595703125,0.0483398438,-0.7781982422,0.1220703125,0.0152587891
0.1122241020,-0.7338867188,0.0595703125,0.0483398438,-0.7629394531,-0.2899169922,0.0152587891
0.1147880554,-0.7338867188,0.0595703125,0.0498046875,-0.7629394531,-0.2899169922,0.0152587891
0.1175529957,-0.7333984375,0.0571289062,0.0498046875,-0.7934570312,-0.0915527344,0.0305175781
0.1202521324,-0.7333984375,0.0571289062,0.0498046875,-0.7934570312,-0.0915527344,0.0305175781
0.1229510307,-0.7333984375,0.0571289062,0.0498046875,-0.3814697266,0.2593994141,-0.0457763672
0.1256470680,-0.7329101562,0.0649414062,0.0434570312,-0.3814697266,0.2593994141,-0.0457763672
0.1282379627,-0.7329101562,0.0649414062,0.0434570312,-0.5950927734,-0.1220703125,-0.1068115234
0.1308040619,-0.7329101562,0.0649414062,0.0434570312,-0.5950927734,-0.1220703125,-0.1068115234
0.1333739758,-0.7329101562,0.0649414062,0.0434570312,-0.5035400391,0.2136230469,-0.1068115234
0.1359930038,-0.7314453125,0.0556640625,0.0478515625,-0.5035400391,0.2136230469,-0.1068115234
0.1385660172,-0.7314453125,0.0556640625,0.0478515625,-0.5035400391,0.2288818359,-0.0762939453
0.1411340237,-0.7314453125,0.0556640625,0.0478515625,-0.5035400391,0.2288818359,-0.0762939453
0.1437001228,-0.7314453125,0.0556640625,0.0478515625,-0.5035400391,0.0457763672,-0.1220703125
0.1464331150,-0.7338867188,0.0585937500,0.0522460938,-0.9918212891,0.0457763672,-0.1220703125
0.1490950584,-0.7338867188,0.0585937500,0.0522460938,-0.9918212891,0.3509521484,-0.5187988281
0.1517570019,-0.7338867188,0.0585937500,0.0522460938,-0.8697509766,0.3509521484,-0.5187988281
0.1544151306,-0.7338867188,0.0585937500,0.0522460938,-0.8697509766,0.4119873047,-0.2746582031
0.1570880413,-0.7343750000,0.0561523438,0.0488281250,-0.6561279297,0.4119873047,-0.2746582031
0.1596550941,-0.7343750000,0.0561523438,0.0488281250,-0.6561279297,0.4119873047,-0.0152587891
0.1622209549,-0.7343750000,0.0561523438,0.0488281250,-1.0528564453,0.2136230469,-0.0152587891
0.1647830009,-0.7343750000,0.0561523438,0.0488281250,-1.0528564453,0.2136230469,3.8909912109
0.1674370766,-0.7299804688,0.0576171875,0.0522460938,-0.7629394531,0.0000000000,0.0152587891
0.1701359749,-0.7299804688,0.0576171875,0.0522460938,-0.7629394531,0.0000000000,-3.8909912109
0.1728241444,-0.7299804688,0.0576171875,0.0522460938,-0.8239746094,0.0305175781,-0.1220703125
0.1755199432,-0.7299804688,0.0659179688,0.0566406250,-0.8239746094,0.0305175781,-0.1220703125
0.1782259941,-0.7309570312,0.0659179688,0.0566406250,-1.0681152344,0.1068115234,-0.1525878906
0.1810319424,-0.7309570312,0.0659179688,0.0566406250,-1.0681152344,0.1068115234,3.7536621094
0.1837329865,-0.7309570312,0.0659179688,0.0566406250,-1.2512207031,0.7476806641,0.0762939453
0.1864330769,-0.7319335938,0.0556640625,0.0468750000,-1.2512207031,0.7476806641,0.0762939453
0.1891310215,-0.7319335938,0.0556640625,0.0468750000,-1.1596679688,0.5950927734,0.0457763672
0.1918280125,-0.7319335938,0.0556640625,0.0468750000,-1.1596679688,0.5950927734,-3.8604736328
0.1945259571,-0.7319335938,0.0556640625,0.0468750000,-1.1749267578,0.2136230469,-0.0610351562
0.1972410679,-0.7338867188,0.0541992188,0.0449218750,-1.1749267578,0.2136230469,3.8452148438
0.1999411583,-0.7338867188,0.0541992188,0.0449218750,-0.9918212891,0.4119873047,0.1525878906
0.2027189732,-0.7338867188,0.0541992188,0.0449218750,-0.9918212891,0.4119873047,-3.7536621094
0.2054209709,-0.7338867188,0.0541992188,0.0517578125,-0.5187988281,0.5645751953,-0.1068115234
0.2080211639,-0.7333984375,0.0615234375,0.0517578125,-0.5187988281,0.5645751953,-0.1068115234
0.2105870247,-0.7333984375,0.0615234375,0.0517578125,-1.2664794922,0.0457763672,0.1525878906
0.2131531239,-0.7333984375,0.0615234375,0.0517578125,-1.2664794922,0.0457763672,0.1525878906
0.2157151699,-0.7333984375,0.0615234375,0.0498046875,-1.1138916016,-0.3051757812,0.5493164062
0.2184240818,-0.7299804688,0.0664062500,0.0498046875,-1.1138916016,-0.3051757812,0.5493164062
0.2211241722,-0.7299804688,0.0664062500,0.0498046875,-1.3122558594,-0.1068115234,-0.0152587891
0.2238180637,-0.7299804688,0.0664062500,0.0498046875,-1.3122558594,-0.1068115234,-0.0152587891
0.2265281677,-0.7324218750,0.0600585938,0.0429687500,-0.7934570312,0.2746582031,-0.0457763672
0.2292261124,-0.7324218750,0.0600585938,0.0429687500,-0.7934570312,0.2746582031,-0.0457763672
0.2319259644,-0.7324218750,0.0600585938,0.0429687500,-0.6256103516,0.1373291016,0.0915527344
0.2346279621,-0.7324218750,0.0600585938,0.0429687500,-0.6256103516,0.1373291016,0.0915527344
0.2372679710,-0.7304687500,0.0634765625,0.0483398438,-0.9613037109,-0.1831054688,0.1831054688
0.2398371696,-0.7304687500,0.0634765625,0.0483398438,-0.9613037109,-0.1831054688,0.1831054688
0.2424051762,-0.7304687500,0.0634765625,0.0483398438,-1.1749267578,-0.0305175781,0.0915527344
0.2450759411,-0.7304687500,0.0634765625,0.0483398438,-1.1749267578,-0.0305175781,0.0915527344
0.2477631569,-0.7324218750,0.0629882812,0.0424804688,-1.2054443359,0.1983642578,0.2746582031
0.2503261566,-0.7324218750,0.0629882812,0.0424804688,-1.2054443359,0.1983642578,0.2746582031
0.2528910637,-0.7324218750,0.0629882812,0.0424804688,-1.0681152344,0.3814697266,0.3814697266
0.2554650307,-0.7324218750,0.0629882812,0.0424804688,-1.0681152344,0.3814697266,0.3814697266
0.2581410408,-0.7343750000,0.0590820312,0.0585937500,-1.0681152344,0.3662109375,0.1373291016
0.2607100010,-0.7343750000,0.0590820312,0.0585937500,-0.7171630859,0.3662109375,0.1373291016
0.2632730007,-0.7343750000,0.0590820312,0.0585937500,-0.7171630859,0.3662109375,0.2136230469
0.2658500671,-0.7343750000,0.0590820312,0.0483398438,-0.3814697266,0.4425048828,0.2136230469
0.2685480118,-0.7270507812,0.0581054688,0.0483398438,-0.3814697266,0.4425048828,0.5645751953
0.2712399960,-0.7270507812,0.0581054688,0.0483398438,0.1983642578,0.0915527344,0.5645751953
0.2739360332,-0.7270507812,0.0581054688,0.0483398438,0.1983642578,0.0915527344,0.2136230469
0.2766430378,-0.7270507812,0.0595703125,0.0556640625,0.0152587891,-0.0610351562,0.2136230469
0.2793409824,-0.7338867188,0.0595703125,0.0556640625,0.0152587891,-0.0610351562,0.5950927734
0.2820351124,-0.7338867188,0.0595703125,0.0556640625,-0.2746582031,0.2136230469,0.5950927734
0.2847311497,-0.7338867188,0.0595703125,0.0556640625,-0.2746582031,0.2136230469,0.4425048828
0.2873539925,-0.7285156250,0.0625000000,0.0473632812,-0.0915527344,0.2899169922,0.4425048828
0.2899270058,-0.7285156250,0.0625000000,0.0473632812,-0.0915527344,0.2899169922,0.4425048828
0.2924931049,-0.7285156250,0.0625000000,0.0473632812,-0.4425048828,-0.1525878906,0.5035400391
0.2950639725,-0.7285156250,0.0625000000,0.0473632812,-0.4425048828,-0.1525878906,0.5035400391
0.2976620197,-0.7431640625,0.0507812500,0.0434570312,-0.4272460938,0.0610351562,0.1983642578
0.3002250195,-0.7431640625,0.0507812500,0.0434570312,-0.4272460938,0.0610351562,0.1983642578
0.3027939796,-0.7431640625,0.0507812500,0.0434570312,-0.9460449219,-0.0305175781,0.2899169922
0.3053619862,-0.7431640625,0.0507812500,0.0434570312,-0.9460449219,-0.0305175781,0.2899169922
0.3081369400,-0.7412109375,0.0600585938,0.0454101562,-0.6713867188,-0.2746582031,0.1983642578
0.3108210564,-0.7412109375,0.0600585938,0.0454101562,-0.6713867188,-0.2746582031,0.1983642578
0.3134951591,-0.7412109375,0.0600585938,0.0454101562,-0.4272460938,-0.0152587891,0.1983642578
0.3161830902,-0.7412109375,0.0600585938,0.0454101562,-0.4272460938,-0.0152587891,0.1983642578
0.3188660145,-0.7333984375,0.0654296875,0.0488281250,-0.0762939453,0.2288818359,0.1525878906
0.3215479851,-0.7333984375,0.0654296875,0.0488281250,-0.0762939453,0.2288818359,0.1525878906
0.3242349625,-0.7333984375,0.0654296875,0.0488281250,-0.3509521484,-0.1983642578,-0.0457763672
0.3269171715,-0.7333984375,0.0654296875,0.0541992188,-0.3509521484,-0.1983642578,-0.0457763672
0.3295731544,-0.7329101562,0.0654296875,0.0541992188,0.0915527344,-0.3814697266,0.0305175781
0.3322329521,-0.7329101562,0.0654296875,0.0541992188,0.0915527344,-0.3814697266,0.0305175781
0.3348801136,-0.7329101562,0.0654296875,0.0541992188,-0.3662109375,-0.5340576172,0.1220703125
0.3375730515,-0.7343750000,0.0600585938,0.0576171875,-0.3662109375,-0.5340576172,0.1220703125
0.3402781487,-0.7343750000,0.0600585938,0.0576171875,-0.7019042969,-0.2441406250,0.2441406250
0.3429770470,-0.7343750000,0.0600585938,0.0576171875,-0.7019042969,-0.2441406250,0.2441406250
0.3456809521,-0.7343750000,0.0600585938,0.0576171875,-0.9002685547,-0.2746582031,0.0152587891
0.3482689857,-0.7255859375,0.0634765625,0.0498046875,-0.9002685547,-0.2746582031,0.0152587891
0.3508360386,-0.7255859375,0.0634765625,0.0498046875,-0.5950927734,0.0457763672,-0.1678466797
0.3534040451,-0.7255859375,0.0634765625,0.0498046875,-0.5950927734,0.0457763672,-0.1678466797
0.3559751511,-0.7255859375,0.0634765625,0.0498046875,-0.5950927734,-0.0762939453,-0.3051757812
0.3586730957,-0.7314453125,0.0639648438,0.0478515625,-0.3051757812,-0.0762939453,-0.3051757812
0.3613779545,-0.7314453125,0.0639648438,0.0478515625,-0.3051757812,-0.3509521484,-0.0152587891
0.3640720844,-0.7314453125,0.0639648438,0.0478515625,0.0000000000,-0.3509521484,-0.0152587891
0.3667809963,-0.7314453125,0.0639648438,0.0595703125,0.0000000000,-0.0915527344,-0.3051757812
0.3694810867,-0.7309570312,0.0625000000,0.0595703125,-0.0915527344,-0.0915527344,-0.3051757812
0.3722760677,-0.7309570312,0.0625000000,0.0595703125,3.8146972656,-0.6866455078,-0.4577636719
0.3749811649,-0.7309570312,0.0625000000,0.0595703125,0.6713867188,-0.6866455078,-0.4577636719
0.3777210712,-0.7309570312,0.0659179688,0.0458984375,0.6713867188,-0.2593994141,-0.2441406250
0.3804161549,-0.7319335938,0.0659179688,0.0458984375,0.3051757812,-0.2593994141,-0.2441406250
0.3831200600,-0.7319335938,0.0659179688,0.0458984375,0.3051757812,-0.2441406250,-0.3662109375
0.3858280182,-0.7319335938,0.0659179688,0.0458984375,-0.1525878906,-0.2441406250,-0.3662109375
0.3885171413,-0.7324218750,0.0659179688,0.0541992188,-0.1525878906,-0.2441406250,-0.5340576172
0.3910830021,-0.7324218750,0.0659179688,0.0541992188,-0.1983642578,-0.3662109375,-0.5340576172
0.3936560154,-0.7324218750,0.0659179688,0.0541992188,-0.1983642578,-0.3662109375,-0.3662109375
0.3962960243,-0.7324218750,0.0659179688,0.0541992188,0.0000000000,-0.2136230469,-0.3662109375
0.3989560604,-0.7275390625,0.0620117188,0.0449218750,0.0000000000,-0.2136230469,-0.1983642578
0.4016749859,-0.7275390625,0.0620117188,0.0449218750,-0.2746582031,-0.2593994141,-0.1983642578
0.4043500423,-0.7275390625,0.0620117188,0.0449218750,3.6315917969,-0.4119873047,-0.3967285156
0.4077341557,-0.7275390625,0.0585937500,0.0429687500,0.0762939453,-0.4119873047,-0.3967285156
0.4102950096,-0.7338867188,0.0585937500,0.0429687500,0.0762939453,-0.4119873047,-0.4272460938
0.4128580093,-0.7338867188,0.0585937500,0.0429687500,-0.3356933594,-0.1220703125,-0.4272460938
0.4154219627,-0.7338867188,0.0585937500,0.0429687500,-0.3356933594,-0.1220703125,-0.2746582031
0.4180631638,-0.7338867188,0.0595703125,0.0512695312,-0.4425048828,-0.1678466797,-0.2746582031
0.4206249714,-0.7348632812,0.0595703125,0.0512695312,-0.4425048828,-0.1678466797,-0.2746582031
0.4231860638,-0.7348632812,0.0595703125,0.0512695312,-0.1220703125,-0.1678466797,-0.3509521484
0.4257450104,-0.7348632812,0.0595703125,0.0512695312,-0.1220703125,-0.1678466797,-0.3509521484
0.4283111095,-0.7309570312,0.0678710938,0.0449218750,-0.0457763672,-0.3967285156,-0.4119873047
0.4308750629,-0.7309570312,0.0678710938,0.0449218750,-0.0457763672,-0.3967285156,-0.4119873047
0.4334380627,-0.7309570312,0.0678710938,0.0449218750,0.0152587891,-0.7476806641,-0.7019042969
0.4360599518,-0.7309570312,0.0678710938,0.0449218750,0.0152587891,-0.7476806641,-0.7019042969
0.4387340546,-0.7353515625,0.0639648438,0.0576171875,0.0000000000,-0.3051757812,-0.7934570312
0.4413011074,-0.7353515625,0.0639648438,0.0576171875,0.0000000000,-0.3051757812,-0.7934570312
0.4438719749,-0.7353515625,0.0639648438,0.0576171875,0.0305175781,-0.0457763672,-0.3509521484
0.4465041161,-0.7353515625,0.0639648438,0.0576171875,0.0305175781,-0.0457763672,-0.3509521484
0.4490630627,-0.7324218750,0.0605468750,0.0473632812,0.0000000000,-0.3356933594,0.0152587891
0.4516291618,-0.7324218750,0.0605468750,0.0473632812,0.0000000000,-0.3356933594,0.0152587891
0.4541909695,-0.7324218750,0.0605468750,0.0473632812,0.1068115234,-0.4119873047,-0.3204345703
0.4568600655,-0.7324218750,0.0605468750,0.0473632812,0.1068115234,-0.4119873047,-0.3204345703
0.4594311714,-0.7329101562,0.0615234375,0.0419921875,0.1068115234,-0.2136230469,-0.4425048828
0.4619920254,-0.7329101562,0.0615234375,0.0419921875,-0.6103515625,-0.2136230469,-0.4425048828
0.4645581245,-0.7329101562,0.0615234375,0.0419921875,-0.6103515625,-0.2136230469,-0.3051757812
0.4672820568,-0.7329101562,0.0615234375,0.0419921875,-0.1831054688,-0.0152587891,-0.3051757812
0.4699800014,-0.7314453125,0.0634765625,0.0502929688,-0.1831054688,-0.0152587891,-0.2136230469
0.4726791382,-0.7314453125,0.0634765625,0.0502929688,-0.2288818359,-0.2746582031,-0.2136230469
0.4753789902,-0.7314453125,0.0634765625,0.0502929688,-0.2288818359,-0.2746582031,-0.3509521484
0.4780089855,-0.7314453125,0.0634765625,0.0493164062,0.1373291016,-0.3814697266,-0.3509521484
0.4805719852,-0.7299804688,0.0605468750,0.0493164062,0.1373291016,-0.3814697266,-0.3509521484
0.4831399918,-0.7299804688,0.0605468750,0.0493164062,0.0457763672,-0.2899169922,-0.2136230469
0.4857051373,-0.7299804688,0.0605468750,0.0493164062,0.0457763672,-0.2899169922,-0.2136230469
0.4884109497,-0.7299804688,0.0595703125,0.0449218750,0.4882812500,-0.4577636719,-0.6408691406
0.4911110401,-0.7358398438,0.0595703125,0.0449218750,0.4882812500,-0.4577636719,-0.6408691406
0.4938130379,-0.7358398438,0.0595703125,0.0449218750,0.3509521484,-0.3204345703,-0.5950927734
0.4964900017,-0.7358398438,0.0595703125,0.0449218750,0.3509521484,-0.3204345703,-0.5950927734
0.4990530014,-0.7343750000,0.0590820312,0.0502929688,0.3204345703,-0.2593994141,-0.3204345703
0.5017249584,-0.7343750000,0.0590820312,0.0502929688,0.3204345703,-0.2593994141,-0.3204345703
0.5042901039,-0.7343750000,0.0590820312,0.0502929688,-0.2746582031,-0.1373291016,-0.0762939453
0.5069620609,-0.7343750000,0.0590820312,0.0502929688,-0.2746582031,-0.1373291016,-0.0762939453
0.5096621513,-0.7299804688,0.0629882812,0.0493164062,-0.1983642578,-0.0152587891,-0.2593994141
0.5123569965,-0.7299804688,0.0629882812,0.0493164062,-0.1983642578,-0.0152587891,-0.2593994141
0.5150570869,-0.7299804688,0.0629882812,0.0493164062,-0.0152587891,-0.0762939453,-0.4272460938
0.5177690983,-0.7299804688,0.0629882812,0.0493164062,-0.0152587891,-0.0762939453,-0.4272460938
0.5204629898,-0.7314453125,0.0639648438,0.0551757812,0.2441406250,-0.3051757812,-0.3204345703
0.5232520103,-0.7314453125,0.0639648438,0.0551757812,0.2441406250,-0.3051757812,-0.3204345703
0.5259549618,-0.7314453125,0.0639648438,0.0551757812,-0.4882812500,-0.1983642578,-0.3204345703
0.5285260677,-0.7314453125,0.0639648438,0.0546875000,-0.4882812500,-0.1983642578,-0.3204345703
0.5310981274,-0.7358398438,0.0581054688,0.0546875000,0.1983642578,-0.1220703125,-0.5798339844
0.5336649418,-0.7358398438,0.0581054688,0.0546875000,0.1983642578,-0.1220703125,-0.5798339844
0.5363080502,-0.7358398438,0.0581054688,0.0546875000,0.9918212891,-0.3051757812,-0.5340576172
0.5390040874,-0.7358398438,0.0644531250,0.0507812500,0.9918212891,-0.3051757812,-0.5340576172
0.5417020321,-0.7299804688,0.0644531250,0.0507812500,0.9613037109,-0.5187988281,-0.2441406250
0.5443961620,-0.7299804688,0.0644531250,0.0507812500,0.9613037109,-0.5187988281,-0.2441406250
0.5471069813,-0.7299804688,0.0644531250,0.0507812500,0.8697509766,-0.7324218750,-0.4730224609
0.5498061180,-0.7343750000,0.0537109375,0.0512695312,0.8697509766,-0.7324218750,-0.4730224609
0.5525090694,-0.7343750000,0.0537109375,0.0512695312,0.8087158203,-0.6103515625,-0.4272460938
0.5552051067,-0.7343750000,0.0537109375,0.0512695312,0.8087158203,-0.6103515625,-0.4272460938
0.5578150749,-0.7343750000,0.0537109375,0.0512695312,0.3814697266,-0.5798339844,-0.5340576172
0.5603799820,-0.7319335938,0.0629882812,0.0361328125,0.3814697266,-0.5798339844,-0.5340576172
0.5629501343,-0.7319335938,0.0629882812,0.0361328125,0.3814697266,-0.5340576172,-0.8087158203
0.5656220913,-0.7319335938,0.0629882812,0.0361328125,0.1373291016,-0.5340576172,-0.8087158203
0.5683419704,-0.7319335938,0.0629882812,0.0361328125,-3.7689208984,-0.2899169922,-0.5493164062
0.5709199905,-0.7338867188,0.0595703125,0.0502929688,-0.1068115234,-0.2899169922,-0.5493164062
0.5734829903,-0.7338867188,0.0595703125,0.0502929688,-0.1068115234,-0.2899169922,-0.5187988281
0.5762200356,-0.7338867188,0.0595703125,0.0502929688,0.0457763672,-0.5493164062,-0.5187988281
0.5789210796,-0.7338867188,0.0595703125,0.0444335938,0.0457763672,-0.5493164062,-0.2593994141
0.5816161633,-0.7290039062,0.0576171875,0.0444335938,0.2136230469,-0.5035400391,-0.2593994141
0.5843231678,-0.7290039062,0.0576171875,0.0444335938,0.2136230469,-0.5035400391,0.0305175781
0.5870230198,-0.7290039062,0.0576171875,0.0444335938,0.1373291016,-0.3662109375,0.0305175781
0.5897221565,-0.7290039062,0.0576171875,0.0400390625,0.1373291016,-0.3662109375,-0.3051757812
0.5924260616,-0.7397460938,0.0576171875,0.0400390625,0.1678466797,-0.5493164062,-0.3051757812
0.5951240063,-0.7397460938,0.0576171875,0.0400390625,0.1678466797,-0.5493164062,-0.4119873047
0.5978300571,-0.7397460938,0.0576171875,0.0400390625,-0.2441406250,-0.3509521484,-0.4119873047
0.6005330086,-0.7309570312,0.0659179688,0.0458984375,-0.2441406250,-0.3509521484,-0.2593994141
0.6032309532,-0.7309570312,0.0659179688,0.0458984375,-0.3662109375,0.0152587891,-0.2593994141
0.6059451103,-0.7309570312,0.0659179688,0.0458984375,-0.3662109375,0.0152587891,-0.1831054688
0.6085071564,-0.7309570312,0.0659179688,0.0458984375,0.4577636719,-0.3204345703,-0.1831054688
0.6110711098,-0.7255859375,0.0673828125,0.0454101562,0.4577636719,-0.3204345703,-0.1831054688
0.6136410236,-0.7255859375,0.0673828125,0.0454101562,0.6866455078,-0.6561279297,-0.4425048828
0.6162290573,-0.7255859375,0.0673828125,0.0454101562,0.6866455078,-0.6561279297,-0.4425048828
0.6189329624,-0.7255859375,0.0673828125,0.0454101562,0.7781982422,-0.9002685547,-0.4425048828
0.6216311455,-0.7309570312,0.0615234375,0.0517578125,0.7781982422,-0.9002685547,-0.4425048828
0.6243259907,-0.7309570312,0.0615234375,0.0517578125,0.8697509766,-0.7171630859,-0.8087158203
0.6270320415,-0.7309570312,0.0615234375,0.0517578125,0.8697509766,-0.7171630859,-0.8087158203
0.6298360825,-0.7309570312,0.0571289062,0.0546875000,1.2664794922,-0.6256103516,-0.8392333984
0.6325311661,-0.7255859375,0.0571289062,0.0546875000,1.2664794922,-0.6256103516,-0.8392333984
0.6352291107,-0.7255859375,0.0571289062,0.0546875000,0.9765625000,-0.5493164062,-0.6408691406
0.6379361153,-0.7255859375,0.0571289062,0.0546875000,0.9765625000,-0.5493164062,-0.6408691406
0.6406309605,-0.7314453125,0.0571289062,0.0473632812,0.0305175781,-0.3509521484,-0.1983642578
0.6433351040,-0.7314453125,0.0571289062,0.0473632812,0.0305175781,-0.3509521484,-0.1983642578
0.6460809708,-0.7314453125,0.0571289062,0.0473632812,-0.0762939453,-0.1983642578,-0.3204345703
0.6487851143,-0.7314453125,0.0571289062,0.0473632812,-0.0762939453,-0.1983642578,-0.3204345703
0.6514811516,-0.7290039062,0.0639648438,0.0468750000,-0.0457763672,-0.3509521484,-0.3814697266
0.6541769505,-0.7290039062,0.0639648438,0.0468750000,-0.0457763672,-0.3509521484,-0.3814697266
0.6568720341,-0.7290039062,0.0639648438,0.0468750000,0.4272460938,-0.5950927734,-0.2136230469
0.6594381332,-0.7290039062,0.0639648438,0.0468750000,0.4272460938,-0.5950927734,-0.2136230469
0.6620039940,-0.7241210938,0.0698242188,0.0546875000,0.9155273438,-0.6408691406,-0.2899169922
0.6645760536,-0.7241210938,0.0698242188,0.0546875000,0.9155273438,-0.6408691406,-0.2899169922
0.6672589779,-0.7241210938,0.0698242188,0.0546875000,1.0528564453,-0.6561279297,-0.1220703125
0.6699600220,-0.7241210938,0.0698242188,0.0405273438,1.0528564453,-0.6561279297,-0.1220703125
0.6726570129,-0.7236328125,0.0698242188,0.0405273438,1.5869140625,-0.6866455078,-0.5798339844
0.6753571033,-0.7236328125,0.0698242188,0.0405273438,1.5869140625,-0.6866455078,-0.5798339844
0.6781079769,-0.7236328125,0.0698242188,0.0405273438,2.2735595703,-0.8392333984,-0.5035400391
0.6808030605,-0.7275390625,0.0683593750,0.0483398438,2.2735595703,-0.8392333984,-0.5035400391
0.6834969521,-0.7275390625,0.0683593750,0.0483398438,2.4871826172,-1.1749267578,-0.7171630859
0.6862070560,-0.7275390625,0.0683593750,0.0483398438,2.4871826172,-1.1749267578,-0.7171630859
0.6888990402,-0.7275390625,0.0683593750,0.0483398438,2.7465820312,-0.7781982422,-1.1138916016
0.6915991306,-0.7338867188,0.0585937500,0.0454101562,2.7465820312,-0.7781982422,-1.1138916016
0.6943981647,-0.7338867188,0.0585937500,0.0454101562,2.7313232422,-0.7324218750,-0.8544921875
0.6971070766,-0.7338867188,0.0585937500,0.0454101562,2.7313232422,-0.7324218750,-0.8544921875
0.6998121738,-0.7338867188,0.0585937500,0.0454101562,1.8615722656,-0.7019042969,-0.7171630859
0.7025060654,-0.7397460938,0.0581054688,0.0449218750,1.8615722656,-0.7019042969,-0.7171630859
0.7052040100,-0.7397460938,0.0581054688,0.0449218750,0.8697509766,-0.6866455078,-0.3051757812
0.7078211308,-0.7397460938,0.0581054688,0.0449218750,0.8697509766,-0.6866455078,-0.3051757812
0.7103850842,-0.7397460938,0.0581054688,0.0502929688,0.4425048828,-0.3662109375,-0.3967285156
0.7129580975,-0.7353515625,0.0605468750,0.0502929688,0.4425048828,-0.3662109375,-0.3967285156
0.7155220509,-0.7353515625,0.0605468750,0.0502929688,0.7324218750,-0.0152587891,-0.3204345703
0.7182600498,-0.7353515625,0.0605468750,0.0502929688,0.7324218750,-0.0152587891,-0.3204345703
0.7209651470,-0.7353515625,0.0678710938,0.0434570312,1.1444091797,-0.1220703125,-0.1678466797
0.7236640453,-0.7329101562,0.0678710938,0.0434570312,1.1444091797,-0.1220703125,-0.1678466797
0.7263691425,-0.7329101562,0.0678710938,0.0434570312,1.6937255859,-0.3814697266,-0.4730224609
0.7290720940,-0.7329101562,0.0678710938,0.0434570312,1.6937255859,-0.3814697266,-0.4730224609
0.7317709923,-0.7333984375,0.0600585938,0.0429687500,2.1057128906,-0.3204345703,-0.6103515625
0.7344770432,-0.7333984375,0.0600585938,0.0429687500,2.1057128906,-0.3204345703,-0.6103515625
0.7371871471,-0.7333984375,0.0600585938,0.0429687500,1.7089843750,-0.5035400391,-0.1525878906
0.7398850918,-0.7333984375,0.0600585938,0.0429687500,1.7089843750,-0.5035400391,-0.1525878906
0.7425880432,-0.7260742188,0.0449218750,0.0449218750,1.7089843750,-0.7324218750,-0.2136230469
0.7452859879,-0.7260742188,0.0449218750,0.0449218750,1.1901855469,-0.7324218750,-0.2136230469
0.7479951382,-0.7260742188,0.0449218750,0.0449218750,-2.7160644531,-0.2441406250,0.0610351562
0.7506959438,-0.7260742188,0.0449218750,0.0322265625,-0.1831054688,-0.2441406250,0.0610351562
0.7533910275,-0.7299804688,0.0541992188,0.0322265625,-0.1831054688,0.0305175781,0.3204345703
0.7560951710,-0.7299804688,0.0541992188,0.0322265625,-0.5798339844,0.0305175781,0.3204345703
0.7587661743,-0.7299804688,0.0541992188,0.0322265625,-0.5798339844,0.4882812500,0.1373291016
0.7613339424,-0.7299804688,0.0722656250,0.0180664062,-1.0375976562,0.4882812500,0.1373291016
0.7639091015,-0.7514648438,0.0722656250,0.0180664062,-1.0375976562,0.4882812500,0.3814697266
0.7665631771,-0.7514648438,0.0722656250,0.0180664062,-0.7171630859,0.6713867188,0.3814697266
0.7692601681,-0.7514648438,0.0722656250,0.0180664062,-0.7171630859,0.6713867188,0.2899169922
0.7719659805,-0.7382812500,0.0761718750,0.0361328125,-0.4272460938,0.1068115234,0.2899169922
0.7746660709,-0.7382812500,0.0761718750,0.0361328125,-0.4272460938,0.1068115234,0.3662109375
0.7773809433,-0.7382812500,0.0761718750,0.0361328125,-0.6866455078,-0.1068115234,0.3662109375
0.7800760269,-0.7382812500,0.0761718750,0.0361328125,-0.6866455078,-0.1068115234,0.2593994141
0.7827701569,-0.7250976562,0.0546875000,0.0561523438,-0.0762939453,-0.1068115234,0.2593994141
0.7854759693,-0.7250976562,0.0546875000,0.0561523438,-0.0762939453,-0.1068115234,0.2288818359
0.7881860733,-0.7250976562,0.0546875000,0.0561523438,0.1220703125,-0.4272460938,0.2288818359
0.7908899784,-0.7250976562,0.0546875000,0.0561523438,0.1220703125,-0.4272460938,0.6408691406
0.7935910225,-0.7236328125,0.0493164062,0.0444335938,0.1068115234,-0.7476806641,0.6408691406
0.7964680195,-0.7236328125,0.0493164062,0.0444335938,0.1068115234,-0.7476806641,0.7934570312
0.7990360260,-0.7236328125,0.0493164062,0.0444335938,-0.7476806641,-0.5798339844,0.7934570312
0.8015980721,-0.7236328125,0.0400390625,0.0493164062,-0.7476806641,-0.5798339844,0.7934570312
0.8041591644,-0.7294921875,0.0400390625,0.0493164062,-1.4343261719,-0.0610351562,1.1749267578
0.8069419861,-0.7294921875,0.0400390625,0.0493164062,-1.4343261719,-0.0610351562,1.1749267578
0.8095140457,-0.7294921875,0.0400390625,0.0493164062,-1.4038085938,0.3356933594,1.7395019531
0.8121750355,-0.7324218750,0.0454101562,0.0629882812,-1.4038085938,0.3356933594,1.7395019531
0.8154940605,-0.7324218750,0.0454101562,0.0629882812,-1.5563964844,0.2136230469,2.0141601562
0.8182051182,-0.7324218750,0.0454101562,0.0629882812,-1.5563964844,0.2136230469,2.5177001953
0.8207731247,-0.7324218750,0.0454101562,0.0629882812,-2.3040771484,0.0305175781,2.5177001953
0.8234419823,-0.7407226562,0.0395507812,0.0708007812,-2.3040771484,0.0305175781,2.5177001953
0.8260641098,-0.7407226562,0.0395507812,0.0708007812,-2.6702880859,-0.0610351562,2.4871826172
0.8286221027,-0.7407226562,0.0395507812,0.0708007812,-2.6702880859,-0.0610351562,2.4871826172
0.8311841488,-0.7407226562,0.0395507812,0.0708007812,-1.7700195312,0.1831054688,2.3956298828
0.8337509632,-0.7480468750,0.0493164062,0.0727539062,-1.7700195312,0.1831054688,2.3956298828
0.8363311291,-0.7480468750,0.0493164062,0.0727539062,-1.4801025391,0.4425048828,2.4261474609
0.8388991356,-0.7480468750,0.0493164062,0.0727539062,-1.4801025391,0.4425048828,2.4261474609
0.8414621353,-0.7480468750,0.0493164062,0.0649414062,-0.8087158203,0.8087158203,2.1362304688
0.8440251350,-0.7373046875,0.0795898438,0.0649414062,-0.8087158203,0.8087158203,2.1362304688
0.8465931416,-0.7373046875,0.0795898438,0.0649414062,-0.8087158203,0.9002685547,2.0141601562
0.8491599560,-0.7373046875,0.0795898438,0.0649414062,-0.8087158203,0.9002685547,2.0141601562
0.8517220020,-0.7373046875,0.0795898438,0.0688476562,0.3814697266,0.8544921875,1.7547607422
0.8542840481,-0.7387695312,0.0605468750,0.0688476562,0.3814697266,0.8544921875,1.7547607422
0.8570120335,-0.7387695312,0.0605468750,0.0688476562,1.4801025391,0.4425048828,1.8615722656
0.8595781326,-0.7387695312,0.0605468750,0.0688476562,1.4801025391,0.4425048828,1.8615722656
0.8621449471,-0.7387695312,0.0717773438,0.0708007812,1.4801025391,0.5493164062,1.8615722656
0.8647100925,-0.7373046875,0.0717773438,0.0708007812,1.8463134766,0.5493164062,1.8615722656
0.8674600124,-0.7373046875,0.0717773438,0.0708007812,1.8463134766,0.5493164062,1.7242431641
0.8701591492,-0.7373046875,0.0717773438,0.0708007812,2.5482177734,0.9002685547,1.7242431641
0.8728611469,-0.7280273438,0.0722656250,0.0561523438,2.5482177734,0.9002685547,1.4343261719
0.8755650520,-0.7280273438,0.0722656250,0.0561523438,3.5858154297,0.8087158203,1.4343261719
0.8783099651,-0.7280273438,0.0722656250,0.0561523438,3.5858154297,0.8087158203,1.4038085938
0.8810091019,-0.7280273438,0.0722656250,0.0561523438,3.6010742188,1.1596679688,1.4038085938
0.8837060928,-0.7368164062,0.0639648438,0.0532226562,3.6010742188,1.1596679688,1.3122558594
0.8865170479,-0.7368164062,0.0639648438,0.0532226562,3.6163330078,1.0833740234,1.3122558594
0.8892199993,-0.7368164062,0.0639648438,0.0532226562,3.6163330078,1.0833740234,1.2969970703
0.8919169903,-0.7368164062,0.0639648438,0.0488281250,3.7994384766,1.2664794922,1.2969970703
0.8946151733,-0.7280273438,0.0683593750,0.0488281250,3.7994384766,1.2664794922,1.0681152344
0.8974671364,-0.7280273438,0.0683593750,0.0488281250,3.6468505859,1.4648437500,1.0681152344
0.9000279903,-0.7280273438,0.0683593750,0.0488281250,3.6468505859,1.4648437500,1.0223388672
0.9025959969,-0.7280273438,0.0620117188,0.0473632812,3.2348632812,1.3275146484,1.0223388672
0.9051561356,-0.7377929688,0.0620117188,0.0473632812,3.2348632812,1.3275146484,0.9460449219
0.9078130722,-0.7377929688,0.0620117188,0.0473632812,3.8757324219,1.6479492188,0.9460449219
0.9103820324,-0.7377929688,0.0620117188,0.0473632812,3.8757324219,1.6784667969,0.9460449219
0.9136970043,-0.7416992188,0.0629882812,0.0498046875,3.2196044922,1.6784667969,0.9460449219
0.9163379669,-0.7416992188,0.0629882812,0.0498046875,3.2196044922,1.6784667969,0.9918212891
0.9189081192,-0.7416992188,0.0629882812,0.0498046875,3.2653808594,1.7242431641,0.9918212891
0.9214680195,-0.7416992188,0.0629882812,0.0498046875,3.2653808594,1.7242431641,0.9918212891
0.9240360260,-0.7377929688,0.0493164062,0.0527343750,2.8533935547,1.5106201172,1.0528564453
0.9266059399,-0.7377929688,0.0493164062,0.0527343750,2.8533935547,1.5106201172,1.0528564453
0.9291679859,-0.7377929688,0.0493164062,0.0527343750,2.5787353516,1.2664794922,1.1138916016
0.9317281246,-0.7377929688,0.0493164062,0.0527343750,2.5787353516,1.2664794922,1.1138916016
0.9342870712,-0.7309570312,0.0703125000,0.0439453125,2.1514892578,1.4495849609,1.2512207031
0.9368951321,-0.7309570312,0.0703125000,0.0439453125,2.1514892578,1.4495849609,1.2512207031
0.9394600391,-0.7309570312,0.0703125000,0.0439453125,2.1057128906,1.5411376953,1.0986328125
0.9420261383,-0.7309570312,0.0703125000,0.0439453125,2.1057128906,1.5411376953,1.0986328125
0.9445950985,-0.7363281250,0.0571289062,0.0527343750,2.7160644531,1.4495849609,1.1291503906
0.9471621513,-0.7363281250,0.0571289062,0.0527343750,2.7160644531,1.4495849609,1.1291503906
0.9498350620,-0.7363281250,0.0571289062,0.0527343750,2.3193359375,1.6632080078,1.1596679688
0.9524040222,-0.7363281250,0.0571289062,0.0527343750,2.3193359375,1.6632080078,1.1596679688
0.9549670219,-0.7285156250,0.0644531250,0.0454101562,2.3193359375,1.9531250000,1.2817382812
0.9575991631,-0.7285156250,0.0644531250,0.0454101562,2.3193359375,1.9531250000,1.2817382812
0.9601690769,-0.7285156250,0.0644531250,0.0454101562,2.3193359375,1.8768310547,1.4801025391
0.9627320766,-0.7285156250,0.0644531250,0.0419921875,2.4414062500,1.8768310547,1.4801025391
0.9653010368,-0.7299804688,0.0634765625,0.0419921875,2.4414062500,2.0599365234,1.1901855469
0.9681651592,-0.7299804688,0.0634765625,0.0419921875,2.1972656250,2.0599365234,1.1901855469
0.9708650112,-0.7299804688,0.0634765625,0.0419921875,2.1972656250,2.0599365234,1.3122558594
0.9735670090,-0.7299804688,0.0600585938,0.0527343750,3.0212402344,2.0446777344,1.3122558594
0.9763100147,-0.7304687500,0.0600585938,0.0527343750,3.0212402344,2.0446777344,1.4190673828
0.9790110588,-0.7304687500,0.0600585938,0.0527343750,2.7465820312,2.1514892578,1.4190673828
0.9817121029,-0.7304687500,0.0600585938,0.0527343750,2.7465820312,2.1514892578,1.3580322266
0.9844059944,-0.7324218750,0.0600585938,0.0493164062,2.9907226562,2.2430419922,1.3580322266
0.9871170521,-0.7324218750,0.0600585938,0.0493164062,2.9907226562,2.2430419922,1.4953613281
0.9898159504,-0.7324218750,0.0600585938,0.0493164062,3.2043457031,2.2583007812,1.4953613281
0.9925069809,-0.7324218750,0.0600585938,0.0493164062,3.2043457031,2.2583007812,1.5869140625
0.9952111244,-0.7368164062,0.0483398438,0.0351562500,2.2888183594,2.0599365234,1.5869140625
0.9979281425,-0.7368164062,0.0483398438,0.0351562500,2.2888183594,2.0599365234,2.0141601562
1.0006239414,-0.7368164062,0.0483398438,0.0351562500,1.1444091797,1.7547607422,2.0141601562
1.0033249855,-0.7368164062,0.0483398438,0.0458984375,1.1444091797,1.7547607422,1.5258789062
1.0060710907,-0.7421875000,0.0517578125,0.0458984375,1.0070800781,1.9531250000,1.5258789062
1.0087749958,-0.7421875000,0.0517578125,0.0458984375,1.0070800781,1.9531250000,1.3732910156
1.0114729404,-0.7421875000,0.0517578125,0.0458984375,0.0457763672,2.3498535156,1.3732910156
1.0142769814,-0.7456054688,0.0786132812,0.0395507812,0.0457763672,2.3498535156,1.5869140625
1.0169990063,-0.7456054688,0.0786132812,0.0395507812,-0.4577636719,2.5177001953,1.5869140625
1.0196969509,-0.7456054688,0.0786132812,0.0395507812,-0.4577636719,2.5177001953,1.5869140625
1.0225219727,-0.7456054688,0.0786132812,0.0395507812,-0.6256103516,2.4566650391,1.5869140625
1.0252280235,-0.7456054688,0.0654296875,0.0390625000,-0.6256103516,2.4566650391,1.3580322266
1.0279371738,-0.7456054688,0.0654296875,0.0390625000,-0.7019042969,2.4414062500,1.3580322266
1.0306391716,-0.7456054688,0.0654296875,0.0390625000,-0.7019042969,2.4414062500,1.0070800781
1.0333361626,-0.7456054688,0.0654296875,0.0429687500,-1.0070800781,2.8533935547,1.0070800781
1.0360829830,-0.7416992188,0.0756835938,0.0429687500,-1.0070800781,2.8533935547,1.0070800781
1.0387780666,-0.7416992188,0.0756835938,0.0429687500,-0.8544921875,2.8991699219,1.0070800781
1.0414710045,-0.7416992188,0.0756835938,0.0429687500,-0.8544921875,2.8991699219,0.8544921875
1.0441660881,-0.7416992188,0.0703125000,0.0449218750,-1.3275146484,3.0364990234,0.8544921875
1.0469050407,-0.7246093750,0.0703125000,0.0449218750,-1.3275146484,3.0364990234,0.8392333984
1.0496051311,-0.7246093750,0.0703125000,0.0449218750,-0.6103515625,3.0670166016,0.8392333984
1.0522980690,-0.7246093750,0.0703125000,0.0449218750,-0.6103515625,3.0670166016,0.9307861328
1.0549900532,-0.7314453125,0.0664062500,0.0541992188,-1.0375976562,3.0517578125,0.9307861328
1.0576431751,-0.7314453125,0.0664062500,0.0541992188,-1.0375976562,3.0517578125,0.7781982422
1.0602130890,-0.7314453125,0.0664062500,0.0541992188,-1.5869140625,3.1585693359,0.7781982422
1.0627739429,-0.7314453125,0.0664062500,0.0541992188,-1.5869140625,3.1585693359,0.7781982422
1.0653369427,-0.7270507812,0.0800781250,0.0571289062,-1.1444091797,3.3264160156,0.7019042969
1.0679960251,-0.7270507812,0.0800781250,0.0571289062,-1.1444091797,3.3264160156,0.7019042969
1.0705630779,-0.7270507812,0.0800781250,0.0571289062,-0.5035400391,3.8146972656,0.9002685547
1.0731291771,-0.7270507812,0.0800781250,0.0571289062,-0.5035400391,3.8146972656,0.9002685547
1.0756900311,-0.7290039062,0.0854492188,0.0537109375,0.5950927734,3.9215087891,0.9613037109
1.0785670280,-0.7290039062,0.0854492188,0.0537109375,0.5950927734,3.9215087891,0.9613037109
1.0812711716,-0.7290039062,0.0854492188,0.0537109375,1.1138916016,3.6621093750,0.5187988281
1.0839660168,-0.7290039062,0.0854492188,0.0483398438,1.1138916016,3.6621093750,0.5187988281
1.0867049694,-0.7314453125,0.0815429688,0.0483398438,1.0528564453,3.5247802734,0.4882812500
1.0894010067,-0.7314453125,0.0815429688,0.0483398438,1.0528564453,3.5247802734,0.4882812500
1.0920929909,-0.7314453125,0.0815429688,0.0483398438,2.1972656250,3.6621093750,0.4577636719
1.0947890282,-0.7314453125,0.0810546875,0.0400390625,2.1972656250,3.6621093750,0.4577636719
1.0975370407,-0.7211914062,0.0810546875,0.0400390625,2.7008056641,3.8909912109,0.1220703125
1.1002359390,-0.7211914062,0.0810546875,0.0400390625,2.7008056641,3.8909912109,0.1220703125
1.1029381752,-0.7211914062,0.0810546875,0.0400390625,2.9296875000,3.6926269531,0.4272460938
1.1056351662,-0.7421875000,0.0820312500,0.0278320312,2.9296875000,3.6926269531,0.4272460938
1.1083421707,-0.7421875000,0.0820312500,0.0278320312,3.4942626953,3.8604736328,0.9613037109
1.1110410690,-0.7421875000,0.0820312500,0.0278320312,3.4942626953,3.8604736328,0.9613037109
1.1137340069,-0.7421875000,0.0820312500,0.0278320312,3.6926269531,4.2572021484,0.9613037109
1.1164431572,-0.7290039062,0.0791015625,0.0292968750,3.6926269531,4.2572021484,0.9613037109
1.1191401482,-0.7290039062,0.0791015625,0.0292968750,3.0822753906,4.5013427734,0.6561279297
1.1218390465,-0.7290039062,0.0791015625,0.0292968750,3.0822753906,4.5013427734,0.6561279297
1.1245391369,-0.7290039062,0.0791015625,0.0380859375,2.4719238281,4.2877197266,0.5950927734
1.1272439957,-0.7333984375,0.0673828125,0.0380859375,2.4719238281,4.2877197266,0.5950927734
1.1299419403,-0.7333984375,0.0673828125,0.0380859375,3.3111572266,4.2572021484,0.8392333984
1.1326420307,-0.7333984375,0.0673828125,0.0380859375,3.3111572266,4.2572021484,0.8392333984
1.1353380680,-0.7382812500,0.0629882812,0.0400390625,4.1198730469,4.6997070312,1.2512207031
1.1380381584,-0.7382812500,0.0629882812,0.0400390625,4.1198730469,4.6997070312,1.2512207031
1.1407310963,-0.7382812500,0.0629882812,0.0400390625,3.6468505859,4.7302246094,1.3732910156
1.1434240341,-0.7382812500,0.0629882812,0.0400390625,3.6468505859,4.7302246094,1.3732910156
1.1462399960,-0.7299804688,0.0781250000,0.0283203125,3.5858154297,4.9133300781,1.5869140625
1.1489391327,-0.7299804688,0.0781250000,0.0283203125,3.5858154297,4.9133300781,1.5869140625
1.1516370773,-0.7299804688,0.0781250000,0.0283203125,4.2572021484,5.0964355469,1.8615722656
1.1543309689,-0.7299804688,0.0781250000,0.0283203125,4.2572021484,5.0964355469,1.8615722656
1.1569759846,-0.7392578125,0.0737304688,0.0395507812,5.2642822266,5.2947998047,2.3956298828
1.1595370770,-0.7392578125,0.0737304688,0.0395507812,5.2642822266,5.2947998047,2.3956298828
1.1621019840,-0.7392578125,0.0737304688,0.0395507812,6.6528320312,5.2795410156,2.6245117188
1.1646649837,-0.7392578125,0.0737304688,0.0429687500,6.6528320312,5.2795410156,2.6245117188
1.1672990322,-0.7368164062,0.0546875000,0.0429687500,6.6223144531,5.2795410156,3.1433105469
1.1698610783,-0.7368164062,0.0546875000,0.0429687500,6.6223144531,5.2795410156,3.1433105469
1.1724159718,-0.7368164062,0.0546875000,0.0429687500,6.6223144531,5.2032470703,4.0893554688
1.1749761105,-0.7368164062,0.0546875000,0.0244140625,6.1645507812,5.2032470703,4.0893554688
1.1775481701,-0.7353515625,0.0390625000,0.0244140625,6.1645507812,5.2032470703,5.1269531250
1.1801161766,-0.7353515625,0.0390625000,0.0244140625,5.0201416016,5.7525634766,5.1269531250
1.1826729774,-0.7353515625,0.0390625000,0.0244140625,5.0201416016,5.7525634766,5.1269531250
1.1852350235,-0.7353515625,0.0390625000,0.0234375000,3.5247802734,5.7830810547,6.6986083984
1.1878449917,-0.7353515625,0.0244140625,0.0234375000,3.5247802734,5.7830810547,6.6986083984
1.1904070377,-0.7353515625,0.0244140625,0.0234375000,2.4719238281,5.6304931641,7.8582763672
1.1929690838,-0.7353515625,0.0244140625,0.0234375000,2.4719238281,5.6304931641,7.8582763672
1.1955280304,-0.7353515625,0.0107421875,0.0229492188,2.1514892578,5.7983398438,9.0942382812
1.1980919838,-0.7377929688,0.0107421875,0.0229492188,2.1514892578,5.7983398438,9.0942382812
1.2006540298,-0.7377929688,0.0107421875,0.0229492188,1.7242431641,5.8135986328,10.5133056641
1.2032151222,-0.7377929688,0.0107421875,0.0229492188,1.7242431641,5.8135986328,10.5133056641
1.2060251236,-0.7475585938,0.0346679688,0.0175781250,0.7476806641,5.9204101562,11.9781494141
1.2087221146,-0.7475585938,0.0346679688,0.0175781250,0.7476806641,5.9204101562,11.9781494141
1.2113900185,-0.7475585938,0.0346679688,0.0175781250,0.7171630859,5.8135986328,12.8631591797
1.2139570713,-0.7475585938,0.0346679688,0.0175781250,0.7171630859,5.8135986328,12.8631591797
1.2172751427,-0.7578125000,0.0546875000,0.0258789062,1.5258789062,6.0577392578,13.7634277344
1.2198450565,-0.7578125000,0.0546875000,0.0258789062,1.5258789062,6.0577392578,13.7634277344
1.2224149704,-0.7578125000,0.0546875000,0.0258789062,0.8087158203,6.2713623047,14.9078369141
1.2249801159,-0.7578125000,0.0546875000,0.0258789062,0.8087158203,6.2713623047,14.9078369141
1.2275590897,-0.7539062500,0.0727539062,0.0288085938,0.2899169922,6.5612792969,15.5334472656
1.2301211357,-0.7539062500,0.0727539062,0.0288085938,0.2899169922,6.5612792969,15.5334472656
1.2326850891,-0.7539062500,0.0727539062,0.0288085938,1.3275146484,6.5155029297,15.9606933594
1.2352590561,-0.7539062500,0.0727539062,0.0288085938,1.3275146484,6.5155029297,15.9606933594
1.2378649712,-0.7441406250,0.0678710938,0.0317382812,1.3275146484,6.4239501953,16.6320800781
1.2404301167,-0.7441406250,0.0678710938,0.0317382812,2.2888183594,6.4239501953,16.6320800781
1.2429971695,-0.7441406250,0.0678710938,0.0317382812,2.2888183594,6.4239501953,17.4407958984
1.2455620766,-0.7441406250,0.0678710938,0.0434570312,3.5095214844,6.6528320312,17.4407958984
1.2481441498,-0.7402343750,0.0625000000,0.0434570312,3.5095214844,6.6528320312,18.1427001953
1.2507140636,-0.7402343750,0.0625000000,0.0434570312,3.9062500000,6.9274902344,18.1427001953
1.2532880306,-0.7402343750,0.0625000000,0.0434570312,3.9062500000,6.9274902344,18.1427001953
1.2558519840,-0.7402343750,0.0625000000,0.0415039062,4.4555664062,6.8969726562,18.9361572266
1.2584180832,-0.7421875000,0.0585937500,0.0415039062,4.4555664062,6.8969726562,18.9361572266
1.2609910965,-0.7421875000,0.0585937500,0.0415039062,4.9133300781,7.2479248047,20.2331542969
1.2635691166,-0.7421875000,0.0585937500,0.0415039062,4.9133300781,7.2479248047,20.2331542969
1.2662529945,-0.7421875000,0.0527343750,0.0302734375,4.8980712891,7.4768066406,22.0184326172
1.2688281536,-0.7416992188,0.0527343750,0.0302734375,4.8980712891,7.4768066406,22.0184326172
1.2715070248,-0.7416992188,0.0527343750,0.0302734375,4.9285888672,7.6293945312,23.7731933594
1.2740759850,-0.7416992188,0.0527343750,0.0302734375,4.9285888672,7.6293945312,23.7731933594
1.2768290043,-0.7500000000,0.0483398438,0.0209960938,4.6691894531,7.9956054688,25.7415771484
1.2795341015,-0.7500000000,0.0483398438,0.0209960938,4.6691894531,7.9956054688,25.7415771484
1.2822320461,-0.7500000000,0.0483398438,0.0209960938,5.0659179688,8.2397460938,27.7709960938
1.2849371433,-0.7500000000,0.0483398438,0.0209960938,5.0659179688,8.2397460938,27.7709960938
1.2876369953,-0.7573242188,0.0322265625,0.0102539062,4.9133300781,7.8887939453,30.3802490234
1.2903411388,-0.7573242188,0.0322265625,0.0102539062,4.9133300781,7.8887939453,30.3802490234
1.2930409908,-0.7573242188,0.0322265625,0.0102539062,4.1046142578,6.8969726562,33.1420898438
1.2957420349,-0.7573242188,0.0322265625,0.0102539062,4.1046142578,6.8969726562,33.1420898438
1.2984480858,-0.7617187500,-0.0322265625,0.0244140625,2.8839111328,6.6223144531,35.1104736328
1.3011450768,-0.7617187500,-0.0322265625,0.0244140625,2.8839111328,6.6223144531,35.1104736328
1.3038439751,-0.7617187500,-0.0322265625,0.0244140625,3.2196044922,7.1868896484,37.3077392578
1.3065371513,-0.7617187500,-0.0166015625,0.0307617188,3.2196044922,7.1868896484,37.3077392578
1.3091039658,-0.7778320312,-0.0166015625,0.0307617188,2.5024414062,7.3242187500,40.4510498047
1.3116769791,-0.7778320312,-0.0166015625,0.0307617188,2.5024414062,7.3242187500,40.4510498047
1.3142471313,-0.7778320312,-0.0166015625,0.0307617188,0.6103515625,7.2174072266,44.3878173828
1.3169419765,-0.7778320312,0.0166015625,0.0239257812,0.6103515625,7.2174072266,44.3878173828
1.3195149899,-0.7763671875,0.0166015625,0.0239257812,-3.2958984375,7.0343017578,47.4548339844
1.3220789433,-0.7763671875,0.0166015625,0.0239257812,-0.6713867188,7.0343017578,47.4548339844
1.3246419430,-0.7763671875,0.0166015625,0.0239257812,-0.6713867188,7.0343017578,49.8199462891
1.3273210526,-0.7832031250,0.0078125000,0.0268554688,0.4119873047,6.2866210938,49.8199462891
1.3298859596,-0.7832031250,0.0078125000,0.0268554688,0.4119873047,6.2866210938,51.8493652344
1.3325150013,-0.7832031250,0.0078125000,0.0268554688,0.5187988281,6.5155029297,51.8493652344
1.3351991177,-0.7832031250,0.0078125000,0.0268554688,0.5187988281,6.5155029297,54.1992187500
1.3378331661,-0.8022460938,0.0327148438,0.0483398438,1.2512207031,6.7901611328,54.1992187500
1.3403990269,-0.8022460938,0.0327148438,0.0483398438,1.2512207031,6.7901611328,54.1992187500
1.3429601192,-0.8022460938,0.0327148438,0.0483398438,2.4871826172,7.4615478516,57.1289062500
1.3455209732,-0.8022460938,0.0327148438,0.0483398438,2.4871826172,7.4615478516,57.1289062500
1.3480961323,-0.8017578125,0.0537109375,0.0356445312,3.8146972656,7.2937011719,60.1043701172
1.3506641388,-0.8017578125,0.0537109375,0.0356445312,3.8146972656,7.2937011719,60.1043701172
1.3532290459,-0.8017578125,0.0537109375,0.0356445312,5.6610107422,7.4005126953,62.7593994141
1.3558340073,-0.8017578125,0.0537109375,0.0356445312,5.6610107422,7.4005126953,62.7593994141
1.3584001064,-0.8066406250,0.0581054688,0.0390625000,7.4157714844,8.1787109375,65.4296875000
1.3609700203,-0.8066406250,0.0581054688,0.0390625000,7.4157714844,8.1787109375,65.4296875000
1.3635361195,-0.8066406250,0.0581054688,0.0390625000,9.1552734375,8.4991455078,68.4967041016
1.3661639690,-0.8066406250,0.0581054688,0.0390625000,9.1552734375,8.4991455078,68.4967041016
1.3687410355,-0.8125000000,0.0322265625,0.0429687500,10.8489990234,9.1705322266,71.7163085938
1.3713190556,-0.8125000000,0.0322265625,0.0429687500,10.8489990234,9.1705322266,71.7163085938
1.3738970757,-0.8125000000,0.0322265625,0.0429687500,10.8489990234,9.8571777344,74.6154785156
1.3766140938,-0.8125000000,0.0322265625,0.0429687500,11.6119384766,9.8571777344,74.6154785156
1.3791940212,-0.8310546875,-0.0043945312,0.0532226562,11.6119384766,9.8571777344,77.6672363281
1.3817729950,-0.8310546875,-0.0043945312,0.0532226562,11.3525390625,9.9334716797,77.6672363281
1.3843469620,-0.8310546875,-0.0043945312,0.0532226562,11.3525390625,9.9334716797,80.7342529297
1.3870120049,-0.8310546875,-0.0043945312,0.0639648438,10.7116699219,8.5601806641,80.7342529297
1.3895890713,-0.8452148438,0.0053710938,0.0639648438,10.7116699219,8.5601806641,84.6405029297
1.3921630383,-0.8452148438,0.0053710938,0.0639648438,9.9945068359,6.6223144531,84.0911865234
1.3947360516,-0.8452148438,0.0053710938,0.0639648438,9.9945068359,6.6223144531,84.0911865234
1.3975019455,-0.8452148438,0.0600585938,0.0947265625,10.2691650391,4.7760009766,88.4399414062
1.4001910686,-0.9184570312,0.0600585938,0.0947265625,10.2691650391,4.7760009766,88.4399414062
1.4028780460,-0.9184570312,0.0600585938,0.0947265625,12.7105712891,2.7313232422,91.6900634766
1.4055631161,-0.9184570312,0.0600585938,0.0947265625,12.7105712891,2.7313232422,91.6900634766
1.4082951546,-1.0600585938,0.0092773438,0.0654296875,14.8925781250,2.1667480469,93.0938720703
1.4110059738,-1.0600585938,0.0092773438,0.0654296875,14.8925781250,2.1667480469,93.0938720703
1.4135799408,-1.0600585938,0.0092773438,0.0654296875,17.8833007812,4.0893554688,93.9788818359
1.4163050652,-1.0600585938,0.0092773438,0.0654296875,17.8833007812,4.0893554688,93.9788818359
1.4189829826,-1.0942382812,-0.0102539062,0.0009765625,18.3410644531,6.2866210938,97.3358154297
1.4216489792,-1.0942382812,-0.0102539062,0.0009765625,18.3410644531,6.2866210938,97.3358154297
1.4243230820,-1.0942382812,-0.0102539062,0.0009765625,15.5792236328,6.8206787109,99.4110107422
1.4279000759,-1.0942382812,-0.0268554688,0.0913085938,15.5792236328,6.8206787109,99.2279052734
1.4304759502,-1.0214843750,-0.0268554688,0.0913085938,11.2609863281,7.4615478516,99.2279052734
1.4330389500,-1.0214843750,-0.0268554688,0.0913085938,11.2609863281,7.4615478516,99.2279052734
1.4356019497,-1.0214843750,-0.0268554688,0.0913085938,6.2713623047,7.9956054688,98.5717773438
1.4382710457,-0.8925781250,0.0053710938,0.1381835938,6.2713623047,7.9956054688,98.5717773438
1.4408321381,-0.8925781250,0.0053710938,0.1381835938,0.7476806641,7.7819824219,96.4050292969
1.4434020519,-0.8925781250,0.0053710938,0.1381835938,0.7476806641,7.7819824219,96.4050292969
1.4459681511,-0.8925781250,0.0053710938,0.1381835938,-3.2196044922,6.1798095703,93.8873291016
1.4485411644,-0.8046875000,0.1342773438,0.1474609375,-3.2196044922,6.1798095703,93.8873291016
1.4511129856,-0.8046875000,0.1342773438,0.1474609375,-4.1046142578,4.4860839844,90.2099609375
1.4536800385,-0.8046875000,0.1342773438,0.1474609375,-4.1046142578,4.4860839844,90.2099609375
1.4562959671,-0.8046875000,0.1342773438,0.1474609375,-1.4648437500,3.7078857422,84.4268798828
1.4588701725,-0.7641601562,0.0131835938,0.1186523438,-1.4648437500,3.7078857422,84.4268798828
1.4615459442,-0.7641601562,0.0131835938,0.1186523438,2.5482177734,2.1972656250,75.8056640625
1.4641151428,-0.7641601562,0.0131835938,0.1186523438,2.5482177734,2.1972656250,75.8056640625
1.4667179585,-0.7641601562,0.0131835938,0.1186523438,2.5177001953,0.7476806641,66.4367675781
1.4692890644,-0.6967773438,-0.2622070312,0.0546875000,2.5177001953,0.7476806641,66.4367675781
1.4718601704,-0.6967773438,-0.2622070312,0.0546875000,2.5177001953,-0.0152587891,56.7016601562
1.4744281769,-0.6967773438,-0.2622070312,0.0546875000,-1.8920898438,-0.0152587891,56.7016601562
1.4771831036,-0.6967773438,-0.2622070312,0.0546875000,-1.8920898438,-0.0152587891,48.6602783203
1.4797651768,-0.6171875000,-0.2998046875,0.0141601562,-9.9792480469,-0.5950927734,48.6602783203
1.4823391438,-0.6171875000,-0.2998046875,0.0141601562,-9.9792480469,-0.5950927734,40.8630371094
1.4849190712,-0.6171875000,-0.2998046875,0.0141601562,-18.6309814453,-3.0059814453,40.8630371094
1.4876010418,-0.6171875000,-0.2998046875,0.0141601562,-18.6309814453,-3.0059814453,31.7840576172
1.4901731014,-0.5581054688,-0.3183593750,0.0605468750,-29.3426513672,-7.0190429688,31.7840576172
1.4927480221,-0.5581054688,-0.3183593750,0.0605468750,-29.3426513672,-7.0190429688,31.7840576172
1.4953181744,-0.5581054688,-0.3183593750,0.0605468750,-40.0695800781,-10.2539062500,20.3552246094
1.4979851246,-0.5581054688,-0.3183593750,0.0654296875,-40.0695800781,-10.2539062500,20.3552246094
1.5005631447,-0.5502929688,-0.3671875000,0.0654296875,-47.3022460938,-11.4135742188,8.7280273438
1.5031299591,-0.5502929688,-0.3671875000,0.0654296875,-47.3022460938,-11.4135742188,8.7280273438
1.5057010651,-0.5502929688,-0.3671875000,0.0654296875,-52.1240234375,-12.0849609375,-2.7313232422
1.5082740784,-0.5502929688,-0.3671875000,0.0634765625,-52.1240234375,-12.0849609375,-2.7313232422
1.5108411312,-0.5224609375,-0.2734375000,0.0634765625,-54.8400878906,-13.1378173828,-14.0686035156
1.5134179592,-0.5224609375,-0.2734375000,0.0634765625,-54.8400878906,-13.1378173828,-14.0686035156
1.5160400867,-0.5224609375,-0.2734375000,0.0634765625,-55.2673339844,-13.8092041016,-25.2380371094
1.5186171532,-0.5224609375,-0.2231445312,0.0512695312,-55.2673339844,-13.8092041016,-25.2380371094
1.5211930275,-0.5214843750,-0.2231445312,0.0512695312,-53.8940429688,-13.9770507812,-36.4990234375
1.5238699913,-0.5214843750,-0.2231445312,0.0512695312,-53.8940429688,-13.9770507812,-36.4990234375
1.5265879631,-0.5214843750,-0.2231445312,0.0512695312,-51.8341064453,-13.6871337891,-47.8515625000
1.5291540623,-0.5214843750,-0.2084960938,0.0537109375,-51.8341064453,-13.6871337891,-47.8515625000
1.5317211151,-0.5444335938,-0.2084960938,0.0537109375,-51.8341064453,-11.9628906250,-58.9447021484
1.5342991352,-0.5444335938,-0.2084960938,0.0537109375,-49.0570068359,-11.9628906250,-58.9447021484
1.5369319916,-0.5444335938,-0.2084960938,0.0537109375,-49.0570068359,-8.0566406250,-69.1528320312
1.5395050049,-0.5693359375,-0.1733398438,0.0405273438,-46.5240478516,-10.6811523438,-69.1528320312
1.5423021317,-0.5693359375,-0.1733398438,0.0405273438,-46.5240478516,-10.6811523438,-78.6437988281
1.5448939800,-0.5693359375,-0.1733398438,0.0405273438,-43.5333251953,-10.1623535156,-78.6437988281
1.5477859974,-0.5693359375,-0.1733398438,0.0405273438,-43.5333251953,-10.1623535156,-87.5854492188
1.5504961014,-0.6044921875,-0.1230468750,0.0468750000,-39.7644042969,-9.3231201172,-87.5854492188
1.5532090664,-0.6044921875,-0.1230468750,0.0468750000,-39.7644042969,-9.3231201172,-95.8709716797
1.5559339523,-0.6044921875,-0.1230468750,0.0468750000,-33.9813232422,-8.0718994141,-95.8709716797
1.5586390495,-0.6044921875,-0.1230468750,0.0517578125,-33.9813232422,-4.1656494141,-103.6224365234
1.5613501072,-0.6298828125,-0.0971679688,0.0517578125,-28.1524658203,-6.9580078125,-103.6224365234
1.5640530586,-0.6298828125,-0.0971679688,0.0517578125,-28.1524658203,-6.9580078125,-111.1907958984
1.5667731762,-0.6298828125,-0.0971679688,0.0517578125,-22.1405029297,-6.9580078125,-111.1907958984
1.5694861412,-0.6298828125,-0.0849609375,0.0732421875,-22.1405029297,-6.9580078125,-118.7133789062
1.5721940994,-0.6831054688,-0.0849609375,0.0732421875,-15.1977539062,-6.3171386719,-118.7133789062
1.5748960972,-0.6831054688,-0.0849609375,0.0732421875,-15.1977539062,-6.3171386719,-124.6795654297
1.5775401592,-0.6831054688,-0.0849609375,0.0732421875,-9.6588134766,-6.6833496094,-124.6795654297
1.5801100731,-0.7353515625,-0.0664062500,0.0439453125,-9.6588134766,-6.6833496094,-132.4920654297
1.5826849937,-0.7353515625,-0.0664062500,0.0439453125,-4.9591064453,-6.9274902344,-130.1727294922
1.5852501392,-0.7353515625,-0.0664062500,0.0439453125,-4.9591064453,-6.9274902344,-130.1727294922
1.5879869461,-0.7353515625,-0.0664062500,0.0439453125,-0.9155273438,-6.3629150391,-134.9487304688
1.5905661583,-0.7685546875,-0.0351562500,0.0498046875,-0.9155273438,-6.3629150391,-134.9487304688
1.5931401253,-0.7685546875,-0.0351562500,0.0498046875,1.6479492188,-6.5307617188,-139.1754150391
1.5957059860,-0.7685546875,-0.0351562500,0.0498046875,1.6479492188,-6.5307617188,-139.1754150391
1.5983710289,-0.7685546875,-0.0351562500,0.0498046875,2.7008056641,-5.8746337891,-142.9138183594
1.6009421349,-0.7983398438,0.0205078125,0.0317382812,2.7008056641,-5.8746337891,-142.9138183594
1.6035151482,-0.7983398438,0.0205078125,0.0317382812,3.3111572266,-5.0048828125,-146.0113525391
1.6062359810,-0.7983398438,0.0205078125,0.0317382812,3.3111572266,-5.0048828125,-146.0113525391
1.6089360714,-0.7983398438,0.0205078125,0.0317382812,2.4261474609,-4.5013427734,-147.6287841797
1.6116471291,-0.8266601562,0.0708007812,0.0195312500,2.4261474609,-4.5013427734,-147.6287841797
1.6143569946,-0.8266601562,0.0708007812,0.0195312500,0.2746582031,-3.8146972656,-148.8189697266
1.6171109676,-0.8266601562,0.0708007812,0.0195312500,0.2746582031,-3.8146972656,-148.8189697266
1.6197781563,-0.8266601562,0.1284179688,0.0029296875,-2.7008056641,-2.4108886719,-149.6734619141
1.6226389408,-0.8603515625,0.1284179688,0.0029296875,-2.7008056641,-2.4108886719,-149.6734619141
1.6253120899,-0.8603515625,0.1284179688,0.0029296875,-5.6762695312,-2.7923583984,-149.4903564453
1.6279690266,-0.8603515625,0.1284179688,0.0029296875,-5.6762695312,-2.7923583984,-149.4903564453
1.6305351257,-0.8481445312,0.1669921875,0.0229492188,-8.5601806641,-3.2653808594,-148.6206054688
1.6330950260,-0.8481445312,0.1669921875,0.0229492188,-8.5601806641,-3.2653808594,-148.6206054688
1.6356630325,-0.8481445312,0.1669921875,0.0229492188,-12.5579833984,-3.6621093750,-147.2167968750
1.6382491589,-0.8481445312,0.1669921875,0.0229492188,-12.5579833984,-3.6621093750,-147.2167968750
1.6408231258,-0.8393554688,0.1547851562,0.0302734375,-16.0369873047,-4.3792724609,-145.9045410156
1.6433920860,-0.8393554688,0.1547851562,0.0302734375,-16.0369873047,-4.3792724609,-145.9045410156
1.6459560394,-0.8393554688,0.1547851562,0.0302734375,-16.0369873047,-5.2947998047,-144.8364257812
1.6485259533,-0.8393554688,0.1547851562,0.0302734375,-19.6685791016,-5.2947998047,-144.8364257812
1.6512041092,-0.8510742188,0.1083984375,0.0195312500,-19.6685791016,-5.2947998047,-143.2952880859
1.6537840366,-0.8510742188,0.1083984375,0.0195312500,-23.9410400391,-7.0800781250,-143.2952880859
1.6564459801,-0.8510742188,0.1083984375,0.0195312500,-23.9410400391,-7.0800781250,-141.5863037109
1.6590230465,-0.8510742188,0.1083984375,0.0195312500,-28.5644531250,-7.8277587891,-141.5863037109
1.6615951061,-0.8676757812,0.0781250000,-0.0034179688,-28.5644531250,-7.8277587891,-137.6800537109
1.6641650200,-0.8676757812,0.0781250000,-0.0034179688,-34.4696044922,-8.1024169922,-139.5874023438
1.6668491364,-0.8676757812,0.0781250000,-0.0034179688,-34.4696044922,-8.1024169922,-139.5874023438
1.6694209576,-0.8676757812,0.0781250000,-0.0034179688,-39.9322509766,-8.3007812500,-137.2222900391
1.6719989777,-0.8774414062,0.0874023438,-0.0268554688,-39.9322509766,-8.3007812500,-137.2222900391
1.6745760441,-0.8774414062,0.0874023438,-0.0268554688,-44.2810058594,-7.5378417969,-134.8266601562
1.6772661209,-0.8774414062,0.0874023438,-0.0268554688,-44.2810058594,-7.5378417969,-134.8266601562
1.6798400879,-0.8774414062,0.0874023438,-0.0112304688,-47.3327636719,-5.7983398438,-132.7819824219
1.6824159622,-0.8955078125,0.1264648438,-0.0112304688,-47.3327636719,-5.7983398438,-132.7819824219
1.6849911213,-0.8955078125,0.1264648438,-0.0112304688,-49.3469238281,-4.1809082031,-130.2947998047
1.6876621246,-0.8955078125,0.1264648438,-0.0112304688,-49.3469238281,-4.1809082031,-130.2947998047
1.6903610229,-0.8955078125,0.1459960938,-0.0063476562,-50.3997802734,-2.0599365234,-127.3498535156
1.6930701733,-0.8813476562,0.1459960938,-0.0063476562,-50.3997802734,-2.0599365234,-127.3498535156
1.6958169937,-0.8813476562,0.1459960938,-0.0063476562,-52.6885986328,-0.5340576172,-124.8321533203
1.6985239983,-0.8813476562,0.1459960938,-0.0063476562,-52.6885986328,-0.5340576172,-124.8321533203
1.7012259960,-0.8750000000,0.1528320312,0.0000000000,-55.6182861328,0.5950927734,-122.1008300781
1.7039289474,-0.8750000000,0.1528320312,0.0000000000,-55.6182861328,0.5950927734,-122.1008300781
1.7066409588,-0.8750000000,0.1528320312,0.0000000000,-57.8308105469,1.9989013672,-119.2474365234
1.7093460560,-0.8750000000,0.1528320312,0.0000000000,-57.8308105469,1.9989013672,-119.2474365234
1.7120480537,-0.8652343750,0.1669921875,0.0102539062,-59.8602294922,4.1351318359,-116.2872314453
1.7148520947,-0.8652343750,0.1669921875,0.0102539062,-59.8602294922,4.1351318359,-116.2872314453
1.7175750732,-0.8652343750,0.1669921875,0.0102539062,-61.5997314453,6.3323974609,-112.7166748047
1.7202830315,-0.8652343750,0.1669921875,0.0102539062,-61.5997314453,6.3323974609,-112.7166748047
1.7229969501,-0.8369140625,0.2075195312,0.0102539062,-64.4226074219,8.7127685547,-108.8562011719
1.7257001400,-0.8369140625,0.2075195312,0.0102539062,-64.4226074219,8.7127685547,-108.8562011719
1.7282950878,-0.8369140625,0.2075195312,0.0102539062,-69.0155029297,10.2691650391,-105.0262451172
1.7308781147,-0.8369140625,0.2822265625,0.0156250000,-69.0155029297,10.2691650391,-105.0262451172
1.7336421013,-0.8066406250,0.2822265625,0.0156250000,-72.5402832031,12.1154785156,-100.2807617188
1.7368979454,-0.8066406250,0.2822265625,0.0156250000,-72.5402832031,12.1154785156,-100.2807617188
1.7394759655,-0.8066406250,0.2822265625,0.0156250000,-75.7446289062,13.8092041016,-93.7194824219
1.7420501709,-0.7641601562,0.3598632812,0.0244140625,-75.7446289062,13.8092041016,-93.7194824219
1.7446279526,-0.7641601562,0.3598632812,0.0244140625,-78.2165527344,13.5040283203,-85.8917236328
1.7472779751,-0.7641601562,0.3598632812,0.0244140625,-78.2165527344,13.5040283203,-85.8917236328
1.7498569489,-0.7641601562,0.3598632812,0.0244140625,-80.8715820312,11.3830566406,-78.4606933594
1.7524340153,-0.7270507812,0.4101562500,0.0732421875,-80.8715820312,11.3830566406,-78.4606933594
1.7550101280,-0.7270507812,0.4101562500,0.0732421875,-84.7778320312,8.3312988281,-72.2961425781
1.7576401234,-0.7270507812,0.4101562500,0.0732421875,-82.1990966797,8.3312988281,-72.2961425781
1.7602150440,-0.7270507812,0.4101562500,0.0732421875,-82.1990966797,4.4250488281,-67.1081542969
1.7627849579,-0.7045898438,0.4003906250,0.0815429688,-82.2143554688,4.7912597656,-67.1081542969
1.7653551102,-0.7045898438,0.4003906250,0.0815429688,-82.2143554688,4.7912597656,-61.7828369141
1.7679309845,-0.7045898438,0.4003906250,0.0815429688,-80.9020996094,2.0294189453,-61.7828369141
1.7705030441,-0.7045898438,0.4003906250,0.0815429688,-80.9020996094,2.0294189453,-57.8765869141
1.7730729580,-0.7080078125,0.3769531250,0.0834960938,-77.6977539062,0.7324218750,-56.1523437500
1.7756440639,-0.7080078125,0.3769531250,0.0834960938,-77.6977539062,0.7324218750,-56.1523437500
1.7782461643,-0.7080078125,0.3769531250,0.0834960938,-73.6541748047,-0.3509521484,-50.1403808594
1.7809250355,-0.7080078125,0.3769531250,0.0742187500,-73.6541748047,-0.3509521484,-50.1403808594
1.7835021019,-0.7119140625,0.4062500000,0.0742187500,-69.6258544922,-1.3885498047,-43.5028076172
1.7862479687,-0.7119140625,0.4062500000,0.0742187500,-69.6258544922,-1.3885498047,-43.5028076172
1.7888269424,-0.7119140625,0.4062500000,0.0742187500,-66.8487548828,-2.4108886719,-36.6363525391
1.7914071083,-0.7119140625,0.4106445312,0.0781250000,-66.8487548828,-2.4108886719,-36.6363525391
1.7939851284,-0.6967773438,0.4106445312,0.0781250000,-64.2395019531,-3.2958984375,-29.3121337891
1.7967231274,-0.6967773438,0.4106445312,0.0781250000,-64.2395019531,-3.2958984375,-29.3121337891
1.7994339466,-0.6967773438,0.4106445312,0.0781250000,-61.9049072266,-3.9978027344,-21.2554931641
1.8021380901,-0.7031250000,0.4091796875,0.0888671875,-61.9049072266,-3.9978027344,-21.2554931641
1.8048400879,-0.7031250000,0.4091796875,0.0888671875,-59.6160888672,-5.0048828125,-12.9089355469
1.8075599670,-0.7031250000,0.4091796875,0.0888671875,-59.6160888672,-5.0048828125,-12.9089355469
1.8102641106,-0.7031250000,0.4091796875,0.0888671875,-55.6182861328,-6.2561035156,-5.0048828125
1.8129661083,-0.7006835938,0.4150390625,0.1059570312,-55.6182861328,-6.2561035156,-5.0048828125
1.8156700134,-0.7006835938,0.4150390625,0.1059570312,-51.6510009766,-7.5531005859,1.8920898438
1.8183810711,-0.7006835938,0.4150390625,0.1059570312,-51.6510009766,-7.5531005859,1.8920898438
1.8211441040,-0.7006835938,0.4150390625,0.1059570312,-47.6226806641,-8.6364746094,8.9569091797
1.8237140179,-0.6772460938,0.4047851562,0.1157226562,-47.6226806641,-8.6364746094,8.9569091797
1.8264641762,-0.6772460938,0.4047851562,0.1157226562,-44.6166992188,-10.7116699219,15.6860351562
1.8290519714,-0.6772460938,0.4047851562,0.1157226562,-44.6166992188,-10.7116699219,15.6860351562
1.8317270279,-0.6772460938,0.3457031250,0.1474609375,-43.9910888672,-13.9007568359,21.6369628906
1.8344860077,-0.6879882812,0.3457031250,0.1474609375,-43.9910888672,-13.9007568359,21.6369628906
1.8371310234,-0.6879882812,0.3457031250,0.1474609375,-43.2891845703,-15.7775878906,28.7322998047
1.8397021294,-0.6879882812,0.3457031250,0.1474609375,-43.2891845703,-15.7775878906,28.7322998047
1.8422739506,-0.6879882812,0.3891601562,0.1323242188,-41.8548583984,-17.2424316406,37.1551513672
1.8449571133,-0.7031250000,0.3891601562,0.1323242188,-41.8548583984,-17.2424316406,37.1551513672
1.8475461006,-0.7031250000,0.3891601562,0.1323242188,-45.7611083984,-17.2576904297,46.1273193359
1.8501181602,-0.7031250000,0.3891601562,0.1323242188,-43.5791015625,-17.2576904297,46.1273193359
1.8526890278,-0.7451171875,0.3427734375,0.1035156250,-43.5791015625,-17.2576904297,53.7414550781
1.8552670479,-0.7451171875,0.3427734375,0.1035156250,-44.6624755859,-16.0064697266,53.7414550781
1.8578670025,-0.7451171875,0.3427734375,0.1035156250,-44.6624755859,-16.0064697266,54.6875000000
1.8604440689,-0.7451171875,0.3427734375,0.1035156250,-43.5638427734,-14.4500732422,54.6875000000
1.8635339737,-0.7993164062,-0.1235351562,-0.0029296875,-43.5638427734,-14.4500732422,48.8281250000
1.8661489487,-0.7993164062,-0.1235351562,-0.0029296875,-38.3758544922,-12.4664306641,48.8281250000
1.8687241077,-0.7993164062,-0.1235351562,-0.0029296875,-38.3758544922,-12.4664306641,40.8325195312
1.8712999821,-0.7993164062,-0.1235351562,-0.0029296875,-29.7851562500,-11.4593505859,40.8325195312
1.8738689423,-0.7915039062,-0.4799804688,-0.0664062500,-29.7851562500,-11.4593505859,33.0200195312
1.8765079975,-0.7915039062,-0.4799804688,-0.0664062500,-22.5677490234,-12.5732421875,34.1491699219
1.8790891171,-0.7915039062,-0.4799804688,-0.0664062500,-22.5677490234,-12.5732421875,34.1491699219
1.8816671371,-0.7915039062,-0.4799804688,-0.1914062500,-19.3176269531,-12.0086669922,30.2124023438
1.8842451572,-0.8603515625,-0.5092773438,-0.1640625000,-19.3176269531,-12.0086669922,30.2124023438
1.8869249821,-0.8603515625,-0.5092773438,-0.1640625000,-18.8751220703,-8.8653564453,30.4107666016
1.8896360397,-0.8603515625,-0.5092773438,-0.1640625000,-18.8751220703,-8.8653564453,30.4107666016
1.8923389912,-0.8603515625,-0.2255859375,-0.1337890625,-26.2298583984,-6.8664550781,35.1409912109
1.8950409889,-0.8720703125,-0.2255859375,-0.1337890625,-26.2298583984,-6.8664550781,35.1409912109
1.8976731300,-0.8720703125,-0.2255859375,-0.1337890625,-37.6281738281,-6.5612792969,40.5578613281
1.9002511501,-0.8720703125,-0.2255859375,-0.1337890625,-37.6281738281,-6.5612792969,40.5578613281
1.9028270245,-0.8720703125,0.0170898438,-0.0644531250,-46.6461181641,-7.7514648438,46.1730957031
1.9054000378,-0.8251953125,0.0170898438,-0.0644531250,-46.6461181641,-7.7514648438,46.1730957031
1.9082500935,-0.8251953125,0.0170898438,-0.0644531250,-49.9114990234,-9.6588134766,51.9256591797
1.9108281136,-0.8251953125,0.0170898438,-0.0644531250,-49.9114990234,-9.6588134766,51.9256591797
1.9134020805,-0.8276367188,0.1250000000,0.0053710938,-50.5371093750,-13.5345458984,56.5032958984
1.9161570072,-0.8276367188,0.1250000000,0.0053710938,-50.5371093750,-13.5345458984,56.5032958984
1.9187381268,-0.8276367188,0.1250000000,0.0053710938,-49.9725341797,-18.1427001953,58.1512451172
1.9213180542,-0.8276367188,0.1250000000,0.0053710938,-49.9725341797,-18.1427001953,58.1512451172
1.9240591526,-0.8378906250,0.0874023438,0.0351562500,-45.7153320312,-21.8048095703,57.9986572266
1.9268600941,-0.8378906250,0.0874023438,0.0351562500,-45.7153320312,-21.8048095703,57.9986572266
1.9295310974,-0.8378906250,0.0874023438,0.0351562500,-39.3066406250,-24.1241455078,57.2814941406
1.9324669838,-0.8378906250,0.0874023438,0.0009765625,-39.3066406250,-24.1241455078,57.2814941406
1.9350550175,-0.8359375000,0.0815429688,0.0009765625,-33.9202880859,-25.0854492188,55.6335449219
1.9377040863,-0.8359375000,0.0815429688,0.0009765625,-33.9202880859,-25.0854492188,55.6335449219
1.9402780533,-0.8359375000,0.0815429688,0.0009765625,-30.5328369141,-24.7344970703,54.0618896484
1.9428491592,-0.8359375000,0.1142578125,-0.0517578125,-30.5328369141,-24.7344970703,54.0618896484
1.9454300404,-0.8251953125,0.1142578125,-0.0517578125,-30.5328369141,-23.9257812500,53.6499023438
1.9480509758,-0.8251953125,0.1142578125,-0.0517578125,-29.2968750000,-23.9257812500,53.6499023438
1.9506289959,-0.8251953125,0.1142578125,-0.0517578125,-29.2968750000,-23.9257812500,54.2755126953
1.9532029629,-0.8251953125,0.1440429688,-0.0473632812,-29.7393798828,-23.5595703125,54.2755126953
1.9558269978,-0.8002929688,0.1440429688,-0.0473632812,-29.7393798828,-23.5595703125,54.2755126953
1.9584071636,-0.8002929688,0.1440429688,-0.0473632812,-30.1971435547,-23.4985351562,54.2755126953
1.9609801769,-0.8002929688,0.1440429688,-0.0473632812,-30.1971435547,-23.4985351562,54.2755126953
1.9635579586,-0.7895507812,0.1552734375,-0.0263671875,-28.3050537109,-22.5524902344,53.7414550781
1.9661550522,-0.7895507812,0.1552734375,-0.0263671875,-28.3050537109,-22.5524902344,53.7414550781
1.9687261581,-0.7895507812,0.1552734375,-0.0263671875,-25.1159667969,-21.4996337891,52.8259277344
1.9714119434,-0.7895507812,0.1552734375,-0.0263671875,-25.1159667969,-21.4996337891,52.8259277344
1.9739911556,-0.7612304688,0.1503906250,0.0239257812,-21.9879150391,-21.0113525391,50.8728027344
1.9766540527,-0.7612304688,0.1503906250,0.0239257812,-21.9879150391,-21.0113525391,50.8728027344
1.9792449474,-0.7612304688,0.1503906250,0.0239257812,-19.1802978516,-20.3247070312,49.1638183594
1.9818279743,-0.7612304688,0.1503906250,0.0239257812,-19.1802978516,-20.3247070312,49.1638183594
1.9844100475,-0.7280273438,0.1425781250,0.0473632812,-17.2576904297,-20.1110839844,47.6379394531
1.9870729446,-0.7280273438,0.1425781250,0.0473632812,-17.2576904297,-20.1110839844,47.6379394531
1.9897871017,-0.7280273438,0.1425781250,0.0473632812,-17.6544189453,-20.9808349609,46.2188720703
1.9924941063,-0.7280273438,0.1425781250,0.0473632812,-17.6544189453,-20.9808349609,46.2188720703
1.9952061176,-0.7197265625,0.0981445312,0.1015625000,-19.4854736328,-22.3236083984,44.1284179688
1.9979310036,-0.7197265625,0.0981445312,0.1015625000,-19.4854736328,-22.3236083984,44.1284179688
2.0006461143,-0.7197265625,0.0981445312,0.1015625000,-22.2167968750,-23.8189697266,41.9616699219
2.0033531189,-0.7197265625,0.0981445312,0.1108398438,-22.2167968750,-23.8189697266,41.9616699219
2.0061149597,-0.7094726562,0.0625000000,0.1108398438,-24.8565673828,-23.7121582031,39.3829345703
2.0087029934,-0.7094726562,0.0625000000,0.1108398438,-24.8565673828,-23.7121582031,39.3829345703
2.0112841129,-0.7094726562,0.0625000000,0.1108398438,-27.6641845703,-23.6511230469,37.2619628906
2.0138590336,-0.7094726562,0.0522460938,0.1240234375,-27.6641845703,-23.6511230469,37.2619628906
2.0165221691,-0.6972656250,0.0522460938,0.1240234375,-30.3649902344,-23.6358642578,35.1257324219
2.0192339420,-0.6972656250,0.0522460938,0.1240234375,-30.3649902344,-23.6358642578,35.1257324219
2.0219509602,-0.6972656250,0.0522460938,0.1240234375,-30.7312011719,-23.6206054688,32.9284667969
2.0246570110,-0.6918945312,0.0727539062,0.1025390625,-30.7312011719,-23.6206054688,32.9284667969
2.0273809433,-0.6918945312,0.0727539062,0.1025390625,-29.5104980469,-23.6968994141,29.9072265625
2.0300991535,-0.6918945312,0.0727539062,0.1025390625,-29.5104980469,-23.6968994141,29.9072265625
2.0328061581,-0.6918945312,0.0727539062,0.1025390625,-25.2380371094,-23.3459472656,27.5726318359
2.0356290340,-0.7055664062,0.0747070312,0.0800781250,-25.2380371094,-23.3459472656,27.5726318359
2.0383560658,-0.7055664062,0.0747070312,0.0800781250,-20.9808349609,-23.4069824219,25.3448486328
2.0410680771,-0.7055664062,0.0747070312,0.0800781250,-20.9808349609,-23.4069824219,25.3448486328
2.0438461304,-0.7055664062,0.0595703125,0.0937500000,-17.9748535156,-23.2696533203,23.8037109375
2.0465481281,-0.7138671875,0.0595703125,0.0937500000,-17.9748535156,-23.2696533203,23.8037109375
2.0491249561,-0.7138671875,0.0595703125,0.0937500000,-14.5874023438,-23.8494873047,22.2473144531
2.0517020226,-0.7138671875,0.0595703125,0.0937500000,-14.5874023438,-23.8494873047,22.2473144531
2.0542781353,-0.7138671875,0.0595703125,0.0732421875,-14.5874023438,-23.7426757812,20.7824707031
2.0569469929,-0.7285156250,0.0595703125,0.0732421875,-10.1165771484,-23.7426757812,20.7824707031
2.0596570969,-0.7285156250,0.0595703125,0.0732421875,-10.1165771484,-22.7661132812,19.7296142578
2.0623600483,-0.7285156250,0.0595703125,0.0732421875,-4.6081542969,-22.7661132812,19.7296142578
2.0650680065,-0.7407226562,0.0336914062,0.0419921875,-4.6081542969,-21.8658447266,19.0734863281
2.0677850246,-0.7407226562,0.0336914062,0.0419921875,-0.9765625000,-21.8658447266,19.0734863281
2.0704870224,-0.7407226562,0.0336914062,0.0419921875,-0.9765625000,-23.4680175781,18.4631347656
2.0731911659,-0.7407226562,0.0336914062,0.0419921875,2.2430419922,-23.4680175781,18.4631347656
2.0759041309,-0.7255859375,0.0195312500,0.0200195312,2.2430419922,-23.4680175781,17.8833007812
2.0784771442,-0.7255859375,0.0195312500,0.0200195312,5.2490234375,-24.3682861328,17.8833007812
2.0810511112,-0.7255859375,0.0195312500,0.0200195312,5.2490234375,-24.3682861328,17.3034667969
2.0836191177,-0.7255859375,0.0195312500,0.0200195312,7.1868896484,-24.1546630859,17.3034667969
2.0862569809,-0.7392578125,0.0273437500,0.0117187500,7.1868896484,-24.1546630859,17.3034667969
2.0888381004,-0.7392578125,0.0273437500,0.0117187500,9.0637207031,-24.3682861328,17.1508789062
2.0914111137,-0.7392578125,0.0273437500,0.0117187500,9.0637207031,-24.3682861328,17.1508789062
2.0939869881,-0.7392578125,0.0273437500,0.0458984375,10.6658935547,-24.9023437500,16.9372558594
2.0966820717,-0.7539062500,0.0390625000,0.0458984375,10.6658935547,-24.9023437500,16.9372558594
2.0993659496,-0.7539062500,0.0390625000,0.0458984375,11.4135742188,-24.7802734375,16.7694091797
2.1019411087,-0.7539062500,0.0390625000,0.0458984375,11.4135742188,-24.7802734375,16.7694091797
2.1045100689,-0.7539062500,0.0522460938,0.0556640625,13.2904052734,-24.7192382812,16.4794921875
2.1071591377,-0.7734375000,0.0522460938,0.0556640625,13.2904052734,-24.7192382812,16.4794921875
2.1098580360,-0.7734375000,0.0522460938,0.0556640625,15.0909423828,-24.3225097656,16.3726806641
2.1125490665,-0.7734375000,0.0522460938,0.0556640625,15.0909423828,-24.3225097656,16.3726806641
2.1152451038,-0.7700195312,0.0512695312,0.0610351562,17.3645019531,-23.8494873047,16.6473388672
2.1179471016,-0.7700195312,0.0512695312,0.0610351562,17.3645019531,-23.8494873047,16.6473388672
2.1206381321,-0.7700195312,0.0512695312,0.0610351562,19.4396972656,-23.5595703125,17.0440673828
2.1233301163,-0.7700195312,0.0512695312,0.0610351562,19.4396972656,-23.5595703125,17.0440673828
2.1261041164,-0.7705078125,0.0419921875,0.0869140625,21.3317871094,-23.4222412109,16.8457031250
2.1286971569,-0.7705078125,0.0419921875,0.0869140625,21.3317871094,-23.4222412109,16.8457031250
2.1312751770,-0.7705078125,0.0419921875,0.0869140625,21.9268798828,-23.0407714844,16.9067382812
2.1338460445,-0.7705078125,0.0419921875,0.0869140625,21.9268798828,-23.0407714844,16.9067382812
2.1365110874,-0.7539062500,0.0053710938,0.0971679688,22.0184326172,-22.1557617188,17.4407958984
2.1391890049,-0.7539062500,0.0053710938,0.0971679688,22.0184326172,-22.1557617188,17.4407958984
2.1419429779,-0.7539062500,0.0053710938,0.0971679688,21.3623046875,-21.2249755859,17.9138183594
2.1446249485,-0.7539062500,0.0053710938,0.1181640625,21.3623046875,-21.2249755859,17.9138183594
2.1485309601,-0.7436523438,0.0087890625,0.1181640625,20.9045410156,-20.7061767578,18.4631347656
2.1513280869,-0.7436523438,0.0087890625,0.1181640625,20.9045410156,-20.7061767578,18.4631347656
2.1539039612,-0.7436523438,0.0087890625,0.1181640625,18.8598632812,-20.1721191406,19.2871093750
2.1565599442,-0.7402343750,0.0112304688,0.1489257812,18.8598632812,-20.1721191406,19.2871093750
2.1591341496,-0.7402343750,0.0112304688,0.1489257812,17.4560546875,-19.1497802734,19.5312500000
2.1617090702,-0.7402343750,0.0112304688,0.1489257812,17.4560546875,-19.1497802734,19.5312500000
2.1644051075,-0.7402343750,0.0112304688,0.1489257812,17.1356201172,-18.6309814453,19.3786621094
2.1669869423,-0.7353515625,0.0058593750,0.1538085938,17.1356201172,-18.6309814453,19.3786621094
2.1695661545,-0.7353515625,0.0058593750,0.1538085938,16.9830322266,-17.8527832031,18.6614990234
2.1721429825,-0.7353515625,0.0058593750,0.1538085938,16.9830322266,-17.8527832031,18.6614990234
2.1747190952,-0.7353515625,0.0058593750,0.1499023438,16.7236328125,-16.8304443359,18.2189941406
2.1773040295,-0.7241210938,0.0502929688,0.1499023438,16.7236328125,-16.8304443359,18.2189941406
2.1798789501,-0.7241210938,0.0502929688,0.1499023438,17.7917480469,-15.9606933594,17.7154541016
2.1824550629,-0.7241210938,0.0502929688,0.1499023438,17.7917480469,-15.9606933594,17.7154541016
2.1850380898,-0.7241210938,0.0502929688,0.1469726562,21.6979980469,-15.5944824219,17.3339843750
2.1876590252,-0.7211914062,0.0878906250,0.1469726562,19.7906494141,-15.5944824219,17.3339843750
2.1902401447,-0.7211914062,0.0878906250,0.1469726562,19.7906494141,-15.5944824219,16.7083740234
2.1928119659,-0.7211914062,0.0878906250,0.1469726562,21.7437744141,-14.9841308594,16.7083740234
2.1953861713,-0.7211914062,0.0664062500,0.1264648438,21.7437744141,-14.9841308594,15.9606933594
2.1981539726,-0.7270507812,0.0664062500,0.1264648438,23.5748291016,-14.0838623047,15.9606933594
2.2007369995,-0.7270507812,0.0664062500,0.1264648438,23.5748291016,-14.0838623047,14.8925781250
2.2033190727,-0.7270507812,0.0664062500,0.1264648438,26.3366699219,-12.9241943359,14.8925781250
2.2059669495,-0.7343750000,0.0581054688,0.1201171875,26.3366699219,-12.9241943359,14.8925781250
2.2086920738,-0.7343750000,0.0581054688,0.1201171875,27.3590087891,-11.8255615234,14.3127441406
2.2114100456,-0.7343750000,0.0581054688,0.1201171875,27.3590087891,-11.8255615234,14.3127441406
2.2141170502,-0.7343750000,0.0581054688,0.1201171875,26.4434814453,-11.7950439453,14.0533447266
2.2168300152,-0.7202148438,0.0634765625,0.1069335938,26.4434814453,-11.7950439453,14.0533447266
2.2195401192,-0.7202148438,0.0634765625,0.1069335938,25.8789062500,-11.9018554688,13.3972167969
2.2222471237,-0.7202148438,0.0634765625,0.1069335938,25.8789062500,-11.9018554688,13.3972167969
2.2249579430,-0.7202148438,0.0634765625,0.1069335938,25.5279541016,-11.6882324219,13.1988525391
2.2278370857,-0.7216796875,0.0468750000,0.0932617188,25.5279541016,-11.6882324219,12.8479003906
2.2304739952,-0.7216796875,0.0468750000,0.0932617188,24.0478515625,-11.6577148438,12.8479003906
2.2330510616,-0.7216796875,0.0468750000,0.0932617188,24.0478515625,-11.6577148438,12.8479003906
2.2356281281,-0.7216796875,0.0273437500,0.0917968750,22.5677490234,-11.7034912109,12.6037597656
2.2383680344,-0.7246093750,0.0273437500,0.0917968750,22.5677490234,-11.7034912109,12.6037597656
2.2409470081,-0.7246093750,0.0273437500,0.0917968750,20.7977294922,-11.6424560547,12.1917724609
2.2438051701,-0.7246093750,0.0273437500,0.0917968750,20.7977294922,-11.6424560547,12.1917724609
2.2465031147,-0.7084960938,0.0351562500,0.1074218750,19.6990966797,-11.6729736328,11.7034912109
2.2490839958,-0.7084960938,0.0351562500,0.1074218750,19.6990966797,-11.6729736328,11.7034912109
2.2516560555,-0.7084960938,0.0351562500,0.1074218750,19.0277099609,-11.7187500000,11.5356445312
2.2542350292,-0.7084960938,0.0351562500,0.1074218750,19.0277099609,-11.7187500000,11.5356445312
2.2568099499,-0.7099609375,0.0498046875,0.0976562500,18.0206298828,-11.8560791016,11.3983154297
2.2593810558,-0.7099609375,0.0498046875,0.0976562500,18.0206298828,-11.8560791016,11.3983154297
2.2619600296,-0.7099609375,0.0498046875,0.0976562500,18.1121826172,-12.0849609375,11.5814208984
2.2645311356,-0.7099609375,0.0498046875,0.0976562500,18.1121826172,-12.0849609375,11.5814208984
2.2671151161,-0.6987304688,0.0429687500,0.1152343750,18.8446044922,-11.9781494141,10.8947753906
2.2696859837,-0.6987304688,0.0429687500,0.1152343750,18.8446044922,-11.9781494141,10.8947753906
2.2722570896,-0.6987304688,0.0429687500,0.1152343750,19.3634033203,-11.7645263672,11.0015869141
2.2748291492,-0.6987304688,0.0429687500,0.1152343750,19.3634033203,-11.7645263672,11.0015869141
2.2774641514,-0.7065429688,0.0161132812,0.1215820312,19.3634033203,-11.5966796875,11.3525390625
2.2800359726,-0.7065429688,0.0161132812,0.1215820312,18.8903808594,-11.5966796875,11.3525390625
2.2826099396,-0.7065429688,0.0161132812,0.1215820312,18.8903808594,-11.5966796875,11.4898681641
2.2851819992,-0.7065429688,0.0161132812,0.1215820312,18.2647705078,-10.8337402344,11.4898681641
2.2877950668,-0.7114257812,0.0019531250,0.1372070312,18.2647705078,-10.8337402344,12.3291015625
2.2904789448,-0.7114257812,0.0019531250,0.1372070312,17.3187255859,-10.1776123047,12.3291015625
2.2930510044,-0.7114257812,0.0019531250,0.1372070312,17.3187255859,-10.1776123047,12.3291015625
2.2956249714,-0.7114257812,0.0019531250,0.1372070312,15.7318115234,-10.2233886719,13.6871337891
2.2983441353,-0.7050781250,0.0000000000,0.1313476562,15.7318115234,-10.2233886719,13.6871337891
2.3009171486,-0.7050781250,0.0000000000,0.1313476562,14.3585205078,-10.7421875000,14.9993896484
2.3034861088,-0.7050781250,0.0000000000,0.1313476562,14.3585205078,-10.7421875000,14.9993896484
2.3061001301,-0.7050781250,0.0000000000,0.1196289062,13.6108398438,-10.9252929688,15.6707763672
2.3086760044,-0.6997070312,-0.0297851562,0.1196289062,13.6108398438,-10.9252929688,15.6707763672
2.3112511635,-0.6997070312,-0.0297851562,0.1196289062,13.1530761719,-10.3912353516,16.0217285156
2.3138191700,-0.6997070312,-0.0297851562,0.1196289062,13.1530761719,-10.3912353516,16.0217285156
2.3164210320,-0.6997070312,-0.0297851562,0.1196289062,12.3596191406,-10.0555419922,16.7846679688
2.3191151619,-0.6977539062,-0.0156250000,0.1196289062,12.3596191406,-10.0555419922,16.7846679688
2.3218030930,-0.6977539062,-0.0156250000,0.1196289062,10.4980468750,-10.3759765625,17.8527832031
2.3244919777,-0.6977539062,-0.0156250000,0.1196289062,10.4980468750,-10.3759765625,17.8527832031
2.3271811008,-0.7031250000,0.0092773438,0.1254882812,9.3078613281,-10.2691650391,19.1192626953
2.3298449516,-0.7031250000,0.0092773438,0.1254882812,9.3078613281,-10.2691650391,19.1192626953
2.3326630592,-0.7031250000,0.0092773438,0.1254882812,7.4462890625,-9.8419189453,20.2941894531
2.3352320194,-0.7031250000,0.0092773438,0.1254882812,7.4462890625,-9.8419189453,20.2941894531
2.3380210400,-0.7036132812,0.0439453125,0.1259765625,5.5694580078,-9.2163085938,21.0876464844
2.3405930996,-0.7036132812,0.0439453125,0.1259765625,5.5694580078,-9.2163085938,21.0876464844
2.3438160419,-0.7036132812,0.0439453125,0.1259765625,5.0659179688,-9.2315673828,21.5759277344
2.3464701176,-0.7036132812,0.0439453125,0.1342773438,5.0659179688,-9.2315673828,21.5759277344
2.3490421772,-0.7177734375,0.0590820312,0.1342773438,3.8604736328,-9.9334716797,22.0184326172
2.3516149521,-0.7177734375,0.0590820312,0.1342773438,3.8604736328,-9.9334716797,22.0184326172
2.3542890549,-0.7177734375,0.0590820312,0.1342773438,2.3956298828,-9.6588134766,22.3388671875
2.3569061756,-0.7177734375,0.0590820312,0.0986328125,2.3956298828,-9.6588134766,22.3388671875
2.3594801426,-0.7402343750,0.0356445312,0.0986328125,2.4719238281,-8.9111328125,23.0407714844
2.3620469570,-0.7402343750,0.0356445312,0.0986328125,2.4719238281,-8.9111328125,23.0407714844
2.3646199703,-0.7402343750,0.0356445312,0.0986328125,2.4719238281,-8.2092285156,24.1088867188
2.3672289848,-0.7402343750,0.0883789062,0.0849609375,3.5247802734,-8.2092285156,24.1088867188
2.3697919846,-0.7446289062,0.0883789062,0.0849609375,3.5247802734,-4.3029785156,25.6500244141
2.3723659515,-0.7446289062,0.0883789062,0.0849609375,4.5318603516,-7.7514648438,25.6500244141
2.3749320507,-0.7446289062,0.0883789062,0.0849609375,4.5318603516,-7.7514648438,26.6418457031
2.3775889874,-0.7446289062,0.1240234375,0.0727539062,4.7607421875,-7.1563720703,26.6418457031
2.3801641464,-0.7451171875,0.1240234375,0.0727539062,4.7607421875,-7.1563720703,26.6418457031
2.3827230930,-0.7451171875,0.1240234375,0.0727539062,4.7912597656,-7.6751708984,26.6113281250
2.3852920532,-0.7451171875,0.1240234375,0.0727539062,4.7912597656,-7.6751708984,26.6113281250
2.3880009651,-0.7543945312,0.0952148438,0.0502929688,4.8828125000,-8.1329345703,26.7639160156
2.3905701637,-0.7543945312,0.0952148438,0.0502929688,4.8828125000,-8.1329345703,26.7639160156
2.3931479454,-0.7543945312,0.0952148438,0.0502929688,5.2947998047,-8.3923339844,27.2064208984
2.3957209587,-0.7543945312,0.0952148438,0.0502929688,5.2947998047,-8.3923339844,27.2064208984
2.3985130787,-0.7578125000,0.0786132812,0.0541992188,5.4168701172,-8.4991455078,28.1982421875
2.4012041092,-0.7578125000,0.0786132812,0.0541992188,5.4168701172,-8.4991455078,28.1982421875
2.4038820267,-0.7578125000,0.0786132812,0.0541992188,6.5612792969,-7.0190429688,29.0374755859
2.4065790176,-0.7578125000,0.0786132812,0.0541992188,6.5612792969,-7.0190429688,29.0374755859
2.4092609882,-0.7607421875,0.1044921875,0.0844726562,7.1716308594,-6.1035156250,28.8848876953
2.4119451046,-0.7607421875,0.1044921875,0.0844726562,7.1716308594,-6.1035156250,28.8848876953
2.4146320820,-0.7607421875,0.1044921875,0.0844726562,8.9416503906,-6.4392089844,28.6407470703
2.4174251556,-0.7607421875,0.2294921875,0.0717773438,8.9416503906,-6.4392089844,28.6407470703
2.4201109409,-0.7597656250,0.1264648438,0.0717773438,11.1541748047,-7.0495605469,28.8085937500
2.4228000641,-0.7597656250,0.1264648438,0.0717773438,11.1541748047,-7.0495605469,28.8085937500
2.4254879951,-0.7597656250,0.1264648438,0.0717773438,11.5509033203,-7.5988769531,29.1900634766
2.4281880856,-0.7460937500,0.1113281250,0.0927734375,11.5509033203,-7.5988769531,29.1900634766
2.4308760166,-0.7460937500,0.1113281250,0.0927734375,12.7410888672,-7.4005126953,29.4342041016
2.4335639477,-0.7460937500,0.1113281250,0.0927734375,12.7410888672,-7.4005126953,29.4342041016
2.4363200665,-0.7460937500,0.1113281250,0.0927734375,14.7094726562,-6.9885253906,29.5867919922
2.4390101433,-0.7211914062,0.1010742188,0.1259765625,14.7094726562,-6.9885253906,29.5867919922
2.4416971207,-0.7211914062,0.1010742188,0.1259765625,15.1672363281,-6.3629150391,30.4412841797
2.4443931580,-0.7211914062,0.1010742188,0.1259765625,15.1672363281,-6.3629150391,30.4412841797
2.4471349716,-0.7211914062,0.1010742188,0.1259765625,14.5874023438,-5.9814453125,30.6854248047
2.4498419762,-0.7153320312,0.1035156250,0.1157226562,14.5874023438,-5.9814453125,30.6854248047
2.4526989460,-0.7153320312,0.1035156250,0.1157226562,12.8936767578,-6.2713623047,30.9600830078
2.4554071426,-0.7153320312,0.1035156250,0.1157226562,12.8936767578,-6.2713623047,30.9600830078
2.4581241608,-0.7153320312,0.0976562500,0.1616210938,11.6729736328,-5.9051513672,31.3415527344
2.4608261585,-0.7255859375,0.0976562500,0.1616210938,11.6729736328,-5.9051513672,31.3415527344
2.4635319710,-0.7255859375,0.0976562500,0.1616210938,11.4593505859,-5.2947998047,31.1737060547
2.4662411213,-0.7255859375,0.0976562500,0.1616210938,11.4593505859,-5.2947998047,31.1737060547
2.4689450264,-0.7070312500,0.1259765625,0.1542968750,11.2915039062,-4.9591064453,31.6467285156
2.4716541767,-0.7070312500,0.1259765625,0.1542968750,11.2915039062,-4.9591064453,31.6467285156
2.4743561745,-0.7070312500,0.1259765625,0.1542968750,11.7645263672,-5.1422119141,31.6009521484
2.4771010876,-0.7070312500,0.1259765625,0.1542968750,11.7645263672,-5.1422119141,31.6009521484
2.4798030853,-0.6938476562,0.1484375000,0.1313476562,11.4288330078,-5.1727294922,31.4178466797
2.4825000763,-0.6938476562,0.1484375000,0.1313476562,11.4288330078,-5.1727294922,31.4178466797
2.4853100777,-0.6938476562,0.1484375000,0.1313476562,12.0544433594,-4.7912597656,31.4788818359
2.4879260063,-0.6938476562,0.1484375000,0.1425781250,12.0544433594,-4.7912597656,31.4788818359
2.4904990196,-0.6962890625,0.1318359375,0.1425781250,12.4969482422,-4.6691894531,31.6619873047
2.4930701256,-0.6962890625,0.1318359375,0.1425781250,12.4969482422,-4.6691894531,31.6619873047
2.4956431389,-0.6962890625,0.1318359375,0.1425781250,12.8173828125,-4.5928955078,31.8756103516
2.4983429909,-0.6962890625,0.1318359375,0.1386718750,12.8173828125,-4.5928955078,31.8756103516
2.5009169579,-0.7021484375,0.1264648438,0.1386718750,12.9699707031,-4.7302246094,31.9824218750
2.5034880638,-0.7021484375,0.1264648438,0.1386718750,12.9699707031,-4.7302246094,31.9824218750
2.5062220097,-0.7021484375,0.1264648438,0.1386718750,12.9699707031,-4.5776367188,32.3486328125
2.5089290142,-0.7021484375,0.1137695312,0.1230468750,12.8784179688,-4.5776367188,32.3486328125
2.5116341114,-0.7031250000,0.1137695312,0.1230468750,12.8784179688,-4.2114257812,32.7453613281
2.5143401623,-0.7031250000,0.1137695312,0.1230468750,12.1612548828,-4.2114257812,32.7453613281
2.5170459747,-0.7031250000,0.1137695312,0.1230468750,8.2550048828,-3.9520263672,33.4167480469
2.5197491646,-0.7202148438,0.1196289062,0.1254882812,11.1389160156,-3.9520263672,33.4167480469
2.5224490166,-0.7202148438,0.1196289062,0.1254882812,11.1389160156,-3.4332275391,34.3475341797
2.5251510143,-0.7202148438,0.1196289062,0.1254882812,9.9945068359,-3.4332275391,34.3475341797
2.5278611183,-0.7202148438,0.1196289062,0.1254882812,9.9945068359,-3.6773681641,34.8205566406
2.5305650234,-0.7026367188,0.1210937500,0.1250000000,9.1705322266,-3.6773681641,34.8205566406
2.5332570076,-0.7026367188,0.1210937500,0.1250000000,9.1705322266,-3.4790039062,35.0189208984
2.5359511375,-0.7026367188,0.1210937500,0.1250000000,7.7667236328,-3.4790039062,35.0189208984
2.5385229588,-0.7026367188,0.1210937500,0.1333007812,7.7667236328,-3.4790039062,35.2478027344
2.5410931110,-0.7031250000,0.1459960938,0.1333007812,7.3699951172,-3.6468505859,35.2478027344
2.5436651707,-0.7031250000,0.1459960938,0.1333007812,7.3699951172,-3.6468505859,35.1257324219
2.5462510586,-0.7031250000,0.1459960938,0.1333007812,7.9956054688,-4.4097900391,35.1257324219
2.5490410328,-0.7031250000,0.1499023438,0.1362304688,7.9956054688,-4.4097900391,35.2478027344
2.5517270565,-0.7031250000,0.1499023438,0.1362304688,8.3312988281,-4.5623779297,35.2478027344
2.5544080734,-0.7031250000,0.1499023438,0.1362304688,8.3312988281,-4.5623779297,34.9731445312
2.5570931435,-0.7031250000,0.1499023438,0.1362304688,8.7432861328,-4.6691894531,34.9731445312
2.5597569942,-0.7006835938,0.1635742188,0.1152343750,8.7432861328,-4.6691894531,38.8793945312
2.5624420643,-0.7006835938,0.1635742188,0.1152343750,8.9111328125,-5.1574707031,35.4309082031
2.5653729439,-0.7006835938,0.1635742188,0.1152343750,8.9111328125,-5.1574707031,35.5682373047
2.5681190491,-0.7006835938,0.1635742188,0.1152343750,8.6975097656,-5.4931640625,35.5682373047
2.5708191395,-0.7041015625,0.1669921875,0.1123046875,8.6975097656,-5.4931640625,35.7360839844
2.5735261440,-0.7041015625,0.1669921875,0.1123046875,8.4991455078,-5.4321289062,35.7360839844
2.5762281418,-0.7041015625,0.1669921875,0.1123046875,8.4991455078,-5.4321289062,36.0565185547
2.5789330006,-0.7041015625,0.1669921875,0.1127929688,8.4838867188,-5.5999755859,36.0565185547
2.5816349983,-0.7270507812,0.1855468750,0.1127929688,8.4838867188,-5.5999755859,36.6821289062
2.5843379498,-0.7270507812,0.1855468750,0.1127929688,8.3618164062,-4.5928955078,36.6821289062
2.5869891644,-0.7270507812,0.1855468750,0.1127929688,8.3618164062,-4.5928955078,36.6821289062
2.5895540714,-0.7270507812,0.1914062500,0.1010742188,9.6130371094,-4.3029785156,37.1093750000
2.5921239853,-0.7270507812,0.1914062500,0.1010742188,9.6130371094,-4.3029785156,37.1093750000
2.5946929455,-0.7270507812,0.1914062500,0.1010742188,11.6424560547,-5.0048828125,37.4145507812
2.5973711014,-0.7270507812,0.1914062500,0.1010742188,11.6424560547,-5.0048828125,37.4145507812
2.6000730991,-0.7407226562,0.1977539062,0.1054687500,13.3972167969,-5.0201416016,37.5976562500
2.6027791500,-0.7407226562,0.1977539062,0.1054687500,13.3972167969,-5.0201416016,37.5976562500
2.6054861546,-0.7407226562,0.1977539062,0.1054687500,15.5639648438,-4.9438476562,37.9180908203
2.6082041264,-0.7407226562,0.1977539062,0.1054687500,15.5639648438,-4.9438476562,37.9180908203
2.6109061241,-0.7548828125,0.1875000000,0.0986328125,17.1508789062,-4.8370361328,38.9556884766
2.6137211323,-0.7548828125,0.1875000000,0.0986328125,17.1508789062,-4.8370361328,38.9556884766
2.6164309978,-0.7548828125,0.1875000000,0.0986328125,18.4936523438,-4.9438476562,39.8254394531
2.6191360950,-0.7548828125,0.1875000000,0.0844726562,18.4936523438,-4.9438476562,39.8254394531
2.6218390465,-0.7485351562,0.1660156250,0.0844726562,19.4702148438,-4.9438476562,40.7714843750
2.6245410442,-0.7485351562,0.1660156250,0.0844726562,19.4702148438,-4.9438476562,40.7714843750
2.6272480488,-0.7485351562,0.1660156250,0.0844726562,20.0958251953,-5.8593750000,41.6564941406
2.6299510002,-0.7485351562,0.1635742188,0.1069335938,20.0958251953,-5.8593750000,41.6564941406
2.6326529980,-0.7480468750,0.1635742188,0.1069335938,20.0805664062,-6.2713623047,42.8619384766
2.6353540421,-0.7480468750,0.1635742188,0.1069335938,20.0805664062,-6.2713623047,42.8619384766
2.6379520893,-0.7480468750,0.1635742188,0.1069335938,20.1568603516,-6.4544677734,44.0368652344
2.6405210495,-0.7460937500,0.1728515625,0.1196289062,20.1568603516,-6.4544677734,44.0368652344
2.6430931091,-0.7460937500,0.1728515625,0.1196289062,20.4162597656,-6.5917968750,45.5322265625
2.6456720829,-0.7460937500,0.1728515625,0.1196289062,20.4162597656,-6.5917968750,45.5322265625
2.6483840942,-0.7460937500,0.1728515625,0.1196289062,20.4467773438,-7.1258544922,46.5545654297
2.6510879993,-0.7548828125,0.1967773438,0.1171875000,20.4467773438,-7.1258544922,46.5545654297
2.6537849903,-0.7548828125,0.1967773438,0.1171875000,21.4538574219,-7.8277587891,47.4090576172
2.6565279961,-0.7548828125,0.1967773438,0.1171875000,21.4538574219,-7.8277587891,47.4090576172
2.6592359543,-0.7548828125,0.1967773438,0.1171875000,23.1475830078,-8.1481933594,47.6684570312
2.6619410515,-0.7661132812,0.2348632812,0.1406250000,23.1475830078,-8.1481933594,47.6684570312
2.6646440029,-0.7661132812,0.2348632812,0.1406250000,24.8870849609,-8.6517333984,47.4853515625
2.6673631668,-0.7661132812,0.2348632812,0.1406250000,24.8870849609,-8.6517333984,47.4853515625
2.6700639725,-0.7661132812,0.2348632812,0.1425781250,26.2603759766,-8.8195800781,48.2330322266
2.6727659702,-0.7680664062,0.2241210938,0.1425781250,26.2603759766,-8.8195800781,48.2330322266
2.6754691601,-0.7680664062,0.2241210938,0.1425781250,27.7099609375,-7.9956054688,48.8586425781
2.6782951355,-0.7680664062,0.2241210938,0.1425781250,27.7099609375,-7.9956054688,48.8586425781
2.6809999943,-0.7822265625,0.2031250000,0.1547851562,28.0303955078,-7.4615478516,49.6673583984
2.6837041378,-0.7822265625,0.2031250000,0.1547851562,28.0303955078,-7.4615478516,49.6673583984
2.6864011288,-0.7822265625,0.2031250000,0.1547851562,27.9846191406,-6.7443847656,50.4608154297
2.6889779568,-0.7822265625,0.2031250000,0.1547851562,27.9846191406,-6.7443847656,50.4608154297
2.6915500164,-0.7919921875,0.2055664062,0.1547851562,28.5186767578,-6.2561035156,50.8728027344
2.6941220760,-0.7919921875,0.2055664062,0.1547851562,28.5186767578,-6.2561035156,50.8728027344
2.6967630386,-0.7919921875,0.2055664062,0.1547851562,29.3731689453,-6.3934326172,51.6357421875
2.6994669437,-0.7919921875,0.2055664062,0.1547851562,29.3731689453,-6.3934326172,51.6357421875
2.7021679878,-0.8251953125,0.1958007812,0.1372070312,29.3731689453,-5.9204101562,52.7496337891
2.7048771381,-0.8251953125,0.1958007812,0.1372070312,31.1279296875,-5.9204101562,52.7496337891
2.7075951099,-0.8251953125,0.1958007812,0.1372070312,35.0341796875,-5.7525634766,54.6875000000
2.7102980614,-0.8251953125,0.1958007812,0.1450195312,32.8369140625,-5.7525634766,54.6875000000
2.7129969597,-0.8374023438,0.1811523438,0.1450195312,32.8369140625,-6.1187744141,56.6864013672
2.7157020569,-0.8374023438,0.1811523438,0.1450195312,34.0576171875,-6.1187744141,56.6864013672
2.7184181213,-0.8374023438,0.1811523438,0.1450195312,34.0576171875,-6.6375732422,57.8002929688
2.7211229801,-0.8564453125,0.1328125000,0.1220703125,33.7524414062,-6.6375732422,57.8002929688
2.7238290310,-0.8564453125,0.1328125000,0.1220703125,33.7524414062,-6.0729980469,59.8754882812
2.7265400887,-0.8564453125,0.1328125000,0.1220703125,32.1960449219,-6.0729980469,59.8754882812
2.7292490005,-0.8564453125,0.1328125000,0.1220703125,28.2897949219,-4.0893554688,63.1713867188
2.7319519520,-0.9125976562,0.1196289062,0.1137695312,31.0516357422,-4.0893554688,63.1713867188
2.7346520424,-0.9125976562,0.1196289062,0.1137695312,31.0516357422,-3.3569335938,66.5740966797
2.7373039722,-0.9125976562,0.1196289062,0.1137695312,31.0211181641,-3.3569335938,66.5740966797
2.7398791313,-0.9125976562,0.1196289062,0.1137695312,31.0211181641,-3.3569335938,69.7631835938
2.7427320480,-0.9072265625,0.1064453125,0.0898437500,29.2205810547,-3.8299560547,69.7631835938
2.7453181744,-0.9072265625,0.1064453125,0.0898437500,29.2205810547,-3.8757324219,73.0285644531
2.7481660843,-0.9072265625,0.1064453125,0.0898437500,27.2674560547,-3.8757324219,73.0285644531
2.7508339882,-0.9072265625,0.2314453125,0.0727539062,27.2674560547,-7.7819824219,76.4160156250
2.7534911633,-0.9101562500,0.1357421875,0.0727539062,26.3366699219,-4.5776367188,76.4160156250
2.7569050789,-0.9101562500,0.1357421875,0.0727539062,27.1911621094,-5.3100585938,80.3527832031
2.7594840527,-0.9101562500,0.1357421875,0.0727539062,27.1911621094,-5.3100585938,80.3527832031
2.7620530128,-0.9282226562,0.1557617188,0.0878906250,31.0974121094,-5.9204101562,83.9843750000
2.7646281719,-0.9282226562,0.1557617188,0.0878906250,28.6102294922,-5.9204101562,83.9843750000
2.7672760487,-0.9282226562,0.1557617188,0.0878906250,28.6102294922,-7.0037841797,87.1276855469
2.7698450089,-0.9282226562,0.1557617188,0.0878906250,29.9072265625,-7.0037841797,87.1276855469
2.7724230289,-0.9345703125,0.1289062500,0.0820312500,29.9072265625,-7.0037841797,89.9505615234
2.7749929428,-0.9345703125,0.1289062500,0.0820312500,31.6772460938,-8.6059570312,89.9505615234
2.7775681019,-0.9345703125,0.1289062500,0.0820312500,31.6772460938,-8.6059570312,89.9505615234
2.7801501751,-0.9345703125,0.1289062500,0.0820312500,33.9355468750,-9.8571777344,92.7886962891
2.7827200890,-0.9589843750,0.1074218750,0.1069335938,33.9355468750,-9.8571777344,92.7886962891
2.7852959633,-0.9589843750,0.1074218750,0.1069335938,36.3769531250,-11.7645263672,95.8404541016
2.7878730297,-0.9589843750,0.1074218750,0.1069335938,36.3769531250,-11.7645263672,95.8404541016
2.7904460430,-0.9589843750,0.1074218750,0.1069335938,37.4145507812,-14.0991210938,98.3581542969
2.7930240631,-0.9912109375,0.0815429688,0.0996093750,37.4145507812,-14.0991210938,98.3581542969
2.7955980301,-0.9912109375,0.0815429688,0.0996093750,38.6352539062,-15.8691406250,101.0742187500
2.7982201576,-0.9912109375,0.0815429688,0.0996093750,38.6352539062,-15.8691406250,101.0742187500
2.8007991314,-0.9912109375,0.0815429688,0.0996093750,39.9627685547,-18.2342529297,104.0039062500
2.8033740520,-0.9877929688,0.1118164062,0.0957031250,39.9627685547,-18.2342529297,104.0039062500
2.8062610626,-0.9877929688,0.1118164062,0.0957031250,42.5567626953,-21.6674804688,105.8197021484
2.8088450432,-0.9877929688,0.1118164062,0.0957031250,42.5567626953,-21.6674804688,105.8197021484
2.8114180565,-0.9877929688,0.2368164062,0.1113281250,46.8292236328,-25.3601074219,105.8959960938
2.8140039444,-0.9833984375,0.1728515625,0.1113281250,46.8292236328,-25.3601074219,105.8959960938
2.8167271614,-0.9833984375,0.1728515625,0.1113281250,51.3610839844,-27.8778076172,105.0720214844
2.8194370270,-0.9833984375,0.1728515625,0.1113281250,51.3610839844,-27.8778076172,105.0720214844
2.8221521378,-1.0253906250,0.1855468750,0.0961914062,58.6242675781,-29.5410156250,103.9733886719
2.8248550892,-1.0253906250,0.1855468750,0.0961914062,58.6242675781,-29.5410156250,103.9733886719
2.8275730610,-1.0253906250,0.1855468750,0.0961914062,66.8334960938,-29.2816162109,102.1881103516
2.8302831650,-1.0253906250,0.1855468750,0.0961914062,66.8334960938,-29.2816162109,102.1881103516
2.8329880238,-1.0932617188,0.1992187500,0.0864257812,74.1882324219,-27.3895263672,100.6774902344
2.8357031345,-1.0932617188,0.1992187500,0.0864257812,74.1882324219,-27.3895263672,100.6774902344
2.8382990360,-1.0932617188,0.1992187500,0.0864257812,82.0007324219,-25.4516601562,99.0753173828
2.8408751488,-1.0932617188,0.1992187500,0.0864257812,81.3293457031,-25.4516601562,99.0753173828
2.8436181545,-1.0869140625,0.1655273438,0.0825195312,89.1418457031,-23.8647460938,97.6867675781
2.8462920189,-1.0869140625,0.1655273438,0.0825195312,88.3331298828,-23.8647460938,97.6867675781
2.8489680290,-1.0869140625,0.1655273438,0.0825195312,88.3331298828,-21.1334228516,97.7630615234
2.8517000675,-1.0869140625,0.0800781250,0.0825195312,93.4906005859,-21.1334228516,97.7630615234
2.8547291756,-1.0190429688,0.0800781250,0.0825195312,96.1456298828,-18.2952880859,98.8616943359
2.8573369980,-1.0190429688,0.0800781250,0.0825195312,96.1456298828,-18.2952880859,98.8616943359
2.8599109650,-1.0190429688,0.0800781250,0.0825195312,96.1456298828,-14.7552490234,101.1199951172
2.8624889851,-0.9345703125,0.0961914062,0.1098632812,96.1761474609,-14.7552490234,101.1199951172
2.8650641441,-0.9345703125,0.0961914062,0.1098632812,96.1761474609,-14.7552490234,104.6447753906
2.8676879406,-0.9345703125,0.0961914062,0.1098632812,94.1314697266,-12.5122070312,104.6447753906
2.8703720570,-0.9345703125,0.0961914062,0.1098632812,94.1314697266,-12.5122070312,107.7728271484
2.8729491234,-0.8520507812,0.1142578125,0.1762695312,87.0971679688,-11.6424560547,107.7728271484
2.8755221367,-0.8520507812,0.1142578125,0.1762695312,87.0971679688,-11.6424560547,107.7728271484
2.8781061172,-0.8520507812,0.1142578125,0.1762695312,75.1190185547,-11.7034912109,108.4289550781
2.8806819916,-0.8520507812,0.1142578125,0.1762695312,75.1190185547,-11.7034912109,108.4289550781
2.8832559586,-0.8427734375,0.1274414062,0.2104492188,62.9577636719,-12.3443603516,106.9946289062
2.8858571053,-0.8427734375,0.1274414062,0.2104492188,62.9577636719,-12.3443603516,106.9946289062
2.8884320259,-0.8427734375,0.1274414062,0.2104492188,53.4362792969,-12.4359130859,105.6976318359
2.8910040855,-0.8427734375,0.1274414062,0.2104492188,53.4362792969,-12.4359130859,105.6976318359
2.8935770988,-0.8144531250,0.2939453125,0.1933593750,47.1343994141,-11.2609863281,105.2093505859
2.8962991238,-0.8144531250,0.2939453125,0.1933593750,47.1343994141,-11.2609863281,105.2093505859
2.8988890648,-0.8144531250,0.2939453125,0.1933593750,41.7327880859,-9.9182128906,105.4382324219
2.9014649391,-0.8144531250,0.2939453125,0.1933593750,41.7327880859,-9.9182128906,105.4382324219
2.9040420055,-0.7485351562,0.4052734375,0.2075195312,39.5965576172,-8.8958740234,106.4605712891
2.9066779613,-0.7485351562,0.4052734375,0.2075195312,39.5965576172,-8.8958740234,106.4605712891
2.9093840122,-0.7485351562,0.4052734375,0.2075195312,39.5812988281,-8.4991455078,106.2622070312
2.9120919704,-0.7485351562,0.4052734375,0.1811523438,39.5812988281,-8.4991455078,106.2622070312
2.9148020744,-0.6708984375,0.4692382812,0.1811523438,40.4663085938,-7.5683593750,105.4229736328
2.9175200462,-0.6708984375,0.4692382812,0.1811523438,40.4663085938,-7.5683593750,105.4229736328
2.9202210903,-0.6708984375,0.4692382812,0.1811523438,39.6728515625,-7.1258544922,105.0720214844
2.9229321480,-0.5458984375,0.5473632812,0.1894531250,39.6728515625,-7.1258544922,105.0720214844
2.9256420135,-0.6069335938,0.5473632812,0.1894531250,35.7971191406,-8.5449218750,105.2246093750
2.9283571243,-0.6069335938,0.5473632812,0.1894531250,35.7971191406,-8.5449218750,105.2246093750
2.9310619831,-0.6069335938,0.5473632812,0.1894531250,30.7769775391,-12.6953125000,103.6224365234
2.9338791370,-0.4863281250,0.4970703125,0.2763671875,30.7769775391,-12.6953125000,103.6224365234
2.9365780354,-0.4863281250,0.4970703125,0.2763671875,29.2510986328,-18.5852050781,97.7630615234
2.9391570091,-0.4863281250,0.4970703125,0.2763671875,29.2510986328,-18.5852050781,97.7630615234
2.9417350292,-0.4863281250,0.4970703125,0.2763671875,33.1573486328,-24.9176025391,87.3260498047
2.9443130493,-0.4101562500,0.2602539062,0.2949218750,33.2183837891,-24.9176025391,87.3260498047
2.9469289780,-0.4101562500,0.2602539062,0.2949218750,33.2183837891,-27.4505615234,74.0966796875
2.9495069981,-0.4101562500,0.2602539062,0.2949218750,40.4052734375,-27.4505615234,74.0966796875
2.9520759583,-0.4101562500,0.2602539062,0.2949218750,40.4052734375,-27.4505615234,60.0280761719
2.9546470642,-0.3862304688,0.0234375000,0.2626953125,48.7823486328,-27.2674560547,60.0280761719
2.9573280811,-0.3862304688,0.0234375000,0.2626953125,48.7823486328,-27.2674560547,46.6461181641
2.9599001408,-0.3862304688,0.0234375000,0.2626953125,57.0068359375,-25.5889892578,46.6461181641
2.9625780582,-0.3862304688,0.0234375000,0.1230468750,57.0068359375,-25.5889892578,38.8336181641
2.9651520252,-0.3549804688,-0.0039062500,0.1230468750,66.7724609375,-22.5982666016,35.2935791016
2.9677381516,-0.3549804688,-0.0039062500,0.1230468750,66.7724609375,-22.5982666016,35.2935791016
2.9703199863,-0.3549804688,-0.0039062500,0.1230468750,74.5391845703,-21.0723876953,26.7333984375
2.9728910923,-0.3549804688,-0.0039062500,0.0605468750,74.5391845703,-21.0723876953,26.7333984375
2.9754650593,-0.3696289062,0.0932617188,0.0605468750,73.5321044922,-21.6674804688,20.2941894531
2.9780681133,-0.3696289062,0.0932617188,0.0605468750,73.5321044922,-21.6674804688,20.2941894531
2.9806449413,-0.3696289062,0.0932617188,0.0605468750,66.2231445312,-21.8658447266,11.2915039062
2.9832191467,-0.3696289062,-0.0307617188,-0.0092773438,66.2231445312,-21.8658447266,11.2915039062
2.9858341217,-0.4072265625,-0.0307617188,-0.0092773438,60.0891113281,-19.4854736328,0.1220703125
2.9884099960,-0.4072265625,-0.0307617188,-0.0092773438,60.0891113281,-19.4854736328,0.1220703125
2.9909830093,-0.4072265625,-0.0307617188,-0.0092773438,56.1370849609,-16.5405273438,-10.2844238281
2.9935550690,-0.4072265625,-0.0961914062,-0.0458984375,56.1370849609,-16.5405273438,-10.2844238281
2.9962730408,-0.4257812500,-0.0961914062,-0.0458984375,51.8188476562,-13.5345458984,-18.6767578125
2.9988510609,-0.4257812500,-0.0961914062,-0.0458984375,51.8188476562,-13.5345458984,-18.6767578125
3.0014309883,-0.4257812500,-0.0961914062,-0.0458984375,51.8188476562,-10.6658935547,-27.0538330078
3.0040071011,-0.4052734375,-0.0917968750,-0.0756835938,46.0815429688,-10.6658935547,-27.0538330078
3.0066709518,-0.4052734375,-0.0917968750,-0.0756835938,46.0815429688,-10.6658935547,-35.3851318359
3.0092570782,-0.4052734375,-0.0917968750,-0.0756835938,39.0167236328,-7.9040527344,-35.3851318359
3.0118250847,-0.4052734375,-0.0917968750,-0.0756835938,39.0167236328,-7.9040527344,-44.2504882812
3.0143980980,-0.3955078125,-0.0815429688,-0.1215820312,31.2500000000,-5.5541992188,-44.2504882812
3.0171210766,-0.3955078125,-0.0815429688,-0.1215820312,31.2500000000,-5.5541992188,-53.0700683594
3.0198261738,-0.3955078125,-0.0815429688,-0.1215820312,23.1781005859,-3.3416748047,-53.0700683594
3.0225369930,-0.3955078125,-0.0815429688,-0.1215820312,23.1781005859,-3.3416748047,-61.8286132812
3.0252399445,-0.3666992188,-0.0512695312,-0.1298828125,14.5874023438,-1.9683837891,-61.8286132812
3.0279610157,-0.3666992188,-0.0512695312,-0.1298828125,14.5874023438,-1.9683837891,-70.3887939453
3.0306739807,-0.3666992188,-0.0512695312,-0.1298828125,6.0882568359,-0.5798339844,-70.3887939453
3.0333759785,-0.3666992188,-0.0512695312,-0.1201171875,6.0882568359,-0.5798339844,-78.2012939453
3.0361089706,-0.3520507812,-0.0390625000,-0.1201171875,-1.3580322266,0.3356933594,-78.1707763672
3.0386800766,-0.3520507812,-0.0390625000,-0.1201171875,-1.3580322266,0.3356933594,-78.1707763672
3.0412499905,-0.3520507812,-0.0390625000,-0.1201171875,-7.7056884766,0.5798339844,-87.2039794922
3.0438220501,-0.3520507812,-0.0390625000,-0.1015625000,-7.7056884766,0.5798339844,-87.2039794922
3.0463941097,-0.3608398438,-0.0312500000,-0.1015625000,-15.2130126953,1.0375976562,-95.8404541016
3.0489671230,-0.3608398438,-0.0312500000,-0.1015625000,-15.2130126953,1.0375976562,-95.8404541016
3.0517041683,-0.3608398438,-0.0312500000,-0.1015625000,-22.5524902344,1.8768310547,-104.6600341797
3.0542750359,-0.4858398438,-0.0087890625,-0.0849609375,-22.5524902344,1.8768310547,-104.6600341797
3.0570380688,-0.3823242188,-0.0087890625,-0.0849609375,-30.1055908203,2.5024414062,-113.3575439453
3.0597121716,-0.3823242188,-0.0087890625,-0.0849609375,-30.1055908203,2.5024414062,-113.3575439453
3.0622849464,-0.3823242188,-0.0087890625,-0.0849609375,-37.0941162109,3.4637451172,-121.8719482422
3.0655760765,-0.4101562500,-0.0063476562,-0.0771484375,-37.0941162109,7.3699951172,-130.6762695312
3.0691831112,-0.4101562500,-0.0063476562,-0.0771484375,-43.4570312500,4.2266845703,-130.6762695312
3.0717530251,-0.4101562500,-0.0063476562,-0.0771484375,-43.4570312500,4.2266845703,-139.2822265625
3.0743269920,-0.4101562500,0.0136718750,-0.0517578125,-48.9044189453,4.9438476562,-139.2822265625
3.0769131184,-0.4311523438,0.0136718750,-0.0517578125,-48.9044189453,4.9438476562,-147.0947265625
3.0794849396,-0.4311523438,0.0136718750,-0.0517578125,-52.2766113281,5.5389404297,-147.2625732422
3.0820560455,-0.4311523438,0.0136718750,-0.0517578125,-52.2766113281,5.5389404297,-147.2625732422
3.0846271515,-0.4311523438,0.0458984375,-0.0292968750,-54.5196533203,5.6457519531,-154.7851562500
3.0872640610,-0.4462890625,0.0458984375,-0.0292968750,-54.5196533203,5.6457519531,-154.7851562500
3.0898361206,-0.4462890625,0.0458984375,-0.0292968750,-55.1147460938,6.3476562500,-161.9720458984
3.0924079418,-0.4462890625,0.0458984375,-0.0292968750,-55.1147460938,6.3476562500,-161.9720458984
3.0949759483,-0.5004882812,0.0913085938,-0.0185546875,-54.2297363281,7.0495605469,-168.6859130859
3.0975611210,-0.5004882812,0.0913085938,-0.0185546875,-54.2297363281,7.0495605469,-168.6859130859
3.1001369953,-0.5004882812,0.0913085938,-0.0185546875,-53.1005859375,7.3699951172,-175.0640869141
3.1027081013,-0.5004882812,0.0913085938,-0.0185546875,-53.1005859375,7.3699951172,-175.0640869141
3.1052801609,-0.5532226562,0.1328125000,-0.0175781250,-51.8341064453,7.5988769531,-180.7250976562
3.1079039574,-0.5532226562,0.1328125000,-0.0175781250,-51.8341064453,7.5988769531,-180.7250976562
3.1104769707,-0.5532226562,0.1328125000,-0.0175781250,-47.9278564453,7.1411132812,-186.3708496094
3.1130471230,-0.5532226562,0.1328125000,-0.0175781250,-50.7659912109,7.1411132812,-186.3708496094
3.1156179905,-0.6328125000,0.1777343750,-0.0131835938,-50.7659912109,6.8664550781,-191.6503906250
3.1183609962,-0.6328125000,0.1777343750,-0.0131835938,-48.2635498047,6.8664550781,-191.6503906250
3.1209371090,-0.6328125000,0.1777343750,-0.0131835938,-48.2635498047,6.8664550781,-196.1975097656
3.1236059666,-0.6328125000,0.1777343750,-0.0131835938,-44.4183349609,7.1716308594,-196.1975097656
3.1263000965,-0.7226562500,0.2290039062,-0.0209960938,-44.4183349609,7.1716308594,-201.3549804688
3.1288890839,-0.7226562500,0.2290039062,-0.0209960938,-37.9180908203,8.4381103516,-201.3549804688
3.1314561367,-0.7226562500,0.2290039062,-0.0209960938,-37.9180908203,8.4381103516,-205.2612304688
3.1340301037,-0.7226562500,0.2290039062,-0.0209960938,-28.7322998047,10.4064941406,-205.5969238281
3.1366109848,-0.8041992188,0.2651367188,0.0131835938,-28.7322998047,10.4064941406,-205.5969238281
3.1391890049,-0.8041992188,0.2651367188,0.0131835938,-18.7377929688,13.8397216797,-209.1522216797
3.1417641640,-0.8041992188,0.2651367188,0.0131835938,-18.7377929688,13.8397216797,-209.1522216797
3.1443331242,-0.8041992188,0.2651367188,0.0131835938,-9.8724365234,16.8609619141,-213.2263183594
3.1469819546,-0.8652343750,0.2778320312,0.0307617188,-9.8724365234,16.8609619141,-213.2263183594
3.1496901512,-0.8652343750,0.2778320312,0.0307617188,-3.6926269531,20.6146240234,-217.4377441406
3.1524050236,-0.8652343750,0.2778320312,0.0307617188,-3.6926269531,20.6146240234,-217.4377441406
3.1549861431,-0.8652343750,0.2744140625,0.0385742188,0.6866455078,22.9034423828,-221.0235595703
3.1576709747,-0.9101562500,0.2744140625,0.0385742188,0.6866455078,22.9034423828,-221.0235595703
3.1603400707,-0.9101562500,0.2744140625,0.0385742188,2.8228759766,23.9257812500,-223.8769531250
3.1638901234,-0.9101562500,0.2744140625,0.0385742188,2.8228759766,23.9257812500,-223.8769531250
3.1665279865,-0.9340820312,0.3085937500,0.0537109375,3.3111572266,24.2767333984,-226.0589599609
3.1690981388,-0.9340820312,0.3085937500,0.0537109375,3.3111572266,24.2767333984,-226.0589599609
3.1716680527,-0.9340820312,0.3085937500,0.0537109375,3.3874511719,24.0325927734,-227.0202636719
3.1742351055,-0.9340820312,0.3085937500,0.0537109375,3.3874511719,24.0325927734,-227.0202636719
3.1768751144,-0.9501953125,0.3657226562,0.0581054688,2.3193359375,23.5748291016,-227.6458740234
3.1794421673,-0.9501953125,0.3657226562,0.0581054688,2.3193359375,23.5748291016,-227.6458740234
3.1820089817,-0.9501953125,0.3657226562,0.0581054688,1.0833740234,22.6287841797,-228.2409667969
3.1845760345,-0.9501953125,0.3657226562,0.0581054688,1.0833740234,22.6287841797,-228.2409667969
3.1871540546,-0.9653320312,0.3798828125,0.0698242188,0.0610351562,22.1252441406,-228.4851074219
3.1898381710,-0.9653320312,0.3798828125,0.0698242188,0.0610351562,22.1252441406,-228.4851074219
3.1924121380,-0.9653320312,0.3798828125,0.0698242188,-0.1678466797,21.5454101562,-228.1494140625
3.1949830055,-0.9653320312,0.3798828125,0.0664062500,-0.1678466797,21.5454101562,-228.1494140625
3.1975669861,-0.9804687500,0.3291015625,0.0664062500,-0.1678466797,20.3399658203,-227.3559570312
3.2001371384,-0.9804687500,0.3291015625,0.0664062500,-0.7934570312,20.3399658203,-227.3559570312
3.2027080059,-0.9804687500,0.3291015625,0.0664062500,-0.7934570312,16.4337158203,-226.8218994141
3.2052750587,-0.9804687500,0.3291015625,0.0517578125,-3.3111572266,18.6920166016,-226.8218994141
3.2079911232,-1.0166015625,0.2983398438,0.0517578125,-3.3111572266,18.6920166016,-225.5401611328
3.2105691433,-1.0166015625,0.2983398438,0.0517578125,-8.2397460938,15.6860351562,-225.5401611328
3.2131421566,-1.0166015625,0.2983398438,0.0517578125,-8.2397460938,15.6860351562,-224.1516113281
3.2157189846,-1.0166015625,0.3217773438,0.0366210938,-14.1601562500,14.1448974609,-224.1516113281
3.2185311317,-1.0195312500,0.3217773438,0.0366210938,-14.1601562500,14.1448974609,-222.4426269531
3.2212381363,-1.0195312500,0.3217773438,0.0366210938,-19.3786621094,13.9770507812,-222.4426269531
3.2239480019,-1.0195312500,0.3217773438,0.0366210938,-19.3786621094,13.9770507812,-219.9096679688
3.2266571522,-1.0107421875,0.3691406250,0.0332031250,-24.8107910156,13.2598876953,-219.9096679688
3.2293610573,-1.0107421875,0.3691406250,0.0332031250,-24.8107910156,13.2598876953,-217.9412841797
3.2320671082,-1.0107421875,0.3691406250,0.0332031250,-31.4636230469,13.1225585938,-217.9412841797
3.2347750664,-1.0107421875,0.3691406250,0.0332031250,-31.4636230469,13.1225585938,-217.9412841797
3.2374520302,-1.0175781250,0.3598632812,0.0581054688,-37.2314453125,13.1530761719,-216.0949707031
3.2400319576,-1.0175781250,0.3598632812,0.0581054688,-37.2314453125,13.1530761719,-216.0949707031
3.2426140308,-1.0175781250,0.3598632812,0.0581054688,-41.6107177734,12.8479003906,-214.2486572266
3.2451970577,-1.0175781250,0.3598632812,0.0581054688,-41.6107177734,12.8479003906,-214.2486572266
3.2479269505,-1.0209960938,0.3105468750,0.0727539062,-47.1038818359,12.5274658203,-211.9445800781
3.2506310940,-1.0209960938,0.3105468750,0.0727539062,-47.1038818359,12.5274658203,-211.9445800781
3.2534811497,-1.0209960938,0.3105468750,0.0727539062,-53.6499023438,11.9018554688,-208.9080810547
3.2562611103,-1.0209960938,0.2778320312,0.0893554688,-53.6499023438,11.9018554688,-208.9080810547
3.2589271069,-1.0190429688,0.2778320312,0.0893554688,-60.4858398438,10.2996826172,-205.3070068359
3.2616889477,-1.0190429688,0.2778320312,0.0893554688,-60.4858398438,10.2996826172,-201.7211914062
3.2651441097,-1.0190429688,0.2778320312,0.0893554688,-68.8018798828,9.7045898438,-201.7211914062
3.2678551674,-1.0278320312,0.3115234375,0.0976562500,-68.8018798828,9.7045898438,-197.7996826172
3.2704231739,-1.0278320312,0.3115234375,0.0976562500,-75.4852294922,8.6822509766,-197.7996826172
3.2729899883,-1.0278320312,0.3115234375,0.0976562500,-75.4852294922,8.6822509766,-193.8934326172
3.2755620480,-1.0278320312,0.3115234375,0.0976562500,-79.4677734375,8.1329345703,-193.0999755859
3.2781381607,-1.0307617188,0.4077148438,0.1088867188,-79.4677734375,8.1329345703,-193.0999755859
3.2807099819,-1.0307617188,0.4077148438,0.1088867188,-80.9631347656,8.4228515625,-186.9964599609
3.2832860947,-1.0307617188,0.4077148438,0.1088867188,-80.9631347656,8.4228515625,-186.9964599609
3.2858490944,-1.0307617188,0.4077148438,0.1000976562,-80.5664062500,9.8571777344,-180.6945800781
3.2884261608,-1.0517578125,0.4536132812,0.1000976562,-80.5664062500,9.8571777344,-180.6945800781
3.2909991741,-1.0517578125,0.4536132812,0.1000976562,-78.9184570312,13.1988525391,-173.3093261719
3.2935731411,-1.0517578125,0.4536132812,0.1000976562,-78.9184570312,13.1988525391,-173.3093261719
3.2962491512,-1.0517578125,0.4536132812,0.0825195312,-77.2399902344,15.8538818359,-164.7949218750
3.2988271713,-1.0327148438,0.4077148438,0.0825195312,-77.2399902344,15.8538818359,-164.7949218750
3.3014030457,-1.0327148438,0.4077148438,0.0825195312,-75.6072998047,19.1192626953,-156.1279296875
3.3039720058,-1.0327148438,0.4077148438,0.0825195312,-75.6072998047,19.1192626953,-156.1279296875
3.3066689968,-1.0327148438,0.3740234375,0.0883789062,-73.8830566406,21.2402343750,-146.8811035156
3.3092479706,-0.9663085938,0.3740234375,0.0883789062,-73.8830566406,21.2402343750,-146.8811035156
3.3118269444,-0.9663085938,0.3740234375,0.0883789062,-73.8830566406,22.2930908203,-137.2375488281
3.3144061565,-0.9663085938,0.3740234375,0.0883789062,-74.0051269531,22.2930908203,-137.2375488281
3.3171269894,-0.8803710938,0.4125976562,0.1333007812,-74.0051269531,22.1557617188,-127.4108886719
3.3197059631,-0.8803710938,0.4125976562,0.1333007812,-76.4160156250,22.1557617188,-127.4108886719
3.3222830296,-0.8803710938,0.4125976562,0.1333007812,-76.4160156250,22.1557617188,-117.6910400391
3.3248629570,-0.8803710938,0.4125976562,0.1333007812,-77.8656005859,21.4080810547,-117.6910400391
3.3275849819,-0.7890625000,0.5024414062,0.1591796875,-77.8656005859,21.4080810547,-106.8267822266
3.3302619457,-0.7890625000,0.5024414062,0.1591796875,-76.7517089844,18.9056396484,-106.8267822266
3.3329341412,-0.7890625000,0.5024414062,0.1591796875,-76.7517089844,18.9056396484,-96.0235595703
3.3356130123,-0.7890625000,0.5024414062,0.1591796875,-74.6002197266,15.9606933594,-96.0235595703
3.3383531570,-0.7148437500,0.5639648438,0.1752929688,-74.6002197266,15.9606933594,-84.6710205078
3.3410639763,-0.7148437500,0.5639648438,0.1752929688,-71.5332031250,12.1002197266,-84.6710205078
3.3437781334,-0.7148437500,0.5639648438,0.1752929688,-71.5332031250,12.1002197266,-73.3795166016
