# time_stamp before, Acceleration x, Acceleration y, Acceleration z, Gyro x, Gyro y, Gyro z
0.0000000000,-0.7397460938,0.0551757812,0.0356445312,-0.1525878906,0.0610351562,0.4119873047
0.0034360886,-0.7314453125,0.0551757812,0.0307617188,-0.1525878906,0.0610351562,0.4119873047
0.0059959888,-0.7314453125,0.0551757812,0.0307617188,-0.7476806641,0.1983642578,0.3356933594
0.0085620880,-0.7314453125,0.0551757812,0.0307617188,-0.7476806641,0.1983642578,0.3356933594
0.0111200809,-0.7314453125,0.0551757812,0.0307617188,-0.3356933594,0.0915527344,-0.1831054688
0.0136761665,-0.7333984375,0.0556640625,0.0283203125,-0.3356933594,0.0915527344,-0.1831054688
0.0162320137,-0.7333984375,0.0556640625,0.0283203125,0.1983642578,0.0915527344,0.0305175781
0.0187911987,-0.7333984375,0.0556640625,0.0283203125,0.1983642578,0.0915527344,0.0305175781
0.0213520527,-0.7333984375,0.0556640625,0.0283203125,0.1220703125,-0.1983642578,0.0915527344
0.0239050388,-0.7421875000,0.0468750000,0.0390625000,0.1220703125,-0.1983642578,0.0915527344
0.0264620781,-0.7421875000,0.0468750000,0.0390625000,-0.1525878906,0.1678466797,0.1220703125
0.0290641785,-0.7421875000,0.0468750000,0.0390625000,-0.1525878906,0.1678466797,0.1220703125
0.0316190720,-0.7421875000,0.0468750000,0.0390625000,-0.3662109375,0.2136230469,0.3509521484
0.0341861248,-0.7314453125,0.0507812500,0.0312500000,-0.3662109375,0.2136230469,0.3509521484
0.0367541313,-0.7314453125,0.0507812500,0.0312500000,-0.3662109375,0.1220703125,0.0610351562
0.0394752026,-0.7314453125,0.0507812500,0.0312500000,-0.2746582031,0.1220703125,0.0610351562
0.0420479774,-0.7314453125,0.0507812500,0.0312500000,-0.2746582031,0.2899169922,0.1068115234
0.0446121693,-0.7363281250,0.0590820312,0.0195312500,-0.1678466797,0.2899169922,0.1068115234
0.0471770763,-0.7363281250,0.0590820312,0.0195312500,-0.1678466797,0.2899169922,0.6103515625
0.0497970581,-0.7363281250,0.0590820312,0.0195312500,0.3509521484,-0.0457763672,0.6103515625
0.0525131226,-0.7363281250,0.0590820312,0.0195312500,0.3509521484,-0.0457763672,0.6408691406
0.0550780296,-0.7363281250,0.0522460938,0.0454101562,0.6713867188,-0.2288818359,0.6408691406
0.0577130318,-0.7363281250,0.0522460938,0.0454101562,0.6713867188,-0.2288818359,0.6408691406
0.0602731705,-0.7363281250,0.0522460938,0.0454101562,0.2593994141,-0.1373291016,0.3662109375
0.0628411770,-0.7363281250,0.0522460938,0.0375976562,0.2593994141,-0.1373291016,0.3662109375
0.0654060841,-0.7319335938,0.0595703125,0.0375976562,-0.1678466797,0.1831054688,0.2899169922
0.0679790974,-0.7319335938,0.0595703125,0.0375976562,-0.1678466797,0.1831054688,0.2899169922
0.0705451965,-0.7319335938,0.0595703125,0.0375976562,-0.2746582031,0.4119873047,0.1831054688
0.0731050968,-0.7319335938,0.0595703125,0.0336914062,-0.2746582031,0.4119873047,0.1831054688
0.0756671429,-0.7304687500,0.0546875000,0.0336914062,-0.0762939453,0.2288818359,0.2899169922
0.0783061981,-0.7304687500,0.0546875000,0.0336914062,-0.0762939453,0.2288818359,0.2899169922
0.0808720589,-0.7304687500,0.0546875000,0.0336914062,-0.1525878906,0.0762939453,0.3204345703
0.0835430622,-0.7304687500,0.0605468750,0.0278320312,-0.1525878906,0.0762939453,0.3204345703
0.0861051083,-0.7343750000,0.0605468750,0.0278320312,0.7476806641,-0.0915527344,0.6256103516
0.0888459682,-0.7343750000,0.0605468750,0.0278320312,0.7476806641,-0.0915527344,0.6256103516
0.0914101601,-0.7343750000,0.0605468750,0.0278320312,0.4272460938,-0.1983642578,0.5798339844
0.0942070484,-0.7402343750,0.0541992188,0.0454101562,0.4272460938,-0.1983642578,0.5798339844
0.0967831612,-0.7402343750,0.0541992188,0.0454101562,0.4272460938,0.0457763672,0.3814697266
0.0993471146,-0.7402343750,0.0541992188,0.0454101562,0.0305175781,0.0457763672,0.3814697266
0.1019020081,-0.7402343750,0.0541992188,0.0454101562,0.0305175781,-3.8604736328,0.5493164062
0.1044681072,-0.7299804688,0.0581054688,0.0468750000,0.3356933594,-0.3814697266,0.5493164062
0.1070270538,-0.7299804688,0.0581054688,0.0468750000,0.3356933594,-0.3814697266,0.3814697266
0.1096370220,-0.7299804688,0.0581054688,0.0468750000,-0.2746582031,-0.1373291016,0.3814697266
0.1122000217,-0.7299804688,0.0581054688,0.0468750000,-0.2746582031,-0.1373291016,0.3814697266
0.1148750782,-0.7343750000,0.0556640625,0.0371093750,-0.4272460938,0.0152587891,0.4730224609
0.1174950600,-0.7343750000,0.0556640625,0.0371093750,-0.4272460938,0.0152587891,0.4730224609
0.1200561523,-0.7343750000,0.0556640625,0.0371093750,-0.7171630859,0.0762939453,0.3814697266
0.1226160526,-0.7343750000,0.0556640625,0.0371093750,-0.7171630859,0.0762939453,0.3814697266
0.1251740456,-0.7363281250,0.0629882812,0.0375976562,-0.3967285156,0.2136230469,0.3814697266
0.1277751923,-0.7363281250,0.0629882812,0.0375976562,-0.3967285156,0.2136230469,0.3814697266
0.1303369999,-0.7363281250,0.0629882812,0.0375976562,-0.0152587891,-0.1678466797,0.5950927734
0.1328980923,-0.7363281250,0.0629882812,0.0375976562,-0.0152587891,-0.1678466797,0.5950927734
0.1354591846,-0.7333984375,0.0527343750,0.0341796875,-0.3967285156,0.1220703125,0.5340576172
0.1380741596,-0.7333984375,0.0527343750,0.0341796875,-0.3967285156,0.1220703125,0.5340576172
0.1406371593,-0.7333984375,0.0527343750,0.0341796875,-0.1678466797,0.2288818359,0.6713867188
0.1431989670,-0.7333984375,0.0527343750,0.0341796875,-0.1678466797,0.2288818359,0.6713867188
0.1457591057,-0.7373046875,0.0595703125,0.0336914062,-0.1678466797,-0.1525878906,0.5187988281
0.1484329700,-0.7373046875,0.0595703125,0.0336914062,-0.1068115234,-0.1525878906,0.5187988281
0.1509981155,-0.7373046875,0.0595703125,0.0336914062,-0.1068115234,-0.0457763672,0.1525878906
0.1535630226,-0.7373046875,0.0595703125,0.0336914062,-0.3662109375,-0.0457763672,0.1525878906
0.1561269760,-0.7265625000,0.0600585938,0.0288085938,-0.3662109375,-0.0457763672,0.1068115234
0.1587181091,-0.7265625000,0.0600585938,0.0288085938,-0.3051757812,-0.1373291016,0.1068115234
0.1612820625,-0.7265625000,0.0600585938,0.0288085938,-0.3051757812,-0.1373291016,0.1068115234
0.1638491154,-0.7265625000,0.0600585938,0.0288085938,-0.1068115234,-0.1373291016,0.2441406250
0.1664140224,-0.7333984375,0.0590820312,0.0346679688,-0.1068115234,-0.1373291016,0.3662109375
0.1696581841,-0.7333984375,0.0590820312,0.0346679688,0.0305175781,-0.0915527344,0.3662109375
0.1723551750,-0.7333984375,0.0590820312,0.0346679688,0.0305175781,-0.0915527344,0.1831054688
0.1750500202,-0.7338867188,0.0561523438,0.0424804688,0.1678466797,-0.0457763672,0.1831054688
0.1778681278,-0.7338867188,0.0561523438,0.0424804688,0.1678466797,-0.0457763672,0.1220703125
0.1804351807,-0.7338867188,0.0561523438,0.0424804688,0.1068115234,0.0762939453,0.1220703125
0.1830010414,-0.7338867188,0.0561523438,0.0424804688,0.1068115234,0.0762939453,0.1220703125
0.1855630875,-0.7319335938,0.0576171875,0.0307617188,-0.0610351562,-0.0152587891,0.1373291016
0.1882090569,-0.7319335938,0.0576171875,0.0307617188,-0.0610351562,-0.0152587891,0.1373291016
0.1909110546,-0.7319335938,0.0576171875,0.0307617188,-0.3509521484,-0.0457763672,0.1678466797
0.1936080456,-0.7319335938,0.0576171875,0.0307617188,-0.3509521484,-0.0457763672,0.1678466797
0.1963040829,-0.7387695312,0.0551757812,0.0424804688,-0.3204345703,0.1678466797,0.0305175781
0.1991221905,-0.7387695312,0.0551757812,0.0424804688,-0.3204345703,0.1678466797,0.0305175781
0.2017881870,-0.7387695312,0.0551757812,0.0424804688,-0.5798339844,0.0915527344,0.0000000000
0.2045559883,-0.7387695312,0.0551757812,0.0322265625,-0.5798339844,0.0915527344,0.0000000000
0.2072620392,-0.7377929688,0.0566406250,0.0322265625,-0.1220703125,-0.1678466797,0.1678466797
0.2099680901,-0.7377929688,0.0566406250,0.0322265625,-0.1220703125,-0.1678466797,0.1678466797
0.2126669884,-0.7377929688,0.0566406250,0.0322265625,-0.1983642578,0.0305175781,0.2288818359
0.2153661251,-0.7387695312,0.0551757812,0.0458984375,-0.1983642578,0.0305175781,0.2288818359
0.2180640697,-0.7387695312,0.0551757812,0.0458984375,-0.2593994141,0.1983642578,0.1220703125
0.2207651138,-0.7387695312,0.0551757812,0.0458984375,-0.2593994141,0.1983642578,0.1220703125
0.2234680653,-0.7387695312,0.0551757812,0.0458984375,-0.0457763672,0.0152587891,0.1831054688
0.2261650562,-0.7368164062,0.0532226562,0.0356445312,-0.0457763672,0.0152587891,0.1831054688
0.2287859917,-0.7368164062,0.0532226562,0.0356445312,0.0152587891,0.1373291016,0.0915527344
0.2313551903,-0.7368164062,0.0532226562,0.0356445312,0.0152587891,0.1373291016,0.0915527344
0.2339169979,-0.7368164062,0.0532226562,0.0356445312,0.0457763672,-0.1068115234,0.3204345703
0.2364790440,-0.7407226562,0.0585937500,0.0361328125,0.0457763672,-0.1068115234,0.3204345703
0.2390961647,-0.7407226562,0.0585937500,0.0361328125,0.1068115234,-0.1983642578,0.1525878906
0.2417609692,-0.7407226562,0.0585937500,0.0361328125,0.1068115234,-0.1983642578,0.1525878906
0.2443351746,-0.7407226562,0.0585937500,0.0361328125,-0.1983642578,-0.1525878906,-0.0915527344
0.2469031811,-0.7338867188,0.0634765625,0.0346679688,-0.1983642578,-0.1525878906,-0.0915527344
0.2495679855,-0.7338867188,0.0634765625,0.0346679688,0.1525878906,-0.2593994141,0.1525878906
0.2521390915,-0.7338867188,0.0634765625,0.0346679688,0.1525878906,-0.2593994141,0.1525878906
0.2547039986,-0.7338867188,0.0634765625,0.0346679688,0.2746582031,-0.3051757812,0.2746582031
0.2573711872,-0.7338867188,0.0556640625,0.0375976562,0.2746582031,-0.3051757812,0.2746582031
0.2600691319,-0.7338867188,0.0556640625,0.0375976562,0.1678466797,-0.1373291016,-0.1373291016
0.2627611160,-0.7338867188,0.0556640625,0.0375976562,0.1678466797,-0.1373291016,-0.1373291016
0.2654621601,-0.7338867188,0.0644531250,0.0297851562,0.1678466797,0.1525878906,0.1373291016
0.2681710720,-0.7319335938,0.0644531250,0.0297851562,0.1678466797,0.1525878906,0.1373291016
0.2708680630,-0.7319335938,0.0644531250,0.0297851562,-3.7384033203,0.3662109375,0.0000000000
0.2735750675,-0.7319335938,0.0644531250,0.0297851562,-0.4272460938,0.3662109375,0.0000000000
0.2762730122,-0.7319335938,0.0561523438,0.0415039062,-0.4272460938,-0.0457763672,-0.1220703125
0.2789089680,-0.7319335938,0.0561523438,0.0415039062,-0.0152587891,-0.0457763672,-0.1220703125
0.2814760208,-0.7319335938,0.0561523438,0.0415039062,-0.0152587891,3.8604736328,0.2899169922
0.2840390205,-0.7319335938,0.0561523438,0.0415039062,-0.1525878906,0.1068115234,0.2899169922
0.2866151333,-0.7324218750,0.0585937500,0.0424804688,-0.1525878906,0.1068115234,0.0762939453
0.2892889977,-0.7324218750,0.0585937500,0.0424804688,-0.3967285156,0.2441406250,0.0762939453
0.2919840813,-0.7324218750,0.0585937500,0.0424804688,-0.3967285156,0.2441406250,-0.0762939453
0.2948241234,-0.7324218750,0.0585937500,0.0424804688,0.2136230469,0.4272460938,-0.0762939453
0.2974569798,-0.7319335938,0.0532226562,0.0375976562,0.2136230469,0.4272460938,0.3662109375
0.3001329899,-0.7319335938,0.0532226562,0.0375976562,0.3204345703,-0.1831054688,0.3662109375
0.3029000759,-0.7319335938,0.0532226562,0.0375976562,0.3204345703,-0.1831054688,0.4272460938
0.3056671619,-0.7319335938,0.0532226562,0.0297851562,0.6561279297,-0.1983642578,0.4272460938
0.3088121414,-0.7304687500,0.0605468750,0.0297851562,0.6561279297,0.1068115234,0.6256103516
0.3115131855,-0.7304687500,0.0605468750,0.0297851562,0.2288818359,0.1068115234,0.6256103516
0.3142139912,-0.7304687500,0.0605468750,0.0297851562,0.2288818359,-0.0457763672,0.2593994141
0.3169059753,-0.7285156250,0.0600585938,0.0390625000,0.1220703125,-0.0457763672,0.2593994141
0.3196191788,-0.7285156250,0.0600585938,0.0390625000,0.1220703125,-0.1373291016,0.1373291016
0.3223230839,-0.7285156250,0.0600585938,0.0390625000,0.3356933594,-0.1373291016,0.1373291016
0.3250250816,-0.7285156250,0.0600585938,0.0390625000,0.3356933594,0.0457763672,0.2288818359
0.3277151585,-0.7348632812,0.0566406250,0.0336914062,0.1525878906,0.0457763672,0.2288818359
0.3302831650,-0.7348632812,0.0566406250,0.0336914062,0.1525878906,0.0457763672,0.1220703125
0.3328490257,-0.7348632812,0.0566406250,0.0336914062,-0.0915527344,0.1068115234,0.1220703125
0.3354151249,-0.7348632812,0.0566406250,0.0336914062,-0.0915527344,0.1068115234,0.1220703125
0.3379909992,-0.7373046875,0.0551757812,0.0263671875,-0.4425048828,-0.1220703125,0.3356933594
0.3405590057,-0.7373046875,0.0551757812,0.0263671875,-0.4425048828,-0.1220703125,0.3356933594
0.3431291580,-0.7373046875,0.0551757812,0.0263671875,-0.9307861328,0.1678466797,0.1678466797
0.3456981182,-0.7373046875,0.0551757812,0.0292968750,-0.9307861328,0.1678466797,0.1678466797
0.3483071327,-0.7382812500,0.0561523438,0.0292968750,-0.5645751953,0.1983642578,0.2746582031
0.3508780003,-0.7382812500,0.0561523438,0.0292968750,-0.5645751953,0.1983642578,0.2746582031
0.3534471989,-0.7382812500,0.0561523438,0.0292968750,-0.9460449219,0.0915527344,0.6256103516
0.3560161591,-0.7382812500,0.0561523438,0.0283203125,-0.9460449219,0.0915527344,0.6256103516
0.3586761951,-0.7358398438,0.0561523438,0.0283203125,-0.8239746094,0.0000000000,0.6561279297
0.3612442017,-0.7358398438,0.0561523438,0.0283203125,-0.8239746094,0.0000000000,0.6561279297
0.3638119698,-0.7358398438,0.0561523438,0.0283203125,-1.2664794922,0.4577636719,0.6866455078
0.3663771152,-0.7358398438,0.0610351562,0.0273437500,-1.2664794922,0.4577636719,0.6866455078
0.3692681789,-0.7280273438,0.0610351562,0.0273437500,-1.3732910156,0.4425048828,0.3967285156
0.3719670773,-0.7280273438,0.0610351562,0.0273437500,-1.3732910156,0.4425048828,0.3967285156
0.3746640682,-0.7280273438,0.0610351562,0.0273437500,-1.8920898438,0.7324218750,0.2288818359
0.3773710728,-0.7338867188,0.0615234375,0.0444335938,-1.8920898438,0.7324218750,0.2288818359
0.3799340725,-0.7338867188,0.0615234375,0.0444335938,-1.5258789062,0.5035400391,-0.1373291016
0.3824980259,-0.7338867188,0.0615234375,0.0444335938,-1.5258789062,0.5035400391,-0.1373291016
0.3850641251,-0.7338867188,0.0615234375,0.0444335938,-1.5258789062,0.6408691406,-0.0152587891
0.3876521587,-0.7353515625,0.0654296875,0.0336914062,-1.5869140625,0.6408691406,-0.0152587891
0.3904380798,-0.7353515625,0.0654296875,0.0336914062,-1.5869140625,0.8544921875,0.0152587891
0.3930070400,-0.7353515625,0.0654296875,0.0336914062,-1.6937255859,0.8544921875,0.0152587891
0.3955740929,-0.7353515625,0.0654296875,0.0336914062,-1.6937255859,0.8544921875,-0.0152587891
0.3982651234,-0.7241210938,0.0678710938,0.0400390625,-1.9531250000,0.6408691406,-0.0152587891
0.4009311199,-0.7241210938,0.0678710938,0.0400390625,-1.9531250000,0.6408691406,0.0762939453
0.4046809673,-0.7241210938,0.0678710938,0.0400390625,-1.5258789062,0.5187988281,0.0762939453
0.4073021412,-0.7207031250,0.0708007812,0.0249023438,-1.8615722656,0.1678466797,0.0915527344
0.4098601341,-0.7207031250,0.0708007812,0.0249023438,-1.8615722656,0.1678466797,0.0915527344
0.4124190807,-0.7207031250,0.0708007812,0.0249023438,-1.8615722656,-0.0152587891,-0.0915527344
0.4149761200,-0.7207031250,0.0708007812,0.0249023438,-2.4871826172,-0.0152587891,-0.0915527344
0.4175760746,-0.7089843750,0.0673828125,0.0151367188,-2.4871826172,3.8909912109,0.2136230469
0.4201350212,-0.7089843750,0.0673828125,0.0151367188,-2.6397705078,0.0152587891,0.2136230469
0.4226939678,-0.7089843750,0.0673828125,0.0151367188,-2.6397705078,0.0152587891,0.0915527344
0.4252560139,-0.7089843750,0.0673828125,0.0151367188,-3.5858154297,-0.5340576172,0.0915527344
0.4278280735,-0.7290039062,0.0590820312,-0.0019531250,-3.5858154297,-0.5340576172,-3.8146972656
0.4303879738,-0.7290039062,0.0590820312,-0.0019531250,-4.5166015625,-1.7089843750,-0.2136230469
0.4329521656,-0.7290039062,0.0590820312,-0.0019531250,-4.5166015625,-1.7089843750,-0.2136230469
0.4356250763,-0.7290039062,0.0590820312,-0.0019531250,-5.8441162109,-2.0141601562,-0.2288818359
0.4381999969,-0.7451171875,0.0556640625,-0.0063476562,-5.8441162109,-2.0141601562,-0.2288818359
0.4407720566,-0.7451171875,0.0556640625,-0.0063476562,-7.8887939453,-2.2125244141,0.1678466797
0.4433321953,-0.7451171875,0.0556640625,-0.0063476562,-7.8887939453,-2.2125244141,0.1678466797
0.4458901882,-0.7451171875,0.0556640625,-0.0063476562,-9.7656250000,-2.0904541016,0.5645751953
0.4486250877,-0.7573242188,0.0488281250,0.0117187500,-9.7656250000,-2.0904541016,0.5645751953
0.4511890411,-0.7573242188,0.0488281250,0.0117187500,-11.0015869141,-1.9989013672,0.2441406250
0.4537661076,-0.7573242188,0.0488281250,0.0117187500,-11.0015869141,-1.9989013672,0.2441406250
0.4563381672,-0.7573242188,0.0488281250,0.0117187500,-10.6658935547,-1.3427734375,0.7781982422
0.4590840340,-0.7500000000,0.0590820312,0.0283203125,-10.6658935547,-1.3427734375,0.7781982422
0.4617919922,-0.7500000000,0.0590820312,0.0283203125,-10.1318359375,-0.9460449219,0.8239746094
0.4644939899,-0.7500000000,0.0590820312,0.0283203125,-10.1318359375,-0.9460449219,0.8239746094
0.4671971798,-0.7500000000,0.0590820312,0.0556640625,-9.4757080078,-0.6256103516,0.5493164062
0.4699351788,-0.7387695312,0.0727539062,0.0556640625,-9.4757080078,-0.6256103516,0.5493164062
0.4726350307,-0.7387695312,0.0727539062,0.0556640625,-8.7280273438,-0.5950927734,0.6103515625
0.4753351212,-0.7387695312,0.0727539062,0.0556640625,-8.7280273438,-0.5950927734,0.6103515625
0.4780211449,-0.7402343750,0.0590820312,0.0712890625,-7.0495605469,-0.7934570312,0.3814697266
0.4805841446,-0.7402343750,0.0590820312,0.0712890625,-7.0495605469,-0.7934570312,0.3814697266
0.4831490517,-0.7402343750,0.0590820312,0.0712890625,-7.0495605469,-0.5187988281,0.0762939453
0.4857180119,-0.7402343750,0.0590820312,0.0712890625,-5.2032470703,-0.5187988281,0.0762939453
0.4883790016,-0.7255859375,0.0668945312,0.0859375000,-5.2032470703,0.2441406250,-0.2593994141
0.4910821915,-0.7255859375,0.0668945312,0.0859375000,-4.1198730469,0.2441406250,-0.2593994141
0.4939241409,-0.7255859375,0.0668945312,0.0859375000,-4.1198730469,1.2207031250,-0.7019042969
0.4964911938,-0.7255859375,0.0668945312,0.0859375000,-1.7852783203,1.2207031250,-0.7019042969
0.4994001389,-0.7377929688,0.1171875000,0.0639648438,2.1209716797,1.6937255859,-1.5563964844
0.5020601749,-0.7377929688,0.1171875000,0.0639648438,1.5258789062,1.6937255859,-1.5563964844
0.5048751831,-0.7377929688,0.1171875000,0.0639648438,5.4321289062,2.3345947266,-2.5024414062
0.5075161457,-0.7377929688,0.1171875000,0.0532226562,5.3558349609,2.3345947266,-2.5024414062
0.5100820065,-0.7524414062,0.1313476562,0.0532226562,5.3558349609,2.3345947266,-3.3874511719
0.5126390457,-0.7524414062,0.1313476562,0.0532226562,9.3688964844,2.3040771484,-3.3874511719
0.5151941776,-0.7524414062,0.1313476562,0.0532226562,9.3688964844,2.3040771484,-4.5318603516
0.5177671909,-0.7524414062,0.0063476562,0.0483398438,12.2528076172,2.3193359375,-4.5318603516
0.5203280449,-0.7246093750,0.1030273438,0.0483398438,12.2528076172,2.3193359375,-4.5318603516
0.5228919983,-0.7246093750,0.1030273438,0.0483398438,14.3890380859,2.5024414062,-5.4931640625
0.5254590511,-0.7246093750,0.1030273438,0.0483398438,14.3890380859,2.5024414062,-5.4931640625
0.5280270576,-0.7246093750,0.0805664062,0.0351562500,15.5792236328,2.3956298828,-6.0577392578
0.5306000710,-0.7363281250,0.0805664062,0.0351562500,15.5792236328,2.3956298828,-6.0577392578
0.5331640244,-0.7363281250,0.0805664062,0.0351562500,16.6778564453,2.9907226562,-6.1645507812
0.5357260704,-0.7363281250,0.0805664062,0.0351562500,16.6778564453,2.9907226562,-6.1645507812
0.5383391380,-0.7363281250,0.0698242188,0.0332031250,15.8996582031,2.9449462891,-5.8441162109
0.5408999920,-0.7456054688,0.0698242188,0.0332031250,15.8996582031,2.9449462891,-5.8441162109
0.5434641838,-0.7456054688,0.0698242188,0.0332031250,14.3585205078,3.1585693359,-5.9204101562
0.5460371971,-0.7456054688,0.0698242188,0.0332031250,14.3585205078,3.1585693359,-5.9204101562
0.5486571789,-0.7343750000,0.0288085938,0.0244140625,12.7258300781,2.8381347656,-5.7678222656
0.5512351990,-0.7343750000,0.0288085938,0.0244140625,12.7258300781,2.8381347656,-5.7678222656
0.5538029671,-0.7343750000,0.0288085938,0.0244140625,12.7258300781,2.7313232422,-5.0354003906
0.5563671589,-0.7343750000,0.0288085938,0.0244140625,10.9252929688,2.7313232422,-5.0354003906
0.5591130257,-0.7402343750,0.0146484375,0.0444335938,10.9252929688,3.1890869141,-4.1351318359
0.5619201660,-0.7402343750,0.0146484375,0.0444335938,9.7045898438,3.1890869141,-4.1351318359
0.5646181107,-0.7402343750,0.0146484375,0.0444335938,9.7045898438,3.5552978516,-3.6773681641
0.5673301220,-0.7402343750,0.0146484375,0.0444335938,9.0942382812,3.5552978516,-3.6773681641
0.5700271130,-0.7421875000,0.0073242188,0.0317382812,9.0942382812,3.6010742188,-3.1280517578
0.5727300644,-0.7421875000,0.0073242188,0.0317382812,8.8348388672,3.6010742188,-3.1280517578
0.5754270554,-0.7421875000,0.0073242188,0.0317382812,8.8348388672,2.9602050781,-2.5939941406
0.5781030655,-0.7421875000,0.0073242188,0.0283203125,7.3242187500,2.9602050781,-2.5939941406
0.5806770325,-0.7426757812,-0.0092773438,0.0283203125,7.3242187500,2.9602050781,-1.7242431641
0.5832421780,-0.7426757812,-0.0092773438,0.0283203125,5.7678222656,3.1433105469,-1.7242431641
0.5858070850,-0.7426757812,-0.0092773438,0.0283203125,5.7678222656,3.1433105469,-0.4119873047
0.5884830952,-0.7426757812,0.1157226562,0.0395507812,3.5095214844,3.7841796875,-0.4119873047
0.5911791325,-0.7402343750,0.0039062500,0.0395507812,3.5095214844,3.7841796875,3.4942626953
0.5938761234,-0.7402343750,0.0039062500,0.0395507812,1.3427734375,4.1503906250,0.7019042969
0.5965709686,-0.7402343750,0.0039062500,0.0395507812,1.3427734375,4.1503906250,0.7019042969
0.5992710590,-0.7382812500,0.0087890625,0.0541992188,0.8392333984,4.1351318359,1.1291503906
0.6019721031,-0.7382812500,0.0087890625,0.0541992188,0.8392333984,4.1351318359,1.1291503906
0.6046631336,-0.7382812500,0.0087890625,0.0541992188,0.1678466797,4.4708251953,1.3122558594
0.6073691845,-0.7382812500,0.0087890625,0.0541992188,0.1678466797,4.4708251953,1.3122558594
0.6100761890,-0.7416992188,0.0419921875,0.0668945312,-0.1373291016,5.3710937500,1.8005371094
0.6127700806,-0.7416992188,0.0419921875,0.0668945312,-0.1373291016,5.3710937500,2.4108886719
0.6156821251,-0.7416992188,0.0419921875,0.0668945312,-0.1525878906,5.8441162109,2.4108886719
0.6187131405,-0.7416992188,0.0419921875,0.0522460938,-0.1525878906,5.8441162109,2.6855468750
0.6214141846,-0.7377929688,0.0649414062,0.0522460938,0.7324218750,5.8746337891,2.6855468750
0.6241130829,-0.7377929688,0.0649414062,0.0522460938,0.7324218750,5.8746337891,2.5634765625
0.6269199848,-0.7377929688,0.0649414062,0.0522460938,1.5716552734,5.9814453125,2.5634765625
0.6295230389,-0.7368164062,0.0634765625,0.0605468750,1.5716552734,5.9814453125,2.3040771484
0.6320891380,-0.7368164062,0.0634765625,0.0605468750,1.9226074219,6.2103271484,2.3040771484
0.6346499920,-0.7368164062,0.0634765625,0.0605468750,1.9226074219,6.2103271484,2.3040771484
0.6372630596,-0.7368164062,0.0634765625,0.0605468750,2.6550292969,6.8359375000,2.2583007812
0.6399581432,-0.7363281250,0.0693359375,0.0537109375,2.6550292969,6.8359375000,2.2583007812
0.6426601410,-0.7363281250,0.0693359375,0.0537109375,3.5095214844,7.1411132812,2.0599365234
0.6453590393,-0.7363281250,0.0693359375,0.0537109375,3.5095214844,7.1411132812,2.0599365234
0.6480221748,-0.7363281250,0.0693359375,0.0537109375,4.2724609375,7.1258544922,2.1057128906
0.6505930424,-0.7412109375,0.0688476562,0.0317382812,4.2724609375,7.1258544922,2.1057128906
0.6531560421,-0.7412109375,0.0688476562,0.0317382812,4.7302246094,7.1258544922,2.2125244141
0.6557250023,-0.7412109375,0.0688476562,0.0317382812,4.7302246094,7.1258544922,2.2125244141
0.6583340168,-0.7412109375,0.0688476562,0.0317382812,4.4097900391,7.4768066406,1.9836425781
0.6608970165,-0.7358398438,0.0668945312,0.0312500000,4.4097900391,7.4768066406,1.9836425781
0.6634681225,-0.7358398438,0.0668945312,0.0312500000,4.0588378906,7.5531005859,2.1057128906
0.6660301685,-0.7358398438,0.0668945312,0.0312500000,4.0588378906,7.5531005859,2.1057128906
0.6686420441,-0.7358398438,0.0668945312,0.0312500000,3.7384033203,7.6141357422,1.8615722656
0.6712141037,-0.7348632812,0.0683593750,0.0195312500,3.7384033203,7.6141357422,1.8615722656
0.6737790108,-0.7348632812,0.0683593750,0.0195312500,3.1280517578,7.8277587891,1.9226074219
0.6763441563,-0.7348632812,0.0683593750,0.0195312500,3.1280517578,7.8277587891,1.9226074219
0.6791200638,-0.7348632812,0.0683593750,0.0180664062,3.1280517578,8.2397460938,1.6174316406
0.6818091869,-0.7407226562,0.0629882812,0.0180664062,1.4190673828,8.2397460938,1.6174316406
0.6845090389,-0.7407226562,0.0629882812,0.0180664062,1.4190673828,8.7127685547,1.8768310547
0.6872000694,-0.7407226562,0.0629882812,0.0180664062,0.5493164062,8.7127685547,1.8768310547
0.6900491714,-0.7407226562,0.0610351562,0.0214843750,0.1220703125,9.0026855469,2.3345947266
0.6927549839,-0.7407226562,0.0610351562,0.0214843750,0.1220703125,9.0026855469,2.3345947266
0.6954481602,-0.7407226562,0.0610351562,0.0214843750,-0.6866455078,9.5062255859,2.5482177734
0.6982891560,-0.7407226562,0.0610351562,0.0214843750,-0.6866455078,9.5062255859,2.5482177734
0.7009501457,-0.7363281250,0.0571289062,0.0322265625,-0.4730224609,9.9487304688,2.8076171875
0.7038600445,-0.7363281250,0.0571289062,0.0322265625,-0.4730224609,9.9487304688,2.8076171875
0.7064390182,-0.7363281250,0.0571289062,0.0322265625,-0.0305175781,9.6740722656,3.8299560547
0.7090811729,-0.7363281250,0.0571289062,0.0322265625,-0.0305175781,9.6740722656,3.8299560547
0.7116420269,-0.7387695312,0.0498046875,0.0195312500,-0.0305175781,9.4604492188,4.2114257812
0.7142050266,-0.7387695312,0.0498046875,0.0195312500,0.5340576172,9.4604492188,4.2114257812
0.7167670727,-0.7387695312,0.0498046875,0.0195312500,0.5340576172,9.4604492188,4.7912597656
0.7193381786,-0.7387695312,0.0498046875,0.0195312500,1.4495849609,9.4909667969,4.7912597656
0.7218990326,-0.7363281250,0.0463867188,0.0224609375,1.4495849609,9.4909667969,4.7912597656
0.7244570255,-0.7363281250,0.0463867188,0.0224609375,2.2125244141,9.8419189453,5.6610107422
0.7270200253,-0.7363281250,0.0463867188,0.0224609375,2.2125244141,9.8419189453,5.6610107422
0.7296290398,-0.7363281250,0.0463867188,0.0312500000,2.7923583984,10.0708007812,6.7138671875
0.7321891785,-0.7416992188,0.0336914062,0.0312500000,2.7923583984,10.0708007812,6.7138671875
0.7347581387,-0.7416992188,0.0336914062,0.0312500000,3.0670166016,10.0708007812,7.4462890625
0.7373220921,-0.7416992188,0.0336914062,0.0312500000,3.0670166016,10.0708007812,7.4462890625
0.7398979664,-0.7416992188,0.0336914062,0.0366210938,2.7160644531,10.0097656250,8.1024169922
0.7424709797,-0.7416992188,0.0249023438,0.0366210938,2.7160644531,10.0097656250,8.1024169922
0.7450451851,-0.7416992188,0.0249023438,0.0366210938,2.9144287109,10.2996826172,9.1857910156
0.7476880550,-0.7416992188,0.0249023438,0.0366210938,2.9144287109,10.2996826172,9.1857910156
0.7502610683,-0.7416992188,0.0209960938,0.0288085938,2.5482177734,10.8947753906,10.4522705078
0.7529430389,-0.7480468750,0.0209960938,0.0288085938,2.5482177734,10.8947753906,10.4522705078
0.7555201054,-0.7480468750,0.0209960938,0.0288085938,2.5482177734,10.9558105469,11.9018554688
0.7582759857,-0.7480468750,0.0209960938,0.0288085938,2.5482177734,10.9558105469,11.9018554688
0.7609779835,-0.7558593750,0.0229492188,0.0307617188,2.7770996094,11.1083984375,13.4124755859
0.7636811733,-0.7558593750,0.0229492188,0.0307617188,2.7770996094,11.1083984375,13.4124755859
0.7663850784,-0.7558593750,0.0229492188,0.0307617188,1.8463134766,11.5509033203,14.5263671875
0.7690491676,-0.7558593750,0.0229492188,0.0307617188,1.8463134766,11.5509033203,14.5263671875
0.7716159821,-0.7451171875,0.0136718750,0.0371093750,1.8463134766,12.1612548828,15.9759521484
0.7741870880,-0.7451171875,0.0136718750,0.0371093750,1.4343261719,12.1612548828,15.9759521484
0.7767601013,-0.7451171875,0.0136718750,0.0371093750,1.4343261719,12.1459960938,17.9443359375
0.7794921398,-0.7451171875,0.0136718750,0.0371093750,1.8615722656,12.1459960938,17.9443359375
0.7821941376,-0.7451171875,0.0185546875,0.0195312500,1.8615722656,12.1459960938,19.7296142578
0.7849011421,-0.7451171875,0.0185546875,0.0195312500,1.6326904297,12.2375488281,19.7296142578
0.7876169682,-0.7451171875,0.0185546875,0.0195312500,1.6326904297,12.2375488281,21.1181640625
0.7903280258,-0.7451171875,0.0185546875,0.0244140625,1.4801025391,12.4359130859,21.1181640625
0.7930321693,-0.7485351562,0.0136718750,0.0244140625,1.4801025391,12.4359130859,22.8881835938
0.7957351208,-0.7485351562,0.0136718750,0.0244140625,1.1291503906,12.1002197266,22.8881835938
0.7984530926,-0.7485351562,0.0136718750,0.0244140625,1.1291503906,12.1002197266,24.5819091797
0.8011519909,-0.7514648438,0.0043945312,0.0209960938,1.2512207031,12.8784179688,24.5819091797
0.8038551807,-0.7514648438,0.0043945312,0.0209960938,1.2512207031,12.8784179688,26.7639160156
0.8065581322,-0.7514648438,0.0043945312,0.0209960938,1.6479492188,13.1072998047,26.7639160156
0.8092770576,-0.7514648438,0.0043945312,0.0209960938,1.6479492188,13.1072998047,29.4189453125
0.8119750023,-0.7583007812,0.0126953125,0.0097656250,1.4190673828,13.1378173828,29.4189453125
0.8147590160,-0.7583007812,0.0126953125,0.0097656250,1.4190673828,13.1378173828,31.8450927734
0.8180150986,-0.7583007812,0.0126953125,0.0097656250,0.7324218750,13.3361816406,31.8450927734
0.8205950260,-0.7583007812,0.0126953125,0.0039062500,0.7324218750,13.1225585938,34.9121093750
0.8231661320,-0.7700195312,0.0092773438,0.0039062500,1.3580322266,13.1225585938,34.9121093750
0.8257410526,-0.7700195312,0.0092773438,0.0039062500,1.3580322266,13.1225585938,37.7349853516
0.8284001350,-0.7700195312,0.0092773438,0.0039062500,2.0294189453,13.0767822266,37.7349853516
0.8310999870,-0.7700195312,0.0029296875,0.0019531250,2.0294189453,13.0767822266,40.2526855469
0.8338041306,-0.7768554688,0.0029296875,0.0019531250,1.9683837891,13.1530761719,40.2526855469
0.8365080357,-0.7768554688,0.0029296875,0.0019531250,1.9683837891,13.1530761719,43.3807373047
0.8392250538,-0.7768554688,0.0029296875,0.0019531250,2.4261474609,13.1378173828,43.3807373047
0.8419291973,-0.7690429688,-0.0166015625,-0.0019531250,2.4261474609,13.1378173828,46.7071533203
0.8446321487,-0.7690429688,-0.0166015625,-0.0019531250,2.0141601562,13.2598876953,46.7071533203
0.8473479748,-0.7690429688,-0.0166015625,-0.0019531250,2.0141601562,13.2598876953,50.6286621094
0.8499209881,-0.7690429688,-0.0166015625,-0.0019531250,2.1209716797,13.2598876953,50.6286621094
0.8524961472,-0.7612304688,-0.0200195312,-0.0043945312,2.1209716797,13.2598876953,54.5349121094
0.8550729752,-0.7612304688,-0.0200195312,-0.0043945312,2.1972656250,13.3514404297,54.4281005859
0.8576521873,-0.7612304688,-0.0200195312,-0.0043945312,2.1972656250,13.3514404297,54.4281005859
0.8602252007,-0.7612304688,-0.0200195312,-0.0043945312,1.5716552734,12.7868652344,58.2122802734
0.8627991676,-0.7792968750,-0.0195312500,0.0083007812,1.5716552734,12.7868652344,58.2122802734
0.8653771877,-0.7792968750,-0.0195312500,0.0083007812,0.7324218750,12.3901367188,61.5997314453
0.8680760860,-0.7792968750,-0.0195312500,0.0083007812,0.7324218750,12.3901367188,61.5997314453
0.8706541061,-0.7792968750,-0.0195312500,0.0083007812,0.5035400391,12.7410888672,65.9942626953
0.8732221127,-0.7939453125,-0.0302734375,0.0058593750,0.5035400391,12.7410888672,65.9942626953
0.8757979870,-0.7939453125,-0.0302734375,0.0058593750,-0.3509521484,13.0462646484,70.7550048828
0.8785171509,-0.7939453125,-0.0302734375,0.0058593750,-0.3509521484,13.0462646484,70.7550048828
0.8813350201,-0.7939453125,-0.0302734375,0.0268554688,-1.3732910156,12.8936767578,74.7528076172
0.8840410709,-0.8041992188,-0.0351562500,0.0268554688,-1.3732910156,12.8936767578,74.7528076172
0.8867449760,-0.8041992188,-0.0351562500,0.0268554688,-3.4790039062,12.3138427734,78.8574218750
0.8894610405,-0.8041992188,-0.0351562500,0.0268554688,-3.4790039062,12.3138427734,78.8574218750
0.8921670914,-0.8291015625,-0.0458984375,0.0385742188,-5.2795410156,11.2609863281,83.3129882812
0.8948659897,-0.8291015625,-0.0458984375,0.0385742188,-5.2795410156,11.2609863281,83.3129882812
0.8975851536,-0.8291015625,-0.0458984375,0.0385742188,-7.1868896484,10.0860595703,87.8143310547
0.9002909660,-0.8291015625,-0.0458984375,0.0385742188,-7.1868896484,10.0860595703,87.8143310547
0.9030370712,-0.8569335938,-0.0244140625,0.0600585938,-9.6893310547,8.6212158203,92.0104980469
0.9056050777,-0.8569335938,-0.0244140625,0.0600585938,-9.6893310547,8.6212158203,92.0104980469
0.9082710743,-0.8569335938,-0.0244140625,0.0600585938,-11.5966796875,6.7596435547,96.4813232422
0.9108521938,-0.8569335938,-0.0244140625,0.0600585938,-11.5966796875,6.7596435547,96.4813232422
0.9139909744,-0.9082031250,0.0322265625,0.0791015625,-11.2304687500,5.1574707031,99.9145507812
0.9165689945,-0.9082031250,0.0322265625,0.0791015625,-11.2304687500,5.1574707031,99.9145507812
0.9192399979,-0.9082031250,0.0322265625,0.0791015625,-8.7127685547,3.4179687500,103.0120849609
0.9218060970,-0.9082031250,0.1572265625,0.1313476562,-8.7127685547,3.4179687500,103.0120849609
0.9243800640,-0.9799804688,0.1342773438,0.1313476562,-6.3018798828,1.8005371094,106.3995361328
0.9269402027,-0.9799804688,0.1342773438,0.1313476562,-6.3018798828,1.8005371094,106.3995361328
0.9295179844,-0.9799804688,0.1342773438,0.1313476562,-2.3956298828,1.2359619141,108.5815429688
0.9320871830,-0.9799804688,0.1420898438,0.2446289062,-2.4566650391,1.2359619141,108.5815429688
0.9346520901,-1.0834960938,0.1420898438,0.2446289062,-2.4566650391,1.2359619141,108.3831787109
0.9372591972,-1.0834960938,0.1420898438,0.2446289062,8.3770751953,2.3345947266,108.3831787109
0.9398300648,-1.0834960938,0.1420898438,0.2446289062,8.3770751953,2.3345947266,108.5662841797
0.9423930645,-1.2084960938,0.0449218750,0.2363281250,20.6756591797,3.6010742188,108.5662841797
0.9450781345,-1.1313476562,0.0449218750,0.2363281250,20.6756591797,3.6010742188,108.5662841797
0.9476480484,-1.1313476562,0.0449218750,0.2363281250,27.2979736328,4.1961669922,109.1613769531
0.9502191544,-1.1313476562,0.0449218750,0.2363281250,27.2979736328,4.1961669922,109.1613769531
0.9527950287,-1.0615234375,-0.0917968750,0.1953125000,28.9916992188,3.1433105469,108.7799072266
0.9553651810,-1.0615234375,-0.0917968750,0.1953125000,28.9916992188,3.1433105469,108.7799072266
0.9580821991,-1.0615234375,-0.0917968750,0.1953125000,24.7192382812,1.3275146484,107.1624755859
0.9606580734,-1.0615234375,-0.0917968750,0.1953125000,24.7192382812,1.3275146484,107.1624755859
0.9632341862,-0.9287109375,-0.2758789062,0.1718750000,14.7247314453,-0.6256103516,104.0954589844
0.9658141136,-0.9287109375,-0.2758789062,0.1718750000,14.7247314453,-0.6256103516,104.0954589844
0.9685440063,-0.9287109375,-0.2758789062,0.1718750000,4.3334960938,-3.9978027344,98.4954833984
0.9711151123,-0.9287109375,-0.2758789062,0.1718750000,4.3334960938,-3.9978027344,98.4954833984
0.9736921787,-0.7929687500,-0.2246093750,0.1289062500,-2.2735595703,-6.7596435547,91.1560058594
0.9762620926,-0.7929687500,-0.2246093750,0.1289062500,-2.2735595703,-6.7596435547,91.1560058594
0.9789681435,-0.7929687500,-0.2246093750,0.1289062500,-4.5013427734,-7.4462890625,83.5723876953
0.9816701412,-0.7929687500,-0.2246093750,0.1289062500,-4.5013427734,-7.4462890625,83.5723876953
0.9843711853,-0.7929687500,-0.2143554688,0.1152343750,-6.2255859375,-8.9263916016,76.7364501953
0.9870769978,-0.7929687500,-0.2143554688,0.1152343750,-6.2255859375,-8.9263916016,76.7364501953
0.9897930622,-0.7929687500,-0.2143554688,0.1152343750,-12.1612548828,-11.2915039062,68.3746337891
0.9925069809,-0.7929687500,-0.4643554688,0.1054687500,-12.1612548828,-11.2915039062,68.3746337891
0.9952189922,-0.7446289062,-0.4550781250,0.1054687500,-20.6604003906,-14.2364501953,59.2193603516
0.9979441166,-0.7446289062,-0.4550781250,0.1054687500,-20.6604003906,-14.2364501953,59.2193603516
1.0006530285,-0.7446289062,-0.4550781250,0.1054687500,-31.2042236328,-16.9525146484,50.8270263672
1.0035171509,-0.6967773438,-0.4995117188,0.0473632812,-31.2042236328,-16.9525146484,50.8270263672
1.0061001778,-0.6967773438,-0.4995117188,0.0473632812,-40.8935546875,-18.1579589844,43.0908203125
1.0090301037,-0.6967773438,-0.4995117188,0.0473632812,-40.8935546875,-18.1579589844,43.0908203125
1.0116991997,-0.6967773438,-0.4995117188,0.0473632812,-49.2248535156,-19.5312500000,34.1949462891
1.0148870945,-0.6372070312,-0.4238281250,0.0063476562,-49.2248535156,-19.5312500000,34.1949462891
1.0175449848,-0.6372070312,-0.4238281250,0.0063476562,-55.8166503906,-20.8740234375,24.2462158203
1.0201210976,-0.6372070312,-0.4238281250,0.0063476562,-55.8166503906,-20.8740234375,24.2462158203
1.0227000713,-0.6372070312,-0.4238281250,0.0039062500,-59.5703125000,-21.6522216797,12.4359130859
1.0252711773,-0.6005859375,-0.4174804688,0.0039062500,-59.5703125000,-21.6522216797,12.4359130859
1.0278551579,-0.6005859375,-0.4174804688,0.0039062500,-63.5070800781,-22.5067138672,-0.3051757812
1.0304269791,-0.6005859375,-0.4174804688,0.0039062500,-63.5070800781,-22.5067138672,-0.3051757812
1.0330011845,-0.6005859375,-0.4516601562,0.0136718750,-67.2454833984,-22.9187011719,-13.1988525391
1.0355720520,-0.5708007812,-0.4516601562,0.0136718750,-67.2454833984,-22.9187011719,-13.1988525391
1.0382440090,-0.5708007812,-0.4516601562,0.0136718750,-67.2454833984,-21.8811035156,-26.2145996094
1.0408160686,-0.5708007812,-0.4516601562,0.0136718750,-70.7550048828,-21.8811035156,-26.2145996094
1.0433940887,-0.5708007812,-0.4794921875,0.0068359375,-70.7550048828,-21.8811035156,-38.5284423828
1.0459661484,-0.5805664062,-0.4794921875,0.0068359375,-74.4171142578,-20.6146240234,-38.5284423828
1.0485410690,-0.5805664062,-0.4794921875,0.0068359375,-74.4171142578,-20.6146240234,-50.5828857422
1.0511121750,-0.5805664062,-0.4794921875,0.0068359375,-79.0557861328,-18.9208984375,-50.5828857422
1.0536801815,-0.6025390625,-0.4453125000,0.0092773438,-79.0557861328,-18.9208984375,-50.5828857422
1.0562570095,-0.6025390625,-0.4453125000,0.0092773438,-82.5042724609,-17.6086425781,-62.3779296875
1.0590090752,-0.6025390625,-0.4453125000,0.0092773438,-82.5042724609,-17.6086425781,-62.3779296875
1.0615921021,-0.6025390625,-0.4453125000,0.0092773438,-84.1674804688,-17.0745849609,-73.6236572266
1.0641741753,-0.6264648438,-0.3339843750,0.0058593750,-84.1674804688,-17.0745849609,-73.6236572266
1.0667560101,-0.6264648438,-0.3339843750,0.0058593750,-82.9162597656,-16.0980224609,-83.4808349609
1.0694541931,-0.6264648438,-0.3339843750,0.0058593750,-82.9162597656,-16.0980224609,-83.4808349609
1.0721311569,-0.6264648438,-0.3339843750,0.0058593750,-77.7435302734,-13.9160156250,-92.4835205078
1.0747141838,-0.6499023438,-0.1845703125,0.0122070312,-77.7435302734,-13.9160156250,-92.4835205078
1.0772809982,-0.6499023438,-0.1845703125,0.0122070312,-69.0002441406,-10.1928710938,-101.6387939453
1.0799880028,-0.6499023438,-0.1845703125,0.0122070312,-69.0002441406,-10.1928710938,-101.6387939453
1.0826990604,-0.6499023438,-0.1845703125,0.0122070312,-58.8836669922,-5.6915283203,-110.0921630859
1.0854051113,-0.7207031250,-0.1684570312,0.0283203125,-58.8836669922,-5.6915283203,-110.0921630859
1.0881509781,-0.7207031250,-0.1684570312,0.0283203125,-49.4079589844,-2.6092529297,-117.2637939453
1.0908510685,-0.7207031250,-0.1684570312,0.0283203125,-49.4079589844,-2.6092529297,-117.2637939453
1.0935561657,-0.7207031250,-0.1684570312,0.0283203125,-43.1365966797,-1.0223388672,-123.7030029297
1.0962600708,-0.7641601562,-0.1450195312,0.0283203125,-43.1365966797,-1.0223388672,-123.7030029297
1.0989761353,-0.7641601562,-0.1450195312,0.0283203125,-38.8793945312,-0.4577636719,-129.2266845703
1.1016809940,-0.7641601562,-0.1450195312,0.0283203125,-38.8793945312,-0.4577636719,-129.2266845703
1.1043870449,-0.8037109375,-0.1069335938,0.0415039062,-34.5001220703,0.7171630859,-133.9721679688
1.1070940495,-0.8037109375,-0.1069335938,0.0415039062,-34.5001220703,0.7171630859,-133.9721679688
1.1096870899,-0.8037109375,-0.1069335938,0.0415039062,-30.1361083984,2.3498535156,-138.9312744141
1.1122601032,-0.8037109375,-0.1069335938,0.0415039062,-30.1361083984,2.3498535156,-138.9312744141
1.1148431301,-0.8320312500,-0.0727539062,0.0468750000,-26.1688232422,4.3029785156,-143.4783935547
1.1174609661,-0.8320312500,-0.0727539062,0.0468750000,-26.1688232422,4.3029785156,-143.4783935547
1.1200301647,-0.8320312500,-0.0727539062,0.0468750000,-22.2625732422,5.3863525391,-147.1557617188
1.1226031780,-0.8320312500,-0.0727539062,0.0468750000,-23.2849121094,5.3863525391,-147.1557617188
1.1253521442,-0.8403320312,-0.0639648438,0.0458984375,-23.2849121094,5.7983398438,-150.1922607422
1.1282269955,-0.8403320312,-0.0639648438,0.0458984375,-21.5911865234,5.7983398438,-150.1922607422
1.1309289932,-0.8403320312,-0.0639648438,0.0458984375,-22.0184326172,4.8675537109,-153.0761718750
1.1336271763,-0.8403320312,-0.0639648438,0.0468750000,-22.0184326172,4.8675537109,-153.0761718750
1.1363341808,-0.8544921875,-0.0644531250,0.0468750000,-25.9246826172,3.7689208984,-154.8309326172
1.1391592026,-0.8544921875,-0.0644531250,0.0468750000,-24.2309570312,3.7689208984,-154.8309326172
1.1418659687,-0.8544921875,-0.0644531250,0.0468750000,-27.0538330078,2.7923583984,-156.8756103516
1.1445770264,-0.8740234375,-0.0434570312,0.0366210938,-27.0538330078,2.7923583984,-156.8756103516
1.1472890377,-0.8740234375,-0.0434570312,0.0366210938,-30.8990478516,1.5869140625,-157.6232910156
1.1500010490,-0.8740234375,-0.0434570312,0.0366210938,-30.8990478516,1.5869140625,-157.6232910156
1.1527061462,-0.8740234375,-0.0434570312,0.0366210938,-35.0036621094,0.7629394531,-158.1420898438
1.1554331779,-0.8916015625,-0.0312500000,0.0341796875,-35.0036621094,0.7629394531,-158.1420898438
1.1581192017,-0.8916015625,-0.0312500000,0.0341796875,-38.9099121094,0.1068115234,-158.1115722656
1.1606941223,-0.8916015625,-0.0312500000,0.0341796875,-38.4063720703,0.1068115234,-158.1115722656
1.1632680893,-0.8916015625,-0.0312500000,0.0341796875,-38.4063720703,-3.7994384766,-158.4320068359
1.1658430099,-0.9086914062,-0.0302734375,0.0434570312,-41.5496826172,-1.0375976562,-158.4320068359
1.1684269905,-0.9086914062,-0.0302734375,0.0434570312,-41.5496826172,-1.0375976562,-158.8439941406
1.1710021496,-0.9086914062,-0.0302734375,0.0434570312,-44.9218750000,-1.6326904297,-158.8439941406
1.1735761166,-0.9086914062,-0.0302734375,0.0434570312,-44.9218750000,-1.6326904297,-158.8439941406
1.1761519909,-0.9091796875,-0.0166015625,0.0527343750,-47.6074218750,-1.8920898438,-158.7677001953
1.1788680553,-0.9091796875,-0.0166015625,0.0527343750,-47.6074218750,-1.8920898438,-158.7677001953
1.1814441681,-0.9091796875,-0.0166015625,0.0527343750,-49.7741699219,-2.2125244141,-158.8897705078
1.1840209961,-0.9091796875,-0.0166015625,0.0527343750,-49.7741699219,-2.2125244141,-158.8897705078
1.1865940094,-0.9116210938,0.0083007812,0.0551757812,-50.9338378906,-1.7242431641,-157.9589843750
1.1893620491,-0.9116210938,0.0083007812,0.0551757812,-50.9338378906,-1.7242431641,-157.9589843750
1.1920690536,-0.9116210938,0.0083007812,0.0551757812,-51.7578125000,-1.2359619141,-156.8756103516
1.1947731972,-0.9116210938,0.0507812500,0.0502929688,-51.7578125000,-1.2359619141,-156.8756103516
1.1975240707,-0.9160156250,0.0507812500,0.0502929688,-53.0090332031,-0.5645751953,-154.8614501953
1.2002329826,-0.9160156250,0.0507812500,0.0502929688,-53.0090332031,-0.5645751953,-154.8614501953
1.2030451298,-0.9160156250,0.0507812500,0.0502929688,-54.0008544922,0.1831054688,-152.0233154297
1.2057530880,-0.9233398438,0.0874023438,0.0576171875,-54.0008544922,0.1831054688,-152.0233154297
1.2084641457,-0.9233398438,0.0874023438,0.0576171875,-53.4973144531,1.0223388672,-148.7579345703
1.2111690044,-0.9233398438,0.0874023438,0.0576171875,-53.4973144531,1.0223388672,-148.7579345703
1.2138772011,-0.9233398438,0.0874023438,0.0576171875,-52.5512695312,1.4495849609,-145.5688476562
1.2165811062,-0.8930664062,0.1171875000,0.0522460938,-52.5512695312,1.4495849609,-145.5688476562
1.2191910744,-0.8930664062,0.1171875000,0.0522460938,-52.0324707031,1.7242431641,-141.5557861328
1.2217640877,-0.8930664062,0.1171875000,0.0522460938,-52.0324707031,1.7242431641,-141.5557861328
1.2243402004,-0.8930664062,0.1171875000,0.0522460938,-51.3916015625,2.3345947266,-137.9241943359
1.2269120216,-0.8823242188,0.1044921875,0.0659179688,-51.3916015625,2.3345947266,-137.9241943359
1.2295591831,-0.8823242188,0.1044921875,0.0659179688,-49.4689941406,2.9907226562,-134.6740722656
1.2321300507,-0.8823242188,0.1044921875,0.0659179688,-49.4689941406,2.9907226562,-134.6740722656
1.2347080708,-0.8823242188,0.1044921875,0.0561523438,-47.8820800781,3.1433105469,-131.3476562500
1.2374091148,-0.8671875000,0.0844726562,0.0561523438,-47.8820800781,3.1433105469,-131.3476562500
1.2400841713,-0.8671875000,0.0844726562,0.0561523438,-47.7142333984,2.8228759766,-127.7313232422
1.2427701950,-0.8671875000,0.0844726562,0.0561523438,-47.7142333984,2.8228759766,-127.7313232422
1.2455000877,-0.8671875000,0.0805664062,0.0644531250,-46.8902587891,3.3264160156,-124.4201660156
1.2482261658,-0.8466796875,0.0805664062,0.0644531250,-46.8902587891,3.3264160156,-124.4201660156
1.2509291172,-0.8466796875,0.0805664062,0.0644531250,-46.1120605469,3.2653808594,-120.9259033203
1.2536361217,-0.8466796875,0.0805664062,0.0644531250,-46.1120605469,3.2653808594,-120.9259033203
1.2563450336,-0.8291015625,0.1079101562,0.0566406250,-45.1354980469,3.2806396484,-117.0654296875
1.2590579987,-0.8291015625,0.1079101562,0.0566406250,-45.1354980469,3.2806396484,-117.0654296875
1.2617661953,-0.8291015625,0.1079101562,0.0566406250,-44.4793701172,2.9144287109,-112.6861572266
1.2644731998,-0.8291015625,0.1079101562,0.0566406250,-44.4793701172,2.9144287109,-112.6861572266
1.2672901154,-0.7871093750,0.1372070312,0.0429687500,-44.4335937500,2.3193359375,-107.8186035156
1.2700049877,-0.7871093750,0.1372070312,0.0429687500,-44.4335937500,2.3193359375,-107.8186035156
1.2727110386,-0.7871093750,0.1372070312,0.0429687500,-44.0368652344,2.1972656250,-102.9357910156
1.2754590511,-0.7871093750,0.1494140625,0.0380859375,-44.0368652344,2.1972656250,-102.9357910156
1.2785201073,-0.7553710938,0.1494140625,0.0380859375,-44.1894531250,2.0141601562,-98.1597900391
1.2810971737,-0.7553710938,0.1494140625,0.0380859375,-44.1894531250,2.0141601562,-98.1597900391
1.2836751938,-0.7553710938,0.1494140625,0.0380859375,-44.9523925781,1.6021728516,-93.0786132812
1.2862491608,-0.7416992188,0.1660156250,0.0507812500,-44.9523925781,1.6021728516,-93.0786132812
1.2889530659,-0.7416992188,0.1660156250,0.0507812500,-45.0439453125,0.8239746094,-88.1347656250
1.2916631699,-0.7416992188,0.1660156250,0.0507812500,-45.0439453125,0.8239746094,-88.1347656250
1.2943661213,-0.7416992188,0.1660156250,0.0507812500,-45.2423095703,-0.2746582031,-82.9162597656
1.2970731258,-0.7001953125,0.1884765625,0.0537109375,-45.2423095703,-0.2746582031,-82.9162597656
1.2997891903,-0.7001953125,0.1884765625,0.0537109375,-45.5322265625,-1.2664794922,-77.6519775391
1.3024899960,-0.7001953125,0.1884765625,0.0537109375,-45.5322265625,-1.2664794922,-77.6519775391
1.3051941395,-0.7001953125,0.1884765625,0.0537109375,-45.6085205078,-2.7923583984,-72.6165771484
1.3079459667,-0.6601562500,0.2265625000,0.0610351562,-45.6085205078,-2.7923583984,-72.6165771484
1.3106491566,-0.6601562500,0.2265625000,0.0610351562,-45.5322265625,-4.3029785156,-66.9860839844
1.3135111332,-0.6601562500,0.2265625000,0.0610351562,-45.5322265625,-4.3029785156,-66.9860839844
1.3160841465,-0.6601562500,0.2802734375,0.0615234375,-45.6542968750,-5.9204101562,-60.7147216797
1.3187260628,-0.6440429688,0.2802734375,0.0615234375,-45.6542968750,-5.9204101562,-60.7147216797
1.3212900162,-0.6440429688,0.2802734375,0.0615234375,-45.6542968750,-6.5765380859,-54.9011230469
1.3238620758,-0.6440429688,0.2802734375,0.0615234375,-45.2270507812,-6.5765380859,-54.9011230469
1.3264341354,-0.6230468750,0.3271484375,0.0712890625,-45.2270507812,-10.4827880859,-48.7976074219
1.3290731907,-0.6230468750,0.3271484375,0.0712890625,-44.0521240234,-7.8735351562,-48.7976074219
1.3317580223,-0.6230468750,0.3271484375,0.0712890625,-44.0521240234,-7.8735351562,-41.7938232422
1.3343341351,-0.6230468750,0.3271484375,0.0712890625,-42.7246093750,-9.1094970703,-41.7938232422
1.3369050026,-0.6147460938,0.3876953125,0.0703125000,-42.7246093750,-9.1094970703,-33.9813232422
1.3394830227,-0.6147460938,0.3876953125,0.0703125000,-41.2750244141,-10.3302001953,-34.9578857422
1.3420560360,-0.6147460938,0.3876953125,0.0703125000,-41.2750244141,-10.3302001953,-34.9578857422
1.3446271420,-0.6147460938,0.3876953125,0.0703125000,-39.0777587891,-11.0015869141,-28.0914306641
1.3472030163,-0.6005859375,0.4101562500,0.0893554688,-39.0777587891,-11.0015869141,-28.0914306641
1.3498210907,-0.6005859375,0.4101562500,0.0893554688,-36.6821289062,-11.0015869141,-21.7437744141
1.3523991108,-0.6005859375,0.4101562500,0.0893554688,-36.6821289062,-11.0015869141,-21.7437744141
1.3549761772,-0.6005859375,0.4101562500,0.0893554688,-34.1949462891,-11.5203857422,-15.1062011719
1.3576991558,-0.5903320312,0.4375000000,0.1093750000,-34.1949462891,-11.5203857422,-15.1062011719
1.3602840900,-0.5903320312,0.4375000000,0.1093750000,-31.2194824219,-12.4206542969,-8.6212158203
1.3628580570,-0.5903320312,0.4375000000,0.1093750000,-31.2194824219,-12.4206542969,-8.6212158203
1.3654291630,-0.5903320312,0.4375000000,0.1093750000,-29.0679931641,-13.6718750000,-1.2664794922
1.3684420586,-0.5927734375,0.4589843750,0.1391601562,-29.0679931641,-13.6718750000,6.5460205078
1.3729631901,-0.5927734375,0.4589843750,0.1391601562,-27.5421142578,-15.9759521484,5.8135986328
1.3756752014,-0.5927734375,0.4589843750,0.1391601562,-23.6358642578,-18.4173583984,13.5192871094
1.3783991337,-0.5942382812,0.4868164062,0.1479492188,-24.6124267578,-18.4173583984,13.5192871094
1.3811061382,-0.5942382812,0.4868164062,0.1479492188,-20.7061767578,-20.7366943359,21.5454101562
1.3838109970,-0.5942382812,0.4868164062,0.1479492188,-21.6217041016,-20.7366943359,21.5454101562
1.3865191936,-0.5942382812,0.5239257812,0.1708984375,-17.7154541016,-22.4456787109,29.5715332031
1.3892431259,-0.6049804688,0.5239257812,0.1708984375,-18.7225341797,-22.4456787109,29.5715332031
1.3919479847,-0.6049804688,0.5239257812,0.1708984375,-18.7225341797,-24.6887207031,37.7044677734
1.3946499825,-0.6049804688,0.5239257812,0.1708984375,-14.8010253906,-24.6887207031,37.7044677734
1.3975770473,-0.6127929688,0.5463867188,0.1914062500,-10.8947753906,-26.9012451172,46.1883544922
1.4002861977,-0.6127929688,0.5463867188,0.1914062500,-10.9710693359,-26.9012451172,46.1883544922
1.4029991627,-0.6127929688,0.5463867188,0.1914062500,-7.0648193359,-28.7780761719,54.1687011719
1.4057090282,-0.6127929688,0.5463867188,0.1914062500,-7.3547363281,-28.7780761719,54.1687011719
1.4084281921,-0.6293945312,0.5605468750,0.1884765625,-7.3547363281,-30.8074951172,61.9659423828
1.4111311436,-0.6293945312,0.5605468750,0.1884765625,-4.7454833984,-30.8074951172,61.9659423828
1.4139080048,-0.6293945312,0.5605468750,0.1884765625,-0.8392333984,-31.7535400391,69.0612792969
1.4166150093,-0.6293945312,0.5605468750,0.2006835938,-1.6326904297,-31.7535400391,69.0612792969
1.4193930626,-0.6416015625,0.5927734375,0.2006835938,2.0141601562,-33.8745117188,75.7751464844
1.4220991135,-0.6416015625,0.5927734375,0.2006835938,2.0141601562,-33.8745117188,75.7751464844
1.4250390530,-0.6416015625,0.5927734375,0.2006835938,5.0811767578,-36.3006591797,80.5206298828
1.4284579754,-0.6967773438,0.3129882812,0.2246093750,5.0811767578,-36.3006591797,80.5206298828
1.4310290813,-0.6967773438,0.3129882812,0.2246093750,0.4425048828,-37.0178222656,75.9429931641
1.4335970879,-0.6967773438,0.3129882812,0.2246093750,0.4425048828,-37.0178222656,75.9429931641
1.4361619949,-0.6967773438,0.3129882812,0.2246093750,5.6762695312,-27.3284912109,70.0988769531
1.4388551712,-1.0244140625,-0.3334960938,-0.1118164062,5.6762695312,-27.3284912109,70.0988769531
1.4414260387,-1.0244140625,-0.3334960938,-0.1118164062,6.4392089844,-17.0898437500,66.4978027344
1.4439940453,-1.0244140625,-0.3334960938,-0.1118164062,6.4392089844,-17.0898437500,66.4978027344
1.4465680122,-1.0244140625,-0.3334960938,-0.2368164062,-5.2795410156,-12.2222900391,55.1757812500
1.4491460323,-0.9316406250,-1.1083984375,-0.1982421875,-5.4931640625,-12.2222900391,55.1757812500
1.4517149925,-0.9316406250,-1.1083984375,-0.1982421875,-5.4931640625,-4.4097900391,42.7703857422
1.4542820454,-0.9316406250,-1.1083984375,-0.1982421875,-6.8664550781,-5.7678222656,42.7703857422
1.4568400383,-0.9316406250,-1.1083984375,-0.4414062500,-6.8664550781,-5.7678222656,44.6929931641
1.4594500065,-1.1284179688,-1.0512695312,-0.4414062500,-21.2249755859,-2.6550292969,44.6929931641
1.4621341228,-1.1284179688,-1.0512695312,-0.4414062500,-21.2249755859,-2.6550292969,56.4117431641
1.4647021294,-1.1284179688,-1.0512695312,-0.4414062500,-59.7381591797,-4.1046142578,58.3038330078
1.4672980309,-1.1284179688,-0.3593750000,-0.1108398438,-59.7381591797,-4.1046142578,58.3038330078
1.4698641300,-1.1430664062,-0.3593750000,-0.1108398438,-89.7369384766,-5.4321289062,72.3114013672
1.4724321365,-1.1430664062,-0.3593750000,-0.1108398438,-89.7369384766,-5.4321289062,72.3114013672
1.4750061035,-1.1430664062,-0.3593750000,-0.1108398438,-107.8338623047,-8.9721679688,88.8366699219
1.4776921272,-1.1430664062,0.2592773438,0.1196289062,-107.8338623047,-8.9721679688,88.8366699219
1.4802651405,-1.1333007812,0.2592773438,0.1196289062,-116.5008544922,-14.2669677734,100.5401611328
1.4828400612,-1.1333007812,0.2592773438,0.1196289062,-116.5008544922,-14.2669677734,100.5401611328
1.4854130745,-1.1333007812,0.2592773438,0.1196289062,-104.8431396484,-16.0827636719,107.3150634766
1.4880771637,-1.1918945312,0.4233398438,-0.0336914062,-104.8431396484,-16.0827636719,107.3150634766
1.4906501770,-1.1918945312,0.4233398438,-0.0336914062,-88.0432128906,-17.1356201172,112.1520996094
1.4932270050,-1.1918945312,0.4233398438,-0.0336914062,-88.0432128906,-17.1356201172,112.1520996094
1.4958031178,-1.1918945312,0.4233398438,-0.0336914062,-74.6765136719,-18.5089111328,112.5030517578
1.4983839989,-1.0468750000,0.3754882812,-0.1293945312,-74.6765136719,-18.5089111328,112.5030517578
1.5009601116,-1.0468750000,0.3754882812,-0.1293945312,-62.9577636719,-21.6979980469,108.7341308594
1.5035290718,-1.0468750000,0.3754882812,-0.1293945312,-64.5294189453,-21.6979980469,108.7341308594
1.5060980320,-1.0468750000,0.3754882812,-0.1293945312,-64.5294189453,-25.6042480469,103.8970947266
1.5087981224,-0.8007812500,0.3232421875,-0.0117187500,-58.7615966797,-25.1617431641,103.8970947266
1.5115091801,-0.8007812500,0.3232421875,-0.0117187500,-58.7615966797,-25.1617431641,99.1821289062
1.5142190456,-0.8007812500,0.3232421875,-0.0117187500,-51.5136718750,-26.9165039062,99.1821289062
1.5169911385,-0.8007812500,0.3232421875,-0.0117187500,-51.5136718750,-27.9693603516,94.6197509766
1.5197169781,-0.6958007812,0.2983398438,-0.0092773438,-40.9088134766,-27.9693603516,94.6197509766
1.5223891735,-0.6958007812,0.2983398438,-0.0092773438,-33.0963134766,-29.0527343750,89.9658203125
1.5253779888,-0.6958007812,0.2983398438,-0.0092773438,-31.5704345703,-29.0527343750,89.9658203125
1.5279901028,-0.6958007812,0.2866210938,-0.0034179688,-31.5704345703,-28.6407470703,84.8693847656
1.5305690765,-0.6738281250,0.2866210938,-0.0034179688,-21.9421386719,-28.6407470703,84.8693847656
1.5331420898,-0.6738281250,0.2866210938,-0.0034179688,-21.9421386719,-28.6407470703,78.8574218750
1.5357141495,-0.6738281250,0.2866210938,-0.0034179688,-9.7503662109,-27.6947021484,78.8574218750
1.5383400917,-0.6738281250,0.2856445312,0.0810546875,-9.7503662109,-27.6947021484,71.0449218750
1.5409090519,-0.6342773438,0.2856445312,0.0810546875,1.1749267578,-27.6489257812,72.3724365234
1.5434839725,-0.6342773438,0.2856445312,0.0810546875,1.1749267578,-27.6489257812,72.3724365234
1.5460500717,-0.6342773438,0.2856445312,0.0810546875,10.9405517578,-28.5797119141,65.9332275391
1.5486750603,-0.6054687500,0.2485351562,0.2182617188,10.9405517578,-28.5797119141,65.9332275391
1.5512530804,-0.6054687500,0.2485351562,0.2182617188,18.2647705078,-30.6701660156,60.3485107422
1.5538220406,-0.6054687500,0.2485351562,0.2182617188,18.2647705078,-30.6701660156,60.3485107422
1.5563981533,-0.6054687500,0.2485351562,0.2182617188,25.0091552734,-33.5540771484,56.6253662109
1.5589830875,-0.7060546875,0.1752929688,0.2539062500,25.0091552734,-33.5540771484,56.6253662109
1.5615510941,-0.7060546875,0.1752929688,0.2539062500,30.6396484375,-34.1491699219,54.7485351562
1.5641250610,-0.7060546875,0.1752929688,0.2539062500,30.6396484375,-34.1491699219,54.7485351562
1.5666940212,-0.7060546875,0.1752929688,0.2539062500,34.0270996094,-32.6995849609,53.3905029297
1.5694131851,-0.8310546875,0.1352539062,0.1992187500,34.0270996094,-32.6995849609,53.3905029297
1.5719971657,-0.8310546875,0.1352539062,0.1992187500,35.6597900391,-31.9671630859,53.2379150391
1.5745761395,-0.8310546875,0.1352539062,0.1992187500,35.6597900391,-31.9671630859,53.2379150391
1.5771529675,-0.8310546875,0.1352539062,0.1992187500,35.6597900391,-33.9965820312,55.8471679688
1.5799350739,-0.8833007812,0.3046875000,0.2202148438,36.4074707031,-33.9965820312,55.8471679688
1.5826330185,-0.8833007812,0.3046875000,0.2202148438,40.3137207031,-36.0565185547,58.0596923828
1.5853459835,-0.8833007812,0.3046875000,0.2202148438,39.4897460938,-36.0565185547,58.0596923828
1.5881741047,-0.8833007812,0.3046875000,0.0864257812,52.4444580078,-32.4859619141,56.2286376953
1.5908861160,-0.9379882812,0.2343750000,0.0864257812,52.4444580078,-32.4859619141,56.2286376953
1.5935971737,-0.9379882812,0.2343750000,0.0864257812,59.4482421875,-27.3590087891,51.9714355469
1.5963029861,-0.9379882812,0.2343750000,0.0864257812,59.4482421875,-27.3590087891,51.9714355469
1.5989451408,-0.8129882812,0.1489257812,0.1259765625,55.5419921875,-27.2064208984,49.2858886719
1.6015260220,-0.7768554688,0.1489257812,0.1259765625,55.0994873047,-27.2064208984,49.2858886719
1.6040999889,-0.7768554688,0.1489257812,0.1259765625,55.0994873047,-31.1126708984,48.9501953125
1.6066820621,-0.7768554688,0.1489257812,0.1259765625,49.1790771484,-29.1900634766,48.9501953125
1.6094059944,-0.7563476562,0.1655273438,0.0786132812,49.1790771484,-29.1900634766,47.5769042969
1.6121191978,-0.7563476562,0.1655273438,0.0786132812,45.4559326172,-28.0151367188,47.5769042969
1.6148271561,-0.7563476562,0.1655273438,0.0786132812,45.4559326172,-24.1088867188,45.0439453125
1.6175470352,-0.7563476562,0.1655273438,0.0786132812,42.2363281250,-25.6042480469,45.0439453125
1.6202571392,-0.7500000000,0.1411132812,0.0698242188,42.2363281250,-25.6042480469,42.4957275391
1.6229710579,-0.7500000000,0.1411132812,0.0698242188,37.6281738281,-24.3530273438,42.4957275391
1.6256752014,-0.7500000000,0.1411132812,0.0698242188,37.6281738281,-24.3530273438,42.0379638672
1.6283941269,-0.7500000000,0.1411132812,0.1113281250,33.8897705078,-24.9786376953,42.0379638672
1.6311011314,-0.7485351562,0.1147460938,0.1113281250,33.8897705078,-24.9786376953,41.2597656250
1.6339921951,-0.7485351562,0.1147460938,0.1113281250,30.3344726562,-24.9786376953,41.2597656250
1.6366901398,-0.7485351562,0.1147460938,0.1113281250,30.3344726562,-23.3459472656,38.9556884766
1.6395411491,-0.7324218750,0.0820312500,0.1347656250,27.4505615234,-23.3459472656,38.9556884766
1.6422560215,-0.7324218750,0.0820312500,0.1347656250,27.4505615234,-22.8271484375,37.1856689453
1.6449701786,-0.7324218750,0.0820312500,0.1347656250,26.4434814453,-22.8271484375,37.1856689453
1.6476650238,-0.7324218750,0.0820312500,0.1347656250,26.4434814453,-22.8271484375,36.0870361328
1.6502451897,-0.7236328125,0.1020507812,0.1357421875,27.2521972656,-21.9726562500,36.0870361328
1.6529271603,-0.7236328125,0.1020507812,0.1357421875,27.2521972656,-21.9726562500,33.5845947266
1.6555080414,-0.7236328125,0.1020507812,0.1357421875,28.2287597656,-20.4467773438,33.5845947266
1.6581799984,-0.7236328125,0.1020507812,0.1357421875,28.2287597656,-20.4467773438,31.0821533203
1.6608891487,-0.7451171875,0.1127929688,0.1323242188,28.8238525391,-18.3258056641,31.0821533203
1.6636061668,-0.7451171875,0.1127929688,0.1323242188,28.8238525391,-18.3258056641,29.5410156250
1.6663131714,-0.7451171875,0.1127929688,0.1323242188,29.9835205078,-15.8843994141,29.5410156250
1.6689531803,-0.7451171875,0.1127929688,0.1215820312,29.9835205078,-15.8843994141,29.5410156250
1.6715340614,-0.7436523438,0.0942382812,0.1215820312,32.2113037109,-14.0380859375,27.9388427734
1.6741070747,-0.7436523438,0.0942382812,0.1215820312,32.2113037109,-14.0380859375,27.9388427734
1.6766860485,-0.7436523438,0.0942382812,0.1215820312,34.4390869141,-12.7105712891,26.0314941406
1.6792969704,-0.7436523438,0.0942382812,0.1054687500,34.4390869141,-12.7105712891,26.0314941406
1.6818771362,-0.7294921875,0.0917968750,0.1054687500,35.0341796875,-11.1236572266,24.6124267578
1.6844620705,-0.7294921875,0.0917968750,0.1054687500,35.0341796875,-11.1236572266,24.6124267578
1.6870400906,-0.7294921875,0.0917968750,0.1054687500,33.7371826172,-10.3454589844,23.5290527344
1.6897690296,-0.7294921875,0.0820312500,0.1264648438,33.7371826172,-10.3454589844,23.5290527344
1.6923520565,-0.7138671875,0.0820312500,0.1264648438,32.6538085938,-9.3994140625,22.7813720703
1.6949269772,-0.7138671875,0.0820312500,0.1264648438,32.6538085938,-9.3994140625,22.7813720703
1.6976501942,-0.7138671875,0.0820312500,0.1264648438,30.8074951172,-9.0332031250,22.1557617188
1.7002291679,-0.7138671875,0.0458984375,0.1000976562,30.8074951172,-9.0332031250,22.1557617188
1.7028090954,-0.7138671875,0.0458984375,0.1000976562,27.2674560547,-8.6212158203,22.0947265625
1.7053880692,-0.7138671875,0.0458984375,0.1000976562,27.2674560547,-8.6212158203,22.0947265625
1.7080161572,-0.7138671875,0.0458984375,0.1000976562,22.9644775391,-7.5988769531,22.4304199219
1.7107281685,-0.7153320312,0.0463867188,0.1005859375,22.9644775391,-7.5988769531,22.4304199219
1.7134339809,-0.7153320312,0.0463867188,0.1005859375,19.7753906250,-6.8664550781,22.1405029297
1.7162430286,-0.7153320312,0.0463867188,0.1005859375,19.7753906250,-6.8664550781,22.1405029297
1.7189610004,-0.7153320312,0.0463867188,0.1005859375,17.5018310547,-6.9427490234,22.2473144531
1.7217381001,-0.6992187500,0.0546875000,0.1015625000,17.5018310547,-6.9427490234,22.2473144531
1.7243120670,-0.6992187500,0.0546875000,0.1015625000,14.1601562500,-6.9732666016,22.1710205078
1.7268831730,-0.6992187500,0.0546875000,0.1015625000,14.1601562500,-6.9732666016,22.1710205078
1.7296950817,-0.6992187500,0.0546875000,0.1059570312,12.4969482422,-7.2326660156,21.7742919922
1.7323651314,-0.7114257812,0.0839843750,0.1059570312,12.4969482422,-7.2326660156,21.7742919922
1.7353720665,-0.7114257812,0.0839843750,0.1059570312,12.2070312500,-7.3699951172,21.4233398438
1.7379879951,-0.7114257812,0.0839843750,0.1059570312,12.2070312500,-7.3699951172,21.4233398438
1.7405641079,-0.6899414062,0.1049804688,0.1098632812,12.2070312500,-7.3089599609,21.2707519531
1.7431299686,-0.6899414062,0.1049804688,0.1098632812,12.4664306641,-7.3089599609,21.2707519531
1.7456960678,-0.6899414062,0.1049804688,0.1098632812,12.4664306641,-7.2021484375,20.8892822266
1.7483170033,-0.6899414062,0.1049804688,0.1098632812,13.4124755859,-7.2021484375,20.8892822266
1.7508900166,-0.6982421875,0.0957031250,0.1035156250,13.4124755859,-7.2021484375,20.0653076172
1.7534670830,-0.6982421875,0.0957031250,0.1035156250,13.7176513672,-7.8125000000,20.0653076172
1.7560360432,-0.6982421875,0.0957031250,0.1035156250,13.7176513672,-7.8125000000,20.0653076172
1.7586181164,-0.6982421875,0.0957031250,0.1035156250,13.6108398438,-7.3699951172,19.6228027344
1.7611861229,-0.7055664062,0.0844726562,0.1215820312,13.6108398438,-7.3699951172,19.6228027344
1.7637560368,-0.7055664062,0.0844726562,0.1215820312,13.1072998047,-6.8359375000,19.7143554688
1.7663280964,-0.7055664062,0.0844726562,0.1215820312,13.1072998047,-6.8359375000,19.7143554688
1.7689120770,-0.7055664062,0.0844726562,0.1215820312,11.8560791016,-6.7138671875,19.7448730469
1.7714800835,-0.6914062500,0.0849609375,0.1269531250,11.8560791016,-6.7138671875,19.7448730469
1.7740471363,-0.6914062500,0.0849609375,0.1269531250,9.0179443359,-6.4392089844,19.6075439453
1.7766160965,-0.6914062500,0.0849609375,0.1269531250,9.0179443359,-6.4392089844,19.6075439453
1.7792241573,-0.6914062500,0.0849609375,0.1269531250,6.4697265625,-6.0577392578,19.5465087891
1.7819061279,-0.6875000000,0.0874023438,0.1127929688,6.4697265625,-6.0577392578,19.5465087891
1.7844800949,-0.6875000000,0.0874023438,0.1127929688,4.0130615234,-5.2032470703,19.6533203125
1.7870471478,-0.6875000000,0.0874023438,0.1127929688,4.0130615234,-5.2032470703,19.6533203125
1.7898771763,-0.6875000000,0.0874023438,0.2377929688,2.5634765625,-4.0435791016,20.2941894531
1.7925810814,-0.6889648438,0.0917968750,0.1323242188,2.5634765625,-4.0435791016,20.2941894531
1.7952871323,-0.6889648438,0.0917968750,0.1323242188,1.5716552734,-3.3569335938,21.6369628906
1.7979781628,-0.6889648438,0.0917968750,0.1323242188,1.5716552734,-3.3569335938,21.6369628906
1.8005490303,-0.6889648438,0.0917968750,0.1562500000,1.0375976562,-3.5095214844,22.3541259766
1.8031260967,-0.6967773438,0.1215820312,0.1562500000,1.0375976562,-3.5095214844,22.3541259766
1.8056991100,-0.6967773438,0.1215820312,0.1562500000,1.0375976562,-3.1585693359,22.8271484375
1.8083760738,-0.6967773438,0.1215820312,0.1562500000,2.2583007812,-3.1585693359,22.8271484375
1.8110811710,-0.6967773438,0.1215820312,0.1323242188,2.2583007812,-2.8991699219,23.2696533203
1.8137781620,-0.7221679688,0.1215820312,0.1323242188,4.5166015625,-2.8991699219,23.2696533203
1.8164770603,-0.7221679688,0.1215820312,0.1323242188,4.5166015625,-3.1585693359,24.4140625000
1.8191950321,-0.7221679688,0.1215820312,0.1323242188,6.6528320312,-3.1585693359,24.4140625000
1.8218991756,-0.7241210938,0.0737304688,0.1035156250,6.6528320312,-4.0588378906,26.0314941406
1.8246061802,-0.7241210938,0.0737304688,0.1035156250,8.3770751953,-4.0588378906,26.0314941406
1.8273131847,-0.7241210938,0.0737304688,0.1035156250,8.3770751953,-5.2947998047,27.4505615234
1.8300161362,-0.7241210938,0.0737304688,0.1035156250,9.4299316406,-5.2947998047,27.4505615234
1.8327209949,-0.7270507812,-0.0126953125,0.0825195312,9.4299316406,-6.1645507812,28.0914306641
1.8354279995,-0.7270507812,-0.0126953125,0.0825195312,9.9639892578,-6.1645507812,28.0914306641
1.8381440639,-0.7270507812,-0.0126953125,0.0825195312,9.9639892578,-6.1645507812,28.8085937500
1.8408470154,-0.7270507812,-0.0126953125,0.0415039062,8.4838867188,-6.9885253906,28.8085937500
1.8436851501,-0.7509765625,-0.0473632812,0.0415039062,8.4838867188,-7.5988769531,30.1055908203
1.8465011120,-0.7509765625,-0.0473632812,0.0415039062,4.5166015625,-7.5988769531,30.1055908203
1.8494451046,-0.7509765625,-0.0473632812,0.0415039062,-0.3204345703,-7.5073242188,31.5246582031
1.8520221710,-0.7543945312,0.0390625000,0.0249023438,-0.3204345703,-7.5073242188,31.5246582031
1.8545961380,-0.7543945312,0.0390625000,0.0249023438,-0.3204345703,-7.7972412109,33.6456298828
1.8571691513,-0.7543945312,0.0390625000,0.0249023438,-4.3945312500,-7.7972412109,33.6456298828
1.8598761559,-0.7543945312,0.0390625000,0.0249023438,-4.3945312500,-11.7034912109,34.7290039062
1.8625810146,-0.7568359375,0.1000976562,0.0576171875,-6.7749023438,-8.5754394531,34.7290039062
1.8652839661,-0.7568359375,0.1000976562,0.0576171875,-6.7749023438,-8.5754394531,34.4238281250
1.8680000305,-0.7568359375,0.1000976562,0.0576171875,-6.2103271484,-9.5062255859,34.4238281250
1.8707020283,-0.7568359375,0.1000976562,0.0576171875,-6.2103271484,-9.5062255859,34.7442626953
1.8733980656,-0.7416992188,0.1225585938,0.0849609375,-4.1198730469,-8.9569091797,34.7442626953
1.8761069775,-0.7416992188,0.1225585938,0.0849609375,-4.1198730469,-8.9569091797,35.2172851562
1.8787510395,-0.7416992188,0.1225585938,0.0849609375,-1.6479492188,-8.2244873047,35.2172851562
1.8813221455,-0.7416992188,0.2475585938,0.1118164062,-1.6479492188,-8.2244873047,35.1562500000
1.8838911057,-0.7363281250,0.1430664062,0.1118164062,0.6866455078,-8.5754394531,35.1562500000
1.8864650726,-0.7363281250,0.1430664062,0.1118164062,0.6866455078,-8.5754394531,35.1562500000
1.8890790939,-0.7363281250,0.1430664062,0.1118164062,3.9520263672,-9.1247558594,35.4461669922
1.8916501999,-0.7363281250,0.1235351562,0.1655273438,3.9520263672,-9.1247558594,35.4461669922
1.8942229748,-0.7207031250,0.1235351562,0.1655273438,8.8958740234,-8.8653564453,36.1480712891
1.8967940807,-0.7207031250,0.1235351562,0.1655273438,8.8958740234,-8.8653564453,36.1480712891
1.8994061947,-0.7207031250,0.1235351562,0.1655273438,13.3056640625,-8.3465576172,35.9039306641
1.9019861221,-0.7207031250,0.1201171875,0.1513671875,13.3056640625,-8.3465576172,35.9039306641
1.9045591354,-0.7119140625,0.1201171875,0.1513671875,16.8609619141,-8.3923339844,36.3922119141
1.9071340561,-0.7119140625,0.1201171875,0.1513671875,16.8609619141,-8.3923339844,36.3922119141
1.9100379944,-0.7119140625,0.1201171875,0.1513671875,18.0969238281,-8.1329345703,37.2772216797
1.9127430916,-0.7265625000,0.0922851562,0.1181640625,18.0969238281,-8.1329345703,37.2772216797
1.9154469967,-0.7265625000,0.0922851562,0.1181640625,17.9290771484,-8.1329345703,38.9709472656
1.9181630611,-0.7265625000,0.0922851562,0.1181640625,17.9290771484,-8.1329345703,38.9709472656
1.9208631516,-0.7265625000,0.0922851562,0.1181640625,18.2495117188,-7.9040527344,40.6188964844
1.9235670567,-0.7387695312,0.0678710938,0.1318359375,18.2495117188,-7.9040527344,40.6188964844
1.9262700081,-0.7387695312,0.0678710938,0.1318359375,18.7683105469,-8.2092285156,42.5262451172
1.9289860725,-0.7387695312,0.0678710938,0.1318359375,18.7683105469,-8.2092285156,42.5262451172
1.9316911697,-0.7387695312,0.0678710938,0.1196289062,19.4549560547,-8.4991455078,44.2504882812
1.9343919754,-0.7529296875,0.0571289062,0.1196289062,19.4549560547,-8.4991455078,44.2504882812
1.9370989799,-0.7529296875,0.0571289062,0.1196289062,19.3634033203,-8.8195800781,46.6461181641
1.9398100376,-0.7529296875,0.0571289062,0.1196289062,19.3634033203,-8.8195800781,46.6461181641
1.9425220490,-0.7578125000,0.0249023438,0.1430664062,19.1040039062,-9.2468261719,48.9807128906
1.9452261925,-0.7578125000,0.0249023438,0.1430664062,19.1040039062,-9.2468261719,48.9807128906
1.9479391575,-0.7578125000,0.0249023438,0.1430664062,18.6614990234,-9.8571777344,51.5899658203
1.9506411552,-0.7578125000,0.0249023438,0.1430664062,18.6614990234,-9.8571777344,51.5899658203
1.9533460140,-0.7504882812,0.0395507812,0.1103515625,18.2800292969,-10.4980468750,54.6722412109
1.9560580254,-0.7504882812,0.0395507812,0.1103515625,18.2800292969,-10.4980468750,54.6722412109
1.9587790966,-0.7504882812,0.0395507812,0.1103515625,18.8598632812,-10.7879638672,57.8613281250
1.9614939690,-0.7504882812,0.0395507812,0.1103515625,18.8598632812,-10.7879638672,57.8613281250
1.9643030167,-0.7587890625,0.0869140625,0.0922851562,17.9748535156,-10.5590820312,60.8367919922
1.9674460888,-0.7587890625,0.0869140625,0.0922851562,17.9748535156,-10.5590820312,60.8367919922
1.9701700211,-0.7587890625,0.0869140625,0.0922851562,15.7775878906,-10.0860595703,63.8427734375
1.9728801250,-0.7709960938,0.1074218750,0.0917968750,15.7775878906,-10.0860595703,63.8427734375
1.9756991863,-0.7709960938,0.1074218750,0.0917968750,15.2435302734,-9.8114013672,66.2841796875
1.9784271717,-0.7709960938,0.1074218750,0.0917968750,15.2435302734,-9.8114013672,66.2841796875
1.9811320305,-0.7709960938,0.1074218750,0.0917968750,14.7399902344,-9.6130371094,68.7561035156
1.9838371277,-0.7866210938,0.1250000000,0.1044921875,14.7399902344,-9.6130371094,68.7561035156
1.9865410328,-0.7866210938,0.1250000000,0.1044921875,15.6860351562,-9.3536376953,71.2432861328
1.9892601967,-0.7866210938,0.1250000000,0.1044921875,15.6860351562,-9.3536376953,71.2432861328
1.9919660091,-0.7866210938,0.1250000000,0.1113281250,17.5170898438,-9.4909667969,72.9217529297
1.9946720600,-0.8100585938,0.1630859375,0.1113281250,17.5170898438,-9.4909667969,72.9217529297
1.9973871708,-0.8100585938,0.1630859375,0.1113281250,19.0277099609,-9.5977783203,74.9664306641
1.9999651909,-0.8100585938,0.1630859375,0.1113281250,19.0277099609,-9.5977783203,74.9664306641
2.0025410652,-0.8100585938,0.1596679688,0.1225585938,21.2860107422,-9.7656250000,76.8127441406
2.0051171780,-0.8334960938,0.1596679688,0.1225585938,21.2860107422,-9.7656250000,76.8127441406
2.0077610016,-0.8334960938,0.1596679688,0.1225585938,22.1405029297,-10.4064941406,78.4454345703
2.0103421211,-0.8334960938,0.1596679688,0.1225585938,22.1405029297,-10.4064941406,78.4454345703
2.0129191875,-0.8334960938,0.1347656250,0.1201171875,22.6135253906,-10.0402832031,80.7800292969
2.0155019760,-0.8471679688,0.1347656250,0.1201171875,22.6135253906,-10.0402832031,80.7800292969
2.0182461739,-0.8471679688,0.1347656250,0.1201171875,22.2015380859,-9.7045898438,83.2824707031
2.0208241940,-0.8471679688,0.1347656250,0.1201171875,22.2015380859,-9.7045898438,83.2824707031
2.0234019756,-0.8320312500,0.1479492188,0.1181640625,22.2015380859,-10.4217529297,85.7849121094
2.0259790421,-0.8320312500,0.1479492188,0.1181640625,20.8129882812,-10.4217529297,85.7849121094
2.0286781788,-0.8320312500,0.1479492188,0.1181640625,20.8129882812,-10.4217529297,88.6993408203
2.0312659740,-0.8320312500,0.1479492188,0.1181640625,20.6756591797,-10.7269287109,88.6993408203
2.0338411331,-0.8632812500,0.1416015625,0.1127929688,20.6756591797,-10.7269287109,91.2017822266
2.0364201069,-0.8632812500,0.1416015625,0.1127929688,20.3857421875,-10.4827880859,91.2017822266
2.0392320156,-0.8632812500,0.1416015625,0.1127929688,20.3857421875,-10.4827880859,93.3380126953
2.0418071747,-0.8632812500,0.1416015625,0.1127929688,20.0347900391,-10.6811523438,93.3380126953
2.0449831486,-0.9409179688,0.1245117188,0.1240234375,20.0347900391,-10.6811523438,94.3603515625
2.0476281643,-0.9409179688,0.1245117188,0.1240234375,20.9960937500,-11.0778808594,94.3603515625
2.0502030849,-0.9409179688,0.1245117188,0.1240234375,20.9960937500,-11.0778808594,96.6644287109
2.0527729988,-0.9409179688,0.1245117188,0.1025390625,21.8811035156,-11.5661621094,96.6644287109
2.0553421974,-0.9975585938,0.1914062500,0.1025390625,21.8811035156,-11.5661621094,100.5706787109
2.0579710007,-0.9975585938,0.1914062500,0.1025390625,23.3154296875,-11.3220214844,99.1210937500
2.0605430603,-0.9975585938,0.1914062500,0.1025390625,23.3154296875,-11.3220214844,99.1210937500
2.0631110668,-0.9975585938,0.1914062500,0.0869140625,27.0690917969,-11.5814208984,101.2420654297
2.0656859875,-1.0107421875,0.1699218750,0.0869140625,27.0690917969,-11.5814208984,101.2420654297
2.0683071613,-1.0107421875,0.1699218750,0.0869140625,30.3955078125,-11.3830566406,103.5461425781
2.0708861351,-1.0107421875,0.1699218750,0.0869140625,30.3955078125,-11.3830566406,103.5461425781
2.0734560490,-1.0107421875,0.1601562500,0.0791015625,32.8063964844,-11.0778808594,106.5673828125
2.0760262012,-1.0024414062,0.1601562500,0.0791015625,32.8063964844,-11.0778808594,106.5673828125
2.0786089897,-1.0024414062,0.1601562500,0.0791015625,34.0270996094,-11.6577148438,110.0006103516
2.0811800957,-1.0024414062,0.1601562500,0.0791015625,34.0270996094,-11.6577148438,110.0006103516
2.0837512016,-1.0024414062,0.1088867188,0.0805664062,35.0341796875,-12.1765136719,112.8234863281
2.0863301754,-1.0249023438,0.1088867188,0.0805664062,35.0341796875,-12.1765136719,112.8234863281
2.0890331268,-1.0249023438,0.1088867188,0.0805664062,36.0565185547,-12.1307373047,115.4937744141
2.0916171074,-1.0249023438,0.1088867188,0.0805664062,36.0565185547,-12.1307373047,115.4937744141
2.0941970348,-1.0966796875,0.0732421875,0.0996093750,36.0565185547,-11.7645263672,118.7286376953
2.0967710018,-1.0966796875,0.0732421875,0.0996093750,35.9191894531,-11.7645263672,118.7286376953
2.0995111465,-1.0966796875,0.0732421875,0.0996093750,35.9191894531,-11.5509033203,122.1313476562
2.1021931171,-1.0966796875,0.0732421875,0.0996093750,35.9954833984,-11.5509033203,122.1313476562
2.1047689915,-1.1284179688,0.0698242188,0.1372070312,35.9954833984,-15.4571533203,125.4119873047
2.1073541641,-1.1284179688,0.0698242188,0.1372070312,36.2243652344,-12.0697021484,125.4119873047
2.1100521088,-1.1284179688,0.0698242188,0.1372070312,36.2243652344,-12.0697021484,127.9602050781
2.1127500534,-1.1284179688,0.0698242188,0.1372070312,39.1998291016,-13.6108398438,127.9602050781
2.1154491901,-1.1591796875,0.0043945312,0.1689453125,39.1998291016,-13.6108398438,131.2866210938
2.1181530952,-1.1591796875,0.0043945312,0.1689453125,42.8161621094,-15.9454345703,131.2866210938
2.1208519936,-1.1591796875,0.0043945312,0.1689453125,42.8161621094,-15.9454345703,134.2315673828
2.1235470772,-1.1591796875,-0.1206054688,0.1791992188,46.1425781250,-18.4936523438,134.2315673828
2.1262350082,-1.1796875000,-0.0610351562,0.1791992188,46.1425781250,-18.4936523438,136.9476318359
2.1289429665,-1.1796875000,-0.0610351562,0.1791992188,49.8962402344,-21.9421386719,136.9476318359
2.1316390038,-1.1796875000,-0.0610351562,0.1791992188,49.8962402344,-21.9421386719,136.9476318359
2.1342129707,-1.1796875000,-0.0810546875,0.2172851562,53.7109375000,-25.6042480469,140.1062011719
2.1367890835,-1.2241210938,-0.0810546875,0.2172851562,53.7109375000,-25.6042480469,140.1062011719
2.1394550800,-1.2241210938,-0.0810546875,0.2172851562,60.7757568359,-29.4952392578,142.4865722656
2.1420350075,-1.2241210938,-0.0810546875,0.2172851562,60.7757568359,-29.4952392578,142.4865722656
2.1449241638,-1.3007812500,-0.1030273438,0.2822265625,71.7163085938,-34.1796875000,143.3563232422
2.1476120949,-1.3007812500,-0.1030273438,0.2822265625,71.7163085938,-34.1796875000,143.3563232422
2.1501810551,-1.3007812500,-0.1030273438,0.2822265625,84.0148925781,-38.2537841797,143.2952880859
2.1527531147,-1.3007812500,-0.1030273438,0.2822265625,84.0148925781,-38.2537841797,143.2952880859
2.1553239822,-1.4663085938,-0.1176757812,0.3085937500,99.6856689453,-41.6870117188,142.3797607422
2.1579430103,-1.4663085938,-0.1176757812,0.3085937500,99.6856689453,-41.6870117188,142.3797607422
2.1605141163,-1.4663085938,-0.1176757812,0.3085937500,120.7580566406,-43.9453125000,140.5181884766
2.1630880833,-1.4663085938,-0.1176757812,0.3085937500,120.7580566406,-43.9453125000,140.5181884766
2.1657681465,-1.6142578125,-0.2387695312,0.2983398438,143.2342529297,-43.6096191406,137.6495361328
2.1683499813,-1.6142578125,-0.2387695312,0.2983398438,143.2342529297,-43.6096191406,137.6495361328
2.1709191799,-1.6142578125,-0.2387695312,0.2983398438,163.8336181641,-41.1987304688,135.2844238281
2.1734900475,-1.6142578125,-0.2387695312,0.2983398438,163.8336181641,-41.1987304688,135.2844238281
2.1760621071,-1.4951171875,-0.3383789062,0.2080078125,179.5349121094,-37.0788574219,135.3607177734
2.1786761284,-1.4951171875,-0.3383789062,0.2080078125,179.5349121094,-37.0788574219,135.3607177734
2.1812491417,-1.4951171875,-0.3383789062,0.2080078125,179.5349121094,-31.9824218750,141.4947509766
2.1838250160,-1.4951171875,-0.3383789062,0.2080078125,181.3354492188,-31.9824218750,141.4947509766
2.1864001751,-1.2661132812,-0.1718750000,0.2231445312,181.3354492188,-28.0761718750,151.0162353516
2.1890389919,-1.2661132812,-0.1718750000,0.2231445312,166.5802001953,-29.1900634766,151.0162353516
2.1916170120,-1.2661132812,-0.1718750000,0.2231445312,166.5802001953,-29.1900634766,159.2712402344
2.1941959858,-1.2661132812,-0.1718750000,0.2304687500,143.8751220703,-27.9846191406,159.2712402344
2.1967701912,-1.2055664062,-0.1123046875,0.2304687500,143.8751220703,-27.9846191406,164.4134521484
2.1995911598,-1.2055664062,-0.1123046875,0.2304687500,116.7144775391,-26.6113281250,164.4134521484
2.2023041248,-1.2055664062,-0.1123046875,0.2304687500,116.7144775391,-26.6113281250,164.4134521484
2.2050151825,-1.1728515625,-0.1293945312,0.2426757812,89.9200439453,-24.2919921875,166.1071777344
2.2077701092,-1.1728515625,-0.1293945312,0.2426757812,89.9200439453,-24.2919921875,164.5202636719
2.2104771137,-1.1728515625,-0.1293945312,0.2426757812,71.9909667969,-22.4456787109,164.5202636719
2.2131841183,-1.1728515625,-0.1293945312,0.2426757812,71.9909667969,-22.4456787109,156.7077636719
2.2158920765,-1.0307617188,-0.1469726562,0.3139648438,59.3414306641,-21.8963623047,159.7747802734
2.2186141014,-1.0307617188,-0.1469726562,0.3139648438,59.3414306641,-21.8963623047,151.9622802734
2.2213201523,-1.0307617188,-0.1469726562,0.3139648438,53.9855957031,-21.2097167969,151.7639160156
2.2240271568,-1.0307617188,-0.1469726562,0.1889648438,53.9855957031,-21.2097167969,143.9514160156
2.2267329693,-0.8559570312,-0.1367187500,0.1528320312,56.3964843750,-18.3715820312,142.1508789062
2.2294600010,-0.8559570312,-0.1367187500,0.1528320312,56.3964843750,-18.3715820312,134.3383789062
2.2320351601,-0.8559570312,-0.1367187500,0.1528320312,57.3272705078,-16.3574218750,134.0942382812
2.2346110344,-0.8559570312,-0.1367187500,0.0151367188,57.3272705078,-16.3574218750,134.0942382812
2.2371830940,-0.7070312500,0.0273437500,0.0151367188,52.4902343750,-14.0228271484,129.9285888672
2.2397871017,-0.7070312500,0.0273437500,0.0151367188,52.4902343750,-14.0228271484,129.9285888672
2.2423620224,-0.7070312500,0.0273437500,0.0151367188,45.7458496094,-12.4816894531,127.8686523438
2.2449409962,-0.7070312500,0.4140625000,-0.0190429688,45.7458496094,-12.4816894531,127.8686523438
2.2475831509,-0.5605468750,0.4140625000,-0.0190429688,35.9649658203,-16.0980224609,126.4495849609
2.2502880096,-0.5605468750,0.4140625000,-0.0190429688,35.9649658203,-16.0980224609,126.4495849609
2.2529931068,-0.5605468750,0.4140625000,-0.0190429688,24.7650146484,-24.8413085938,118.8049316406
2.2558341026,-0.3081054688,0.5737304688,0.1938476562,24.7650146484,-24.8413085938,118.8049316406
2.2589612007,-0.3081054688,0.5737304688,0.1938476562,11.8408203125,-36.0412597656,97.6409912109
2.2616779804,-0.3081054688,0.5737304688,0.1938476562,11.8408203125,-36.0412597656,97.6409912109
2.2643861771,-0.3081054688,0.5737304688,0.1938476562,3.9825439453,-40.7562255859,67.4285888672
2.2670900822,-0.2529296875,0.2836914062,0.2568359375,3.9825439453,-40.7562255859,67.4285888672
2.2696809769,-0.2529296875,0.2836914062,0.2568359375,13.4277343750,-41.0461425781,37.2772216797
2.2722520828,-0.2529296875,0.2836914062,0.2568359375,13.4277343750,-41.0461425781,37.2772216797
2.2748291492,-0.2529296875,0.2836914062,0.1743164062,28.5949707031,-42.0532226562,13.8092041016
2.2774550915,-0.2592773438,-0.0175781250,0.1743164062,28.5949707031,-42.0532226562,13.8092041016
2.2800340652,-0.2592773438,-0.0175781250,0.1743164062,38.2080078125,-42.5415039062,-3.8757324219
2.2826120853,-0.2592773438,-0.0175781250,0.1743164062,38.2080078125,-42.5415039062,-3.8757324219
2.2851819992,-0.2592773438,-0.3925781250,0.0927734375,46.8444824219,-35.5987548828,-22.1252441406
2.2878060341,-0.2797851562,-0.3833007812,0.0927734375,46.8444824219,-35.5987548828,-22.1252441406
2.2903790474,-0.2797851562,-0.3833007812,0.0927734375,50.8117675781,-22.4609375000,-40.6646728516
2.2930619717,-0.2797851562,-0.3833007812,0.0927734375,50.8117675781,-22.4609375000,-40.6646728516
2.2956371307,-0.2797851562,-0.5336914062,-0.1206054688,42.9992675781,-10.8795166016,-55.6793212891
2.2982220650,-0.2690429688,-0.5336914062,-0.1206054688,45.8831787109,-10.8795166016,-55.6793212891
2.3007950783,-0.2690429688,-0.5336914062,-0.1206054688,45.8831787109,-6.9732666016,-68.8629150391
2.3033621311,-0.2690429688,-0.5336914062,-0.1206054688,32.5164794922,-6.5612792969,-68.8629150391
2.3059310913,-0.1440429688,-0.5146484375,-0.1547851562,32.5164794922,-6.5612792969,-80.3833007812
2.3086471558,-0.2387695312,-0.5146484375,-0.1547851562,13.8397216797,-7.1105957031,-80.3833007812
2.3112170696,-0.2387695312,-0.5146484375,-0.1547851562,13.8397216797,-7.1105957031,-92.1020507812
2.3137881756,-0.2387695312,-0.5146484375,-0.1547851562,-8.7585449219,-8.6822509766,-91.0186767578
2.3163580894,-0.2260742188,-0.4165039062,-0.1215820312,-8.7585449219,-8.6822509766,-91.0186767578
2.3190791607,-0.2260742188,-0.4165039062,-0.1215820312,-33.5388183594,-10.0250244141,-100.3723144531
2.3216590881,-0.2260742188,-0.4165039062,-0.1215820312,-33.5388183594,-10.0250244141,-100.3723144531
2.3242330551,-0.2260742188,-0.4165039062,-0.1215820312,-55.6030273438,-11.9018554688,-109.7869873047
2.3267991543,-0.2529296875,-0.2583007812,-0.0522460938,-55.6030273438,-11.9018554688,-109.7869873047
2.3293800354,-0.2529296875,-0.2583007812,-0.0522460938,-72.7844238281,-13.3666992188,-119.3847656250
2.3319590092,-0.2529296875,-0.2583007812,-0.0522460938,-72.7844238281,-13.3666992188,-119.3847656250
2.3345360756,-0.2529296875,-0.2583007812,-0.0522460938,-85.6628417969,-13.4582519531,-128.1433105469
2.3373980522,-0.3251953125,-0.1416015625,0.0190429688,-85.6628417969,-13.4582519531,-128.1433105469
2.3400721550,-0.3251953125,-0.1416015625,0.0190429688,-93.5516357422,-12.1154785156,-137.8936767578
2.3435411453,-0.3251953125,-0.1416015625,0.0190429688,-93.5516357422,-12.1154785156,-137.8936767578
2.3461179733,-0.3251953125,-0.0156250000,0.0288085938,-97.3205566406,-9.5825195312,-148.3459472656
2.3487460613,-0.3852539062,-0.0156250000,0.0288085938,-97.3205566406,-9.5825195312,-148.3459472656
2.3513159752,-0.3852539062,-0.0156250000,0.0288085938,-99.2889404297,-6.7443847656,-158.6914062500
2.3538851738,-0.3852539062,-0.0156250000,0.0288085938,-99.2889404297,-6.7443847656,-158.6914062500
2.3565649986,-0.4389648438,0.0766601562,0.0190429688,-99.1210937500,-2.9296875000,-168.9147949219
2.3591470718,-0.4389648438,0.0766601562,0.0190429688,-99.1210937500,-2.9296875000,-168.9147949219
2.3617200851,-0.4389648438,0.0766601562,0.0190429688,-95.4132080078,0.6256103516,-179.6264648438
2.3642961979,-0.4389648438,0.0766601562,0.0190429688,-95.4132080078,0.6256103516,-179.6264648438
2.3668680191,-0.4838867188,0.0820312500,-0.0034179688,-89.9200439453,3.4637451172,-190.0024414062
2.3694870472,-0.4838867188,0.0820312500,-0.0034179688,-89.9200439453,3.4637451172,-190.0024414062
2.3720610142,-0.4838867188,0.0820312500,-0.0034179688,-85.4187011719,6.6986083984,-200.0274658203
2.3746380806,-0.4838867188,0.0820312500,-0.0034179688,-85.4187011719,6.6986083984,-200.0274658203
2.3772590160,-0.5112304688,0.0498046875,-0.0126953125,-85.4187011719,9.5825195312,-209.2437744141
2.3798370361,-0.5112304688,0.0498046875,-0.0126953125,-82.9772949219,9.5825195312,-209.2437744141
2.3824090958,-0.5112304688,0.0498046875,-0.0126953125,-82.9772949219,13.4887695312,-218.5974121094
2.3849802017,-0.5112304688,0.0498046875,-0.0126953125,-81.1462402344,11.7950439453,-218.5974121094
2.3876950741,-0.5585937500,-0.0004882812,0.0019531250,-81.1462402344,11.7950439453,-228.1036376953
2.3902750015,-0.5585937500,-0.0004882812,0.0019531250,-78.5522460938,14.4958496094,-228.1036376953
2.3928561211,-0.5585937500,-0.0004882812,0.0019531250,-78.5522460938,14.4958496094,-235.9161376953
2.3954391479,-0.5585937500,-0.0004882812,0.0019531250,-76.2939453125,16.8304443359,-236.4959716797
2.3981580734,-0.6044921875,-0.0122070312,0.0527343750,-76.2939453125,16.8304443359,-244.3084716797
2.4008719921,-0.6044921875,-0.0122070312,0.0527343750,-72.9064941406,20.0500488281,-244.6594238281
2.4035780430,-0.6044921875,-0.0122070312,0.0527343750,-72.9064941406,20.0500488281,-252.4719238281
2.4062891006,-0.6044921875,0.1127929688,0.1166992188,-67.4133300781,23.2086181641,-252.6550292969
2.4089331627,-0.6796875000,0.0209960938,0.1166992188,-67.4133300781,23.2086181641,-252.6550292969
2.4115121365,-0.6796875000,0.0209960938,0.1166992188,-59.2346191406,25.7263183594,-259.8724365234
2.4140920639,-0.6796875000,0.0209960938,0.1166992188,-59.2346191406,25.7263183594,-259.8724365234
2.4166700840,-0.6796875000,0.0751953125,0.1303710938,-51.0253906250,27.5726318359,-267.0745849609
2.4194920063,-0.7587890625,0.0751953125,0.1303710938,-51.0253906250,27.5726318359,-267.0745849609
2.4221980572,-0.7587890625,0.0751953125,0.1303710938,-43.6706542969,28.6560058594,-274.1241455078
2.4249091148,-0.7587890625,0.0751953125,0.1303710938,-43.6706542969,28.6560058594,-274.1241455078
2.4276280403,-0.8452148438,0.1406250000,0.0922851562,-40.5273437500,29.4494628906,-280.8074951172
2.4303381443,-0.8452148438,0.1406250000,0.0922851562,-40.5273437500,29.4494628906,-280.8074951172
2.4330461025,-0.8452148438,0.1406250000,0.0922851562,-40.8325195312,28.5034179688,-286.0107421875
2.4357590675,-0.8452148438,0.1406250000,0.0922851562,-40.8325195312,28.5034179688,-286.0107421875
2.4384779930,-0.9223632812,0.1630859375,0.0478515625,-43.1213378906,26.5502929688,-290.1000976562
2.4411830902,-0.9223632812,0.1630859375,0.0478515625,-43.1213378906,26.5502929688,-290.1000976562
2.4438960552,-0.9223632812,0.1630859375,0.0478515625,-45.5474853516,24.8870849609,-293.2586669922
2.4466071129,-0.9223632812,0.1630859375,0.0830078125,-45.5474853516,24.8870849609,-293.2586669922
2.4493620396,-0.9863281250,0.1938476562,0.0830078125,-44.8303222656,23.8342285156,-295.8221435547
2.4520721436,-0.9863281250,0.1938476562,0.0830078125,-44.8303222656,23.8342285156,-295.8221435547
2.4549071789,-0.9863281250,0.1938476562,0.0830078125,-39.2303466797,23.6053466797,-298.1719970703
2.4579989910,-1.1191406250,0.2431640625,0.1313476562,-39.2303466797,23.6053466797,-298.1719970703
2.4605820179,-1.1191406250,0.2431640625,0.1313476562,-33.4472656250,24.9633789062,-299.7741699219
2.4631650448,-1.1191406250,0.2431640625,0.1313476562,-33.4472656250,24.9633789062,-299.7741699219
2.4657750130,-1.1191406250,0.2431640625,0.1313476562,-29.8004150391,26.9317626953,-301.1322021484
2.4684121609,-1.2485351562,0.2915039062,0.1342773438,-29.8004150391,26.9317626953,-301.1322021484
2.4711251259,-1.2485351562,0.2915039062,0.1342773438,-28.6865234375,30.2276611328,-302.0782470703
2.4738361835,-1.2485351562,0.2915039062,0.1342773438,-28.6865234375,30.2276611328,-302.0782470703
2.4765450954,-1.2485351562,0.2915039062,0.1342773438,-28.7780761719,32.8521728516,-303.1463623047
2.4792599678,-1.2924804688,0.3334960938,0.1352539062,-28.7780761719,32.8521728516,-303.1463623047
2.4819631577,-1.2924804688,0.3334960938,0.1352539062,-30.1208496094,34.5153808594,-304.4128417969
2.4846761227,-1.2924804688,0.3334960938,0.1352539062,-30.1208496094,34.5153808594,-304.4128417969
2.4875349998,-1.2924804688,0.3647460938,0.1142578125,-32.2418212891,35.1409912109,-305.1605224609
2.4901120663,-1.2773437500,0.3647460938,0.1142578125,-32.2418212891,35.1409912109,-305.1605224609
2.4926891327,-1.2773437500,0.3647460938,0.1142578125,-35.1409912109,34.1949462891,-305.2825927734
2.4952700138,-1.2773437500,0.3647460938,0.1142578125,-35.1409912109,34.1949462891,-305.2825927734
2.4978520870,-1.2753906250,0.3579101562,0.1176757812,-38.8641357422,32.8369140625,-305.6488037109
2.5004281998,-1.2753906250,0.3579101562,0.1176757812,-38.8641357422,32.8369140625,-305.6488037109
2.5030071735,-1.2753906250,0.3579101562,0.1176757812,-44.3725585938,31.7535400391,-305.5114746094
2.5055911541,-1.2753906250,0.3579101562,0.1176757812,-44.3725585938,31.7535400391,-305.5114746094
2.5082621574,-1.3032226562,0.3217773438,0.1318359375,-50.1251220703,31.0363769531,-304.3365478516
2.5108430386,-1.3032226562,0.3217773438,0.1318359375,-50.1251220703,31.0363769531,-304.3365478516
2.5134270191,-1.3032226562,0.3217773438,0.1318359375,-57.9376220703,29.7851562500,-302.5054931641
2.5160031319,-1.3032226562,0.3217773438,0.1318359375,-56.0455322266,29.7851562500,-302.5054931641
2.5187661648,-1.3212890625,0.3339843750,0.1513671875,-59.9517822266,29.4799804688,-299.0570068359
2.5214781761,-1.3212890625,0.3339843750,0.1513671875,-62.4237060547,29.4799804688,-299.0570068359
2.5241789818,-1.3212890625,0.3339843750,0.1513671875,-70.2362060547,28.5491943359,-295.0286865234
2.5268881321,-1.3212890625,0.3339843750,0.1513671875,-68.3441162109,28.5491943359,-295.0286865234
2.5296020508,-1.2968750000,0.4086914062,0.1577148438,-72.2503662109,28.2135009766,-290.1153564453
2.5323140621,-1.2968750000,0.4086914062,0.1577148438,-72.0520019531,28.2135009766,-290.1153564453
2.5350260735,-1.2968750000,0.4086914062,0.1577148438,-75.9582519531,27.8778076172,-283.7219238281
2.5377430916,-1.2968750000,0.4873046875,0.1674804688,-75.4394531250,27.8778076172,-283.7219238281
2.5404350758,-1.2778320312,0.4873046875,0.1674804688,-75.4394531250,27.4353027344,-275.8636474609
2.5430071354,-1.2778320312,0.4873046875,0.1674804688,-79.6966552734,27.4353027344,-275.8636474609
2.5455830097,-1.2778320312,0.4873046875,0.1674804688,-79.6966552734,23.5290527344,-267.8833007812
2.5483050346,-1.3310546875,0.5815429688,0.1860351562,-84.3811035156,25.8178710938,-267.8833007812
2.5510790348,-1.3310546875,0.5815429688,0.1860351562,-84.3811035156,25.8178710938,-259.1400146484
2.5539491177,-1.3310546875,0.5815429688,0.1860351562,-88.2415771484,24.9328613281,-259.1400146484
2.5565299988,-1.3310546875,0.5815429688,0.1860351562,-88.2415771484,24.9328613281,-249.4659423828
2.5592510700,-1.2963867188,0.6772460938,0.2290039062,-89.1876220703,24.5971679688,-249.4659423828
2.5618350506,-1.2963867188,0.6772460938,0.2290039062,-89.1876220703,24.5971679688,-237.7014160156
2.5644021034,-1.2963867188,0.6772460938,0.2290039062,-85.9527587891,24.1851806641,-237.7014160156
2.5669760704,-1.2963867188,0.6772460938,0.2290039062,-85.9527587891,24.1851806641,-225.9826660156
2.5695600510,-1.1391601562,0.7412109375,0.2646484375,-78.6895751953,23.0102539062,-223.8159179688
2.5721311569,-1.1391601562,0.7412109375,0.2646484375,-78.6895751953,23.0102539062,-223.8159179688
2.5747079849,-1.1391601562,0.7412109375,0.2646484375,-70.9228515625,20.6756591797,-207.7178955078
2.5772759914,-1.1391601562,0.7412109375,0.2646484375,-70.9228515625,20.6756591797,-207.7178955078
2.5798451900,-0.9272460938,0.8774414062,0.2968750000,-65.1550292969,16.1285400391,-188.5833740234
2.5824251175,-0.9272460938,0.8774414062,0.2968750000,-65.1550292969,16.1285400391,-188.5833740234
2.5849990845,-0.9272460938,0.8774414062,0.2968750000,-61.9659423828,9.9029541016,-167.2058105469
2.5875899792,-0.9272460938,0.8774414062,0.2968750000,-61.9659423828,9.9029541016,-167.2058105469
2.5901701450,-0.7958984375,1.1108398438,0.3491210938,-58.3496093750,2.8381347656,-144.5465087891
2.5927381516,-0.7958984375,1.1108398438,0.3491210938,-58.3496093750,2.8381347656,-144.5465087891
2.5953071117,-0.7958984375,1.1108398438,0.3491210938,-50.7659912109,-3.7078857422,-121.1395263672
2.5980460644,-0.7958984375,1.1108398438,0.3540039062,-50.7659912109,-3.7078857422,-121.1395263672
2.6006190777,-0.7133789062,1.2929687500,0.3540039062,-37.8265380859,-8.8500976562,-96.0845947266
2.6031970978,-0.7133789062,1.2929687500,0.3540039062,-37.8265380859,-8.8500976562,-96.0845947266
2.6057651043,-0.7133789062,1.2929687500,0.3540039062,-37.8265380859,-12.0239257812,-68.5577392578
2.6084401608,-0.7133789062,1.2915039062,0.3134765625,-20.8740234375,-12.0239257812,-68.5577392578
2.6110200882,-0.6953125000,1.2915039062,0.3134765625,-20.8740234375,-12.0239257812,-39.3218994141
2.6137001514,-0.6953125000,1.2915039062,0.3134765625,-4.9133300781,-13.8397216797,-39.3218994141
2.6162669659,-0.6953125000,1.2915039062,0.3134765625,-4.9133300781,-13.8397216797,-8.8958740234
2.6188840866,-0.6953125000,1.1596679688,0.2680664062,5.3405761719,-14.3280029297,-8.8958740234
2.6214520931,-0.7270507812,1.1596679688,0.2680664062,5.3405761719,-14.3280029297,22.3541259766
2.6240210533,-0.7270507812,1.1596679688,0.2680664062,8.8806152344,-14.4195556641,20.1416015625
2.6265850067,-0.7270507812,1.1596679688,0.2680664062,8.8806152344,-14.4195556641,20.1416015625
2.6292691231,-0.7543945312,1.0683593750,0.2734375000,6.6986083984,-14.5874023438,47.1038818359
2.6319730282,-0.7543945312,1.0683593750,0.2734375000,6.6986083984,-14.5874023438,47.1038818359
2.6346731186,-0.7543945312,1.0683593750,0.2734375000,1.9378662109,-15.5792236328,71.6247558594
2.6373841763,-0.7543945312,1.0683593750,0.2734375000,1.9378662109,-15.5792236328,71.6247558594
2.6400940418,-0.7465820312,1.0170898438,0.2939453125,-3.6468505859,-17.4255371094,93.5516357422
2.6428861618,-0.7465820312,1.0170898438,0.2939453125,-3.6468505859,-17.4255371094,93.5516357422
2.6454570293,-0.7465820312,1.0170898438,0.2939453125,-9.6588134766,-21.2707519531,114.3493652344
2.6481411457,-0.7465820312,1.0170898438,0.2939453125,-9.6588134766,-21.2707519531,114.3493652344
2.6508090496,-0.7387695312,0.9697265625,0.3198242188,-15.1062011719,-26.1993408203,133.5296630859
2.6537370682,-0.7387695312,0.9697265625,0.3198242188,-15.1062011719,-26.1993408203,133.5296630859
2.6563210487,-0.7387695312,0.9697265625,0.3198242188,-18.4631347656,-31.9976806641,149.6276855469
2.6589360237,-0.7387695312,0.7490234375,0.4340820312,-18.4631347656,-31.9976806641,149.6276855469
2.6615030766,-0.7617187500,0.7490234375,0.4340820312,-23.2696533203,-40.2832031250,159.3322753906
2.6640729904,-0.7617187500,0.7490234375,0.4340820312,-23.2696533203,-40.2832031250,159.3322753906
2.6666491032,-0.7617187500,0.7490234375,0.4340820312,-35.1257324219,-45.3033447266,153.1677246094
2.6692881584,-1.0117187500,-0.1909179688,0.1152343750,-35.1257324219,-45.3033447266,153.1677246094
2.6718640327,-1.0825195312,-0.1909179688,0.1152343750,-25.8178710938,-35.4614257812,138.0157470703
2.6744391918,-1.0825195312,-0.1909179688,0.1152343750,-25.8178710938,-35.4614257812,138.0157470703
2.6771299839,-1.0825195312,-0.1909179688,0.1152343750,-18.9208984375,-19.9279785156,123.6114501953
2.6797120571,-1.0283203125,-1.0263671875,-0.1508789062,-18.9208984375,-19.9279785156,123.6114501953
2.6822850704,-1.0283203125,-1.0263671875,-0.1508789062,-31.7840576172,-12.3596191406,106.8878173828
2.6848530769,-1.0283203125,-1.0263671875,-0.1508789062,-31.7840576172,-12.3596191406,106.8878173828
2.6874771118,-1.0283203125,-1.0263671875,-0.1508789062,-31.7840576172,-6.0882568359,92.2393798828
2.6900420189,-1.1293945312,-1.3203125000,-0.5668945312,-39.4897460938,-6.0882568359,92.2393798828
2.6926050186,-1.1293945312,-1.3203125000,-0.5668945312,-39.4897460938,-6.0882568359,91.8731689453
2.6951711178,-1.1293945312,-1.3203125000,-0.5668945312,-54.1839599609,-0.1831054688,91.8731689453
2.6979601383,-1.1293945312,-1.3203125000,-0.5668945312,-54.1839599609,-0.1831054688,106.1553955078
2.7005450726,-0.9960937500,-0.4072265625,-0.3491210938,-102.0355224609,-1.8920898438,106.1553955078
2.7031199932,-0.9960937500,-0.4072265625,-0.3491210938,-102.0355224609,-1.8920898438,117.8741455078
2.7056961060,-0.9960937500,-0.4072265625,-0.3491210938,-147.9492187500,-4.7302246094,120.1629638672
2.7084171772,-0.9960937500,-0.4072265625,-0.3491210938,-147.9492187500,-4.7302246094,120.1629638672
2.7109870911,-0.9462890625,0.5039062500,-0.0302734375,-166.5649414062,-9.0026855469,132.0800781250
2.7135581970,-0.9462890625,0.5039062500,-0.0302734375,-166.5649414062,-9.0026855469,132.0800781250
2.7161359787,-0.9462890625,0.5039062500,-0.0302734375,-173.3703613281,-19.8669433594,142.9290771484
2.7188000679,-0.9462890625,0.5039062500,-0.0302734375,-173.3703613281,-19.8669433594,142.9290771484
2.7215070724,-1.0615234375,0.6762695312,0.1250000000,-160.4003906250,-29.4189453125,146.3928222656
2.7242150307,-1.0615234375,0.6762695312,0.1250000000,-160.4003906250,-29.4189453125,146.3928222656
2.7269220352,-1.0615234375,0.6762695312,0.1250000000,-131.5460205078,-33.6303710938,144.0429687500
2.7296380997,-1.0615234375,0.5942382812,-0.0541992188,-131.5460205078,-33.6303710938,144.0429687500
2.7323441505,-1.2333984375,0.5942382812,-0.0541992188,-104.0802001953,-33.1573486328,137.2833251953
2.7350540161,-1.2333984375,0.5942382812,-0.0541992188,-104.0802001953,-33.1573486328,137.2833251953
2.7377700806,-1.2333984375,0.5942382812,-0.0541992188,-71.7620849609,-29.4342041016,127.1514892578
2.7405960560,-1.0625000000,0.5991210938,-0.1972656250,-71.7620849609,-29.4342041016,127.1514892578
2.7433111668,-1.0625000000,0.5991210938,-0.1972656250,-47.0428466797,-28.2440185547,116.6687011719
2.7460110188,-1.0625000000,0.5991210938,-0.1972656250,-47.0428466797,-28.2440185547,116.6687011719
2.7487361431,-1.0625000000,0.5991210938,-0.1972656250,-37.3229980469,-28.6560058594,109.7717285156
2.7514121532,-0.8549804688,0.5419921875,0.0600585938,-37.3229980469,-28.6560058594,109.7717285156
2.7543601990,-0.8549804688,0.5419921875,0.0600585938,-35.3393554688,-30.9600830078,105.9265136719
2.7569420338,-0.8549804688,0.5419921875,0.0600585938,-35.3393554688,-30.9600830078,105.9265136719
2.7597332001,-0.8549804688,0.2919921875,0.2202148438,-31.9671630859,-34.7442626953,103.1951904297
2.7623050213,-0.8129882812,0.3525390625,0.2202148438,-31.9671630859,-34.7442626953,103.1951904297
2.7648820877,-0.8129882812,0.3525390625,0.2202148438,-24.2919921875,-37.8265380859,100.7537841797
2.7675211430,-0.8129882812,0.3525390625,0.2202148438,-24.2919921875,-37.8265380859,100.7537841797
2.7700991631,-0.8129882812,0.1811523438,0.2221679688,-15.8233642578,-36.5142822266,97.8240966797
2.7726681232,-0.7807617188,0.1811523438,0.2221679688,-15.8233642578,-36.5142822266,97.8240966797
2.7752451897,-0.7807617188,0.1811523438,0.2221679688,-8.2855224609,-33.6761474609,94.8181152344
2.7778260708,-0.7807617188,0.1811523438,0.2221679688,-8.2855224609,-33.6761474609,94.8181152344
2.7804009914,-0.6557617188,0.2519531250,0.2666015625,-3.3721923828,-32.3486328125,91.5069580078
2.7829720974,-0.6860351562,0.2519531250,0.2666015625,-3.3721923828,-32.3486328125,91.5069580078
2.7855441570,-0.6860351562,0.2519531250,0.2666015625,0.5340576172,-33.3709716797,87.9058837891
2.7881631851,-0.6860351562,0.2519531250,0.2666015625,0.6256103516,-33.3709716797,87.9058837891
2.7907311916,-0.6376953125,0.3598632812,0.3325195312,0.6256103516,-33.3709716797,84.1369628906
2.7933001518,-0.6376953125,0.3598632812,0.3325195312,6.5002441406,-34.7442626953,84.1369628906
2.7958710194,-0.6376953125,0.3598632812,0.3325195312,6.5002441406,-38.6505126953,80.3222656250
2.7986061573,-0.6376953125,0.3598632812,0.3325195312,14.5874023438,-35.2325439453,80.3222656250
2.8011801243,-0.6503906250,0.2866210938,0.3530273438,14.5874023438,-35.2325439453,75.5462646484
2.8038630486,-0.6503906250,0.2866210938,0.3530273438,22.6287841797,-34.5916748047,75.5462646484
2.8064379692,-0.6503906250,0.2866210938,0.3530273438,22.6287841797,-34.5916748047,71.6400146484
2.8091731071,-0.6503906250,0.2866210938,0.3530273438,30.3649902344,-32.9895019531,70.5413818359
2.8117470741,-0.7177734375,0.2211914062,0.2939453125,30.3649902344,-32.9895019531,70.5413818359
2.8143169880,-0.7177734375,0.2211914062,0.2939453125,39.1540527344,-31.2652587891,66.6961669922
2.8168871403,-0.7177734375,0.2211914062,0.2939453125,39.1540527344,-31.2652587891,66.6961669922
2.8194830418,-0.7177734375,0.2211914062,0.2939453125,48.6145019531,-29.8004150391,64.7583007812
2.8220500946,-0.8413085938,0.3281250000,0.1845703125,48.6145019531,-29.8004150391,64.7583007812
2.8246240616,-0.8413085938,0.3281250000,0.1845703125,55.1300048828,-28.1066894531,64.7125244141
2.8272039890,-0.8413085938,0.3281250000,0.1845703125,55.1300048828,-28.1066894531,64.7125244141
2.8299679756,-0.8413085938,0.3281250000,0.0595703125,59.7534179688,-25.2227783203,63.3850097656
2.8326830864,-0.9262695312,0.2412109375,0.0493164062,59.7534179688,-25.2227783203,63.3850097656
2.8353891373,-0.9262695312,0.2412109375,0.0493164062,65.3228759766,-22.8271484375,60.5621337891
2.8381149769,-0.9262695312,0.2412109375,0.0493164062,65.3228759766,-22.8271484375,60.5621337891
2.8406929970,-0.9262695312,0.0410156250,0.0278320312,66.3299560547,-21.2249755859,56.7169189453
2.8432672024,-0.8251953125,0.0410156250,0.0278320312,66.3299560547,-21.2249755859,56.7169189453
2.8458390236,-0.8251953125,0.0410156250,0.0278320312,62.3626708984,-21.6979980469,53.4973144531
2.8487169743,-0.8251953125,0.0410156250,0.0278320312,62.3626708984,-21.6979980469,53.4973144531
2.8512940407,-0.7104492188,0.0502929688,0.1108398438,56.9305419922,-24.3835449219,52.4902343750
2.8547201157,-0.7104492188,0.0502929688,0.1108398438,56.9305419922,-24.3835449219,52.4902343750
2.8573021889,-0.7104492188,0.0502929688,0.1108398438,52.0324707031,-27.2827148438,52.8411865234
2.8598740101,-0.7104492188,0.0502929688,0.1108398438,52.0324707031,-27.2827148438,52.8411865234
2.8624541759,-0.7377929688,0.0615234375,0.0625000000,44.4641113281,-27.3132324219,52.6885986328
2.8650250435,-0.7377929688,0.0615234375,0.0625000000,44.4641113281,-27.3132324219,52.6885986328
2.8677129745,-0.7377929688,0.0615234375,0.0625000000,36.1175537109,-26.7944335938,52.0172119141
2.8702890873,-0.7377929688,0.0615234375,0.0625000000,36.1175537109,-26.7944335938,52.0172119141
2.8728601933,-0.7563476562,0.0419921875,0.0605468750,29.0374755859,-25.2990722656,50.6591796875
2.8754351139,-0.7563476562,0.0419921875,0.0605468750,29.0374755859,-25.2990722656,50.6591796875
2.8780121803,-0.7563476562,0.0419921875,0.0605468750,25.1312255859,-23.9257812500,49.0264892578
2.8805902004,-0.7563476562,0.0419921875,0.0605468750,23.8952636719,-23.9257812500,49.0264892578
2.8831729889,-0.7333984375,0.1127929688,0.0937500000,23.8952636719,-20.0195312500,46.0815429688
2.8857500553,-0.7333984375,0.1127929688,0.0937500000,20.0500488281,-23.0865478516,46.0815429688
2.8883631229,-0.7333984375,0.1127929688,0.0937500000,20.0500488281,-23.0865478516,42.5262451172
2.8909351826,-0.7333984375,0.1127929688,0.1376953125,21.6369628906,-22.0794677734,42.5262451172
2.8935120106,-0.7270507812,0.1533203125,0.1376953125,21.6369628906,-22.0794677734,42.5262451172
2.8960909843,-0.7270507812,0.1533203125,0.1376953125,26.9012451172,-20.7061767578,39.6270751953
2.8988490105,-0.7270507812,0.1533203125,0.1376953125,26.9012451172,-20.7061767578,39.6270751953
2.9014201164,-0.7270507812,0.1269531250,0.1362304688,33.7677001953,-19.3481445312,36.6058349609
2.9040091038,-0.7177734375,0.1269531250,0.1362304688,33.7677001953,-19.3481445312,36.6058349609
2.9065971375,-0.7177734375,0.1269531250,0.1362304688,40.9240722656,-18.4173583984,32.8826904297
2.9093620777,-0.7177734375,0.1269531250,0.1362304688,40.9240722656,-18.4173583984,32.8826904297
2.9120731354,-0.7153320312,0.1147460938,0.1513671875,48.3245849609,-17.9595947266,29.2358398438
2.9147791862,-0.7153320312,0.1147460938,0.1513671875,48.3245849609,-17.9595947266,29.2358398438
2.9175341129,-0.7153320312,0.1147460938,0.1513671875,55.9387207031,-16.5252685547,26.2603759766
2.9202389717,-0.7153320312,0.1147460938,0.1513671875,55.9387207031,-16.5252685547,26.2603759766
2.9229521751,-0.7294921875,0.0981445312,0.1362304688,61.1724853516,-15.1519775391,24.6582031250
2.9256691933,-0.7294921875,0.0981445312,0.1362304688,61.1724853516,-15.1519775391,24.6582031250
2.9283890724,-0.7294921875,0.0981445312,0.1362304688,61.3403320312,-15.6097412109,23.6816406250
2.9312131405,-0.7294921875,0.0981445312,0.1137695312,61.3403320312,-15.6097412109,23.6816406250
2.9339241982,-0.7485351562,0.0224609375,0.1137695312,56.6253662109,-15.3961181641,23.9868164062
2.9366281033,-0.7485351562,0.0224609375,0.1137695312,56.6253662109,-15.3961181641,23.9868164062
2.9392549992,-0.7485351562,0.0224609375,0.1137695312,49.8352050781,-15.1062011719,24.9633789062
2.9418320656,-0.7485351562,0.0034179688,0.0961914062,49.8352050781,-15.1062011719,24.9633789062
2.9444119930,-0.7246093750,0.0034179688,0.0961914062,41.6717529297,-14.5721435547,27.1759033203
2.9469950199,-0.7246093750,0.0034179688,0.0961914062,41.6717529297,-14.5721435547,27.1759033203
2.9496181011,-0.7246093750,0.0034179688,0.0961914062,32.6995849609,-13.9007568359,29.1290283203
2.9522671700,-0.6933593750,0.0278320312,0.1333007812,32.6995849609,-13.9007568359,29.1290283203
2.9548480511,-0.6933593750,0.0278320312,0.1333007812,25.4058837891,-12.8479003906,30.1971435547
2.9575061798,-0.6933593750,0.0278320312,0.1333007812,25.4058837891,-12.8479003906,30.1971435547
2.9602131844,-0.6933593750,0.0278320312,0.1333007812,20.4925537109,-12.0391845703,30.7922363281
2.9629180431,-0.6860351562,0.0776367188,0.1660156250,20.4925537109,-12.0391845703,30.7922363281
2.9657981396,-0.6860351562,0.0776367188,0.1660156250,18.8598632812,-10.8795166016,31.4178466797
2.9692580700,-0.6860351562,0.0776367188,0.1660156250,18.8598632812,-10.8795166016,31.4178466797
2.9718260765,-0.6860351562,0.0776367188,0.1840820312,20.0805664062,-10.2844238281,31.4483642578
2.9744091034,-0.7080078125,0.1142578125,0.1840820312,20.0805664062,-10.2844238281,31.4483642578
2.9769821167,-0.7080078125,0.1142578125,0.1840820312,23.4527587891,-9.6588134766,31.2347412109
2.9795691967,-0.7080078125,0.1142578125,0.1840820312,23.4527587891,-9.6588134766,31.2347412109
2.9821431637,-0.7080078125,0.1162109375,0.1728515625,27.5573730469,-8.2397460938,30.8227539062
2.9847140312,-0.7373046875,0.1162109375,0.1728515625,27.5573730469,-8.2397460938,30.8227539062
2.9872801304,-0.7373046875,0.1162109375,0.1728515625,31.1279296875,-6.8817138672,30.7464599609
2.9898531437,-0.7373046875,0.1162109375,0.1728515625,31.1279296875,-6.8817138672,30.7464599609
2.9924180508,-0.7373046875,0.1113281250,0.1538085938,35.0341796875,-6.5155029297,31.1737060547
2.9951059818,-0.7421875000,0.1113281250,0.1538085938,32.7148437500,-6.5155029297,31.1737060547
2.9977290630,-0.7421875000,0.1113281250,0.1538085938,32.7148437500,-6.2866210938,31.4788818359
3.0003020763,-0.7421875000,0.1113281250,0.1538085938,33.2946777344,-6.2866210938,31.4788818359
3.0028691292,-0.7392578125,0.0698242188,0.1586914062,33.2946777344,-6.2866210938,32.0129394531
3.0054399967,-0.7392578125,0.0698242188,0.1586914062,33.8439941406,-5.3710937500,32.0129394531
3.0080220699,-0.7392578125,0.0698242188,0.1586914062,33.8439941406,-5.3710937500,32.9132080078
3.0105941296,-0.7392578125,0.0698242188,0.1586914062,32.9132080078,-5.3405761719,32.9132080078
3.0131680965,-0.7402343750,0.0654296875,0.0952148438,32.9132080078,-5.3405761719,32.9132080078
3.0157451630,-0.7402343750,0.0654296875,0.0952148438,30.5786132812,-5.3405761719,34.3933105469
3.0184600353,-0.7402343750,0.0654296875,0.0952148438,30.5786132812,-5.3405761719,34.3933105469
3.0210440159,-0.7402343750,0.0654296875,0.0952148438,28.8848876953,-5.3253173828,36.0412597656
3.0236191750,-0.7412109375,0.0634765625,0.0874023438,28.8848876953,-5.3253173828,36.0412597656
3.0261960030,-0.7412109375,0.0634765625,0.0874023438,27.1911621094,-5.0048828125,37.4450683594
3.0289971828,-0.7412109375,0.0634765625,0.0874023438,27.1911621094,-5.0048828125,37.4450683594
3.0316879749,-0.7412109375,0.0634765625,0.0874023438,26.4282226562,-5.6457519531,38.7420654297
3.0343751907,-0.7280273438,0.0932617188,0.0659179688,26.4282226562,-5.6457519531,38.7420654297
3.0370671749,-0.7280273438,0.0932617188,0.0659179688,27.3895263672,-5.8898925781,40.1611328125
3.0396571159,-0.7280273438,0.0932617188,0.0659179688,27.3895263672,-5.8898925781,40.1611328125
3.0422341824,-0.7280273438,0.0932617188,0.0825195312,28.9001464844,-6.3323974609,41.6107177734
3.0448060036,-0.7338867188,0.0878906250,0.0825195312,28.9001464844,-6.3323974609,41.6107177734
3.0473861694,-0.7338867188,0.0878906250,0.0825195312,29.9987792969,-6.1645507812,43.9453125000
3.0501031876,-0.7338867188,0.0878906250,0.0825195312,29.9987792969,-6.1645507812,43.9453125000
3.0528101921,-0.7338867188,0.0585937500,0.0888671875,30.1208496094,-5.9051513672,45.9594726562
3.0555131435,-0.7568359375,0.0585937500,0.0888671875,30.1208496094,-5.9051513672,45.9594726562
3.0583381653,-0.7568359375,0.0585937500,0.0888671875,29.7393798828,-5.7678222656,48.1109619141
3.0610389709,-0.7568359375,0.0585937500,0.0888671875,29.7393798828,-5.7678222656,48.1109619141
3.0637509823,-0.7709960938,0.0659179688,0.1254882812,29.2968750000,-5.6610107422,49.9877929688
3.0664560795,-0.7709960938,0.0659179688,0.1254882812,29.2968750000,-5.6610107422,49.9877929688
3.0691711903,-0.7709960938,0.0659179688,0.1254882812,28.3355712891,-6.1950683594,52.2460937500
3.0718841553,-0.7709960938,0.0659179688,0.1254882812,28.3355712891,-6.1950683594,52.2460937500
3.0745840073,-0.7685546875,0.0678710938,0.1445312500,27.8778076172,-6.2561035156,54.4891357422
3.0772991180,-0.7685546875,0.0678710938,0.1445312500,27.8778076172,-6.2561035156,54.4891357422
3.0798740387,-0.7685546875,0.0678710938,0.1445312500,27.9235839844,-6.1645507812,56.3659667969
3.0824441910,-0.7685546875,0.0678710938,0.1445312500,27.9235839844,-6.1645507812,56.3659667969
3.0852000713,-0.7675781250,0.0932617188,0.1406250000,27.5115966797,-7.0190429688,58.6395263672
3.0879790783,-0.7675781250,0.0932617188,0.1406250000,27.5115966797,-7.0190429688,58.6395263672
3.0906951427,-0.7675781250,0.0932617188,0.1406250000,28.3355712891,-7.4615478516,60.7147216797
3.0934131145,-0.7675781250,0.1147460938,0.1293945312,28.3355712891,-7.4615478516,60.7147216797
3.0961201191,-0.7651367188,0.1147460938,0.1293945312,29.7546386719,-7.9650878906,63.1561279297
3.0988450050,-0.7651367188,0.1147460938,0.1293945312,29.7546386719,-7.9650878906,63.1561279297
3.1015481949,-0.7651367188,0.1147460938,0.1293945312,31.0058593750,-8.0871582031,64.9108886719
3.1042571068,-0.7788085938,0.0991210938,0.1406250000,31.0058593750,-8.0871582031,64.9108886719
3.1069731712,-0.7788085938,0.0991210938,0.1406250000,31.1126708984,-7.5683593750,67.4896240234
3.1096839905,-0.7788085938,0.0991210938,0.1406250000,31.1126708984,-7.5683593750,67.4896240234
3.1123900414,-0.7788085938,0.0991210938,0.1406250000,31.5093994141,-7.4310302734,69.9768066406
3.1151020527,-0.8090820312,0.0947265625,0.1440429688,31.5093994141,-7.4310302734,69.9768066406
3.1178030968,-0.8090820312,0.0947265625,0.1440429688,31.6772460938,-7.1258544922,72.8149414062
3.1203851700,-0.8090820312,0.0947265625,0.1440429688,31.6772460938,-7.1258544922,72.8149414062
3.1230621338,-0.8090820312,0.0947265625,0.1665039062,31.6772460938,-7.5225830078,74.5391845703
3.1256351471,-0.8457031250,0.0541992188,0.1665039062,32.5622558594,-7.5225830078,74.5391845703
3.1282191277,-0.8457031250,0.0541992188,0.1665039062,32.5622558594,-11.4288330078,76.3397216797
3.1307930946,-0.8457031250,0.0541992188,0.1665039062,33.7219238281,-8.1176757812,76.3397216797
3.1333689690,-0.8457031250,0.0541992188,0.1303710938,33.7219238281,-8.1176757812,79.8034667969
3.1359491348,-0.9018554688,0.0380859375,0.1303710938,33.1115722656,-8.1024169922,79.8034667969
3.1386430264,-0.9018554688,0.0380859375,0.1303710938,33.1115722656,-8.1024169922,83.8623046875
3.1412250996,-0.9018554688,0.0380859375,0.1303710938,32.1044921875,-7.6446533203,83.8623046875
3.1437959671,-0.9018554688,0.0551757812,0.1049804688,32.1044921875,-7.6446533203,83.8623046875
3.1463670731,-0.9125976562,0.0551757812,0.1049804688,31.6009521484,-8.0261230469,87.3870849609
3.1491169930,-0.9125976562,0.0551757812,0.1049804688,31.6009521484,-8.0261230469,87.3870849609
3.1518201828,-0.9125976562,0.0551757812,0.1049804688,30.9906005859,-8.2702636719,90.4235839844
3.1545290947,-0.9335937500,0.0336914062,0.0341796875,30.9906005859,-8.2702636719,90.4235839844
3.1572470665,-0.9335937500,0.0336914062,0.0341796875,29.8004150391,-7.3852539062,93.8720703125
3.1599490643,-0.9335937500,0.0336914062,0.0341796875,29.8004150391,-7.3852539062,93.8720703125
3.1626579762,-0.9335937500,0.0336914062,0.0341796875,29.5410156250,-6.6986083984,98.1903076172
3.1653580666,-0.9648437500,0.0649414062,0.0102539062,29.5410156250,-6.6986083984,98.1903076172
3.1680610180,-0.9648437500,0.0649414062,0.0102539062,28.3660888672,-7.1868896484,102.7069091797
3.1707701683,-0.9648437500,0.0649414062,0.0102539062,28.3660888672,-7.1868896484,102.7069091797
3.1734750271,-0.9648437500,0.0649414062,-0.0058593750,26.9317626953,-6.9580078125,106.9641113281
3.1761801243,-0.9848632812,0.0581054688,-0.0058593750,26.9317626953,-6.9580078125,106.9641113281
3.1788520813,-0.9848632812,0.0581054688,-0.0058593750,25.3448486328,-7.0037841797,110.1074218750
3.1814291477,-0.9848632812,0.0581054688,-0.0058593750,25.3448486328,-7.0037841797,110.1074218750
3.1840081215,-0.9848632812,0.0581054688,0.0087890625,24.2614746094,-6.3629150391,113.8153076172
3.1865820885,-0.9995117188,0.0581054688,0.0087890625,24.2614746094,-6.3629150391,113.8153076172
3.1893730164,-0.9995117188,0.0581054688,0.0087890625,23.1323242188,-6.3323974609,117.3858642578
3.1920840740,-0.9995117188,0.0581054688,0.0087890625,23.1323242188,-6.3323974609,117.3858642578
3.1947891712,-0.9970703125,0.0688476562,0.0434570312,22.8271484375,-6.8206787109,121.0174560547
3.1975331306,-0.9970703125,0.0688476562,0.0434570312,22.8271484375,-6.8206787109,121.0174560547
3.2002420425,-0.9970703125,0.0688476562,0.0434570312,22.7508544922,-7.0037841797,124.4506835938
3.2029411793,-0.9970703125,0.0688476562,0.0434570312,22.7508544922,-7.0037841797,124.4506835938
3.2058100700,-0.9960937500,0.0659179688,0.0673828125,24.6582031250,-7.4157714844,127.8076171875
3.2085561752,-0.9960937500,0.0659179688,0.0673828125,24.6582031250,-7.4157714844,127.8076171875
3.2112610340,-0.9960937500,0.0659179688,0.0673828125,27.2674560547,-7.9498291016,130.8898925781
3.2139661312,-0.9960937500,0.0659179688,0.0966796875,27.2674560547,-7.9498291016,130.8898925781
3.2166759968,-1.0029296875,0.0390625000,0.0966796875,30.1666259766,-8.6822509766,133.8653564453
3.2193961143,-1.0029296875,0.0390625000,0.0966796875,30.1666259766,-8.6822509766,133.8653564453
3.2221021652,-1.0029296875,0.0390625000,0.0966796875,33.9508056641,-9.8724365234,137.0391845703
3.2247991562,-1.0029296875,-0.0092773438,0.1269531250,33.9508056641,-9.8724365234,137.0391845703
3.2275371552,-1.0366210938,-0.0092773438,0.1269531250,36.4379882812,-10.3912353516,140.3961181641
3.2301170826,-1.0366210938,-0.0092773438,0.1269531250,36.4379882812,-10.3912353516,140.3961181641
3.2326900959,-1.0366210938,-0.0092773438,0.1269531250,39.4439697266,-11.2915039062,144.4702148438
3.2352681160,-1.1049804688,-0.0610351562,0.1616210938,39.4439697266,-11.2915039062,144.4702148438
3.2378511429,-1.1049804688,-0.0610351562,0.1616210938,43.4722900391,-12.3748779297,148.6663818359
3.2404310703,-1.1049804688,-0.0610351562,0.1616210938,43.4722900391,-12.3748779297,148.6663818359
3.2430090904,-1.1049804688,-0.0610351562,0.1616210938,48.6450195312,-14.0686035156,152.2064208984
3.2455880642,-1.1894531250,-0.0839843750,0.1894531250,48.6450195312,-14.0686035156,152.2064208984
3.2482550144,-1.1894531250,-0.0839843750,0.1894531250,52.5512695312,-16.8304443359,155.2124023438
3.2508320808,-1.1894531250,-0.0839843750,0.1894531250,54.4433593750,-16.8304443359,155.2124023438
3.2535140514,-1.1894531250,-0.0839843750,0.1894531250,54.4433593750,-19.3481445312,156.9213867188
3.2560951710,-1.2939453125,-0.1054687500,0.2250976562,64.1937255859,-19.3481445312,156.9213867188
3.2588820457,-1.2939453125,-0.1054687500,0.2250976562,64.1937255859,-22.4914550781,157.1655273438
3.2615602016,-1.2939453125,-0.1054687500,0.2250976562,78.1097412109,-22.4914550781,157.1655273438
3.2641410828,-1.2939453125,-0.1054687500,0.3500976562,78.1097412109,-30.3039550781,155.6854248047
3.2667241096,-1.3920898438,-0.0659179688,0.2626953125,94.9096679688,-27.5268554688,155.6854248047
3.2695171833,-1.3920898438,-0.0659179688,0.2626953125,94.9096679688,-31.4331054688,152.9846191406
3.2721900940,-1.3920898438,-0.0659179688,0.2626953125,117.2637939453,-32.2570800781,152.9846191406
3.2749581337,-1.3920898438,-0.0717773438,0.2387695312,117.2637939453,-36.1633300781,148.9257812500
3.2780280113,-1.5708007812,-0.0717773438,0.2387695312,143.4020996094,-36.2396240234,148.9257812500
3.2806069851,-1.5708007812,-0.0717773438,0.2387695312,143.4020996094,-36.2396240234,143.9819335938
3.2831881046,-1.5708007812,-0.0717773438,0.2387695312,170.9289550781,-37.5366210938,143.9819335938
3.2857670784,-1.7124023438,-0.2836914062,0.1542968750,170.9289550781,-37.5366210938,141.2963867188
3.2884151936,-1.7124023438,-0.2836914062,0.1542968750,193.9239501953,-35.5072021484,141.2963867188
3.2911269665,-1.7124023438,-0.2836914062,0.1542968750,193.9239501953,-35.5072021484,144.3176269531
3.2938320637,-1.7124023438,-0.2836914062,0.1542968750,203.9947509766,-29.6020507812,144.3176269531
3.2965390682,-1.5395507812,-0.4394531250,0.1655273438,203.9947509766,-29.6020507812,154.8919677734
3.2992680073,-1.5395507812,-0.4394531250,0.1655273438,192.5659179688,-23.3001708984,154.8919677734
3.3019800186,-1.5395507812,-0.4394531250,0.1655273438,192.5659179688,-23.3001708984,168.7927246094
3.3046870232,-1.5395507812,-0.4394531250,0.2402343750,161.0260009766,-17.7764892578,168.7927246094
3.3073849678,-1.3085937500,-0.4594726562,0.2402343750,161.0260009766,-17.7764892578,181.1981201172
3.3099591732,-1.3085937500,-0.4594726562,0.2402343750,118.0572509766,-14.9993896484,181.1981201172
3.3125441074,-1.3085937500,-0.4594726562,0.2402343750,118.0572509766,-14.9993896484,181.1981201172
3.3151180744,-1.3085937500,-0.4594726562,0.3149414062,71.3653564453,-13.2141113281,187.8204345703
3.3178541660,-1.2866210938,-0.4223632812,0.3149414062,71.3653564453,-13.2141113281,187.8204345703
