# time_stamp before, Acceleration x, Acceleration y, Acceleration z, Gyro x, Gyro y, Gyro z
0.0000000000,-0.7324218750,0.0751953125,0.0209960938,-0.3814697266,0.0000000000,0.0610351562
0.0026550293,-0.7324218750,0.0751953125,0.0209960938,0.1983642578,-0.3051757812,0.3051757812
0.0055890083,-0.7324218750,0.0751953125,0.0209960938,0.1983642578,-0.3051757812,0.3051757812
0.0083019733,-0.7397460938,0.0825195312,0.0288085938,0.6561279297,-0.3662109375,0.4425048828
0.0109970570,-0.7397460938,0.0825195312,0.0288085938,0.6561279297,-0.3662109375,0.4425048828
0.0136921406,-0.7397460938,0.0825195312,0.0288085938,0.4272460938,-0.4272460938,0.1831054688
0.0163869858,-0.7397460938,0.0825195312,0.0288085938,0.4272460938,-0.4272460938,0.1831054688
0.0190989971,-0.7319335938,0.0722656250,0.0332031250,0.0152587891,-0.3662109375,0.1525878906
0.0217959881,-0.7319335938,0.0722656250,0.0332031250,0.0152587891,-0.3662109375,0.1525878906
0.0244910717,-0.7319335938,0.0722656250,0.0332031250,-0.0152587891,-0.2136230469,0.4272460938
0.0271880627,-0.7319335938,0.0722656250,0.0307617188,-0.0152587891,-0.2136230469,0.4272460938
0.0297930241,-0.7309570312,0.0717773438,0.0307617188,0.0000000000,-0.4119873047,0.3814697266
0.0323500633,-0.7309570312,0.0717773438,0.0307617188,0.0000000000,-0.4119873047,0.3814697266
0.0349130630,-0.7309570312,0.0717773438,0.0307617188,-0.3204345703,-0.1831054688,0.3356933594
0.0374860764,-0.7309570312,0.0717773438,0.0322265625,-0.3204345703,-0.1831054688,0.3356933594
0.0401871204,-0.7353515625,0.0717773438,0.0322265625,-0.1068115234,-0.0762939453,0.4119873047
0.0427551270,-0.7353515625,0.0717773438,0.0322265625,-0.1068115234,-0.0762939453,0.4119873047
0.0453231335,-0.7353515625,0.0717773438,0.0322265625,0.3814697266,-0.0610351562,0.5340576172
0.0479450226,-0.7353515625,0.0722656250,0.0395507812,0.3814697266,-0.0610351562,0.5340576172
0.0505199432,-0.7333984375,0.0722656250,0.0395507812,0.3814697266,-0.1525878906,0.1068115234
0.0532441139,-0.7333984375,0.0722656250,0.0395507812,0.3509521484,-0.1525878906,0.1068115234
0.0558180809,-0.7333984375,0.0722656250,0.0395507812,0.3509521484,-0.1525878906,0.1831054688
0.0584280491,-0.7290039062,0.0810546875,0.0317382812,0.3204345703,-0.1831054688,0.1831054688
0.0611181259,-0.7290039062,0.0810546875,0.0317382812,0.3204345703,-0.1831054688,0.5645751953
0.0638020039,-0.7290039062,0.0810546875,0.0317382812,0.7324218750,-0.1983642578,0.5645751953
0.0664851665,-0.7290039062,0.0810546875,0.0317382812,0.7324218750,-0.1983642578,0.4425048828
0.0691771507,-0.7304687500,0.0776367188,0.0366210938,0.9765625000,-0.3967285156,0.4425048828
0.0718641281,-0.7304687500,0.0776367188,0.0366210938,0.9765625000,-0.3967285156,0.1678466797
0.0745511055,-0.7304687500,0.0776367188,0.0366210938,0.3051757812,-0.0457763672,0.1678466797
0.0772380829,-0.7304687500,0.0776367188,0.0366210938,0.3051757812,-0.0457763672,0.1831054688
0.0798730850,-0.7324218750,0.0756835938,0.0322265625,0.4425048828,-0.2593994141,0.1831054688
0.0824410915,-0.7324218750,0.0756835938,0.0322265625,0.4425048828,-0.2593994141,0.1831054688
0.0850069523,-0.7324218750,0.0756835938,0.0322265625,0.3662109375,-0.4577636719,0.1068115234
0.0875749588,-0.7324218750,0.0756835938,0.0292968750,0.3662109375,-0.4577636719,0.1068115234
0.0904369354,-0.7329101562,0.0747070312,0.0292968750,0.0152587891,-0.0305175781,0.0915527344
0.0930020809,-0.7329101562,0.0747070312,0.0292968750,0.0152587891,-0.0305175781,0.0915527344
0.0955641270,-0.7329101562,0.0747070312,0.0292968750,-0.0457763672,-0.4882812500,-0.1983642578
0.0982770920,-0.7329101562,0.0751953125,0.0332031250,-0.0457763672,-0.4882812500,-0.1983642578
0.1009521484,-0.7343750000,0.0751953125,0.0332031250,-0.0305175781,-0.1220703125,-0.0457763672
0.1037149429,-0.7343750000,0.0751953125,0.0332031250,-0.0305175781,-0.1220703125,-0.0457763672
0.1065621376,-0.7343750000,0.0751953125,0.0332031250,-0.3967285156,0.2593994141,0.0152587891
0.1092829704,-0.7285156250,0.0781250000,0.0244140625,-0.3967285156,0.2593994141,0.0152587891
0.1119849682,-0.7285156250,0.0781250000,0.0244140625,-0.0762939453,-0.0305175781,0.0152587891
0.1146841049,-0.7285156250,0.0781250000,0.0244140625,-0.0762939453,-0.0305175781,0.0152587891
0.1174941063,-0.7285156250,0.0781250000,0.0244140625,-0.0610351562,-0.2288818359,0.0457763672
0.1201989651,-0.7290039062,0.0771484375,0.0336914062,-0.0610351562,-0.2288818359,0.0457763672
0.1228981018,-0.7290039062,0.0771484375,0.0336914062,-0.3509521484,-0.3662109375,-0.0305175781
0.1256000996,-0.7290039062,0.0771484375,0.0336914062,-0.3509521484,-0.3662109375,-0.0305175781
0.1282930374,-0.7290039062,0.0771484375,0.0332031250,-0.5340576172,-0.2288818359,-0.1678466797
0.1308579445,-0.7290039062,0.0800781250,0.0332031250,-0.5340576172,-0.2288818359,-0.1678466797
0.1334259510,-0.7290039062,0.0800781250,0.0332031250,-0.7629394531,0.0762939453,-0.1373291016
0.1359910965,-0.7290039062,0.0800781250,0.0332031250,-0.7629394531,0.0762939453,-0.1373291016
0.1385681629,-0.7290039062,0.0776367188,0.0278320312,-0.6103515625,0.1373291016,-0.2288818359
0.1411359310,-0.7299804688,0.0776367188,0.0278320312,-0.6103515625,0.1373291016,-0.2288818359
0.1436989307,-0.7299804688,0.0776367188,0.0278320312,-0.4730224609,0.1678466797,-0.0305175781
0.1462640762,-0.7299804688,0.0776367188,0.0278320312,-0.4730224609,0.1678466797,-0.0305175781
0.1489789486,-0.7299804688,0.0737304688,0.0351562500,-0.4272460938,0.0000000000,0.0152587891
0.1515469551,-0.7402343750,0.0737304688,0.0351562500,-0.4272460938,0.0000000000,0.0152587891
0.1541161537,-0.7402343750,0.0737304688,0.0351562500,-0.4272460938,-0.1678466797,-0.0457763672
0.1566760540,-0.7402343750,0.0737304688,0.0351562500,-0.3051757812,-0.1678466797,-0.0457763672
0.1594209671,-0.7270507812,0.0703125000,0.0385742188,-0.3051757812,0.1678466797,-0.0762939453
0.1621251106,-0.7270507812,0.0703125000,0.0385742188,-0.8239746094,0.1678466797,-0.0762939453
0.1648280621,-0.7270507812,0.0703125000,0.0385742188,-0.8239746094,0.1525878906,-0.0152587891
0.1675260067,-0.7270507812,0.0703125000,0.0385742188,-0.8850097656,0.1525878906,-0.0152587891
0.1702871323,-0.7377929688,0.0795898438,0.0302734375,-0.8850097656,-0.1373291016,-0.0762939453
0.1729850769,-0.7377929688,0.0795898438,0.0302734375,-0.9918212891,-0.1373291016,-0.0762939453
0.1756851673,-0.7377929688,0.0795898438,0.0302734375,-0.9918212891,-0.1068115234,-0.0457763672
0.1783621311,-0.7377929688,0.0795898438,0.0302734375,-1.2207031250,-0.1068115234,-0.0457763672
0.1810431480,-0.7368164062,0.0815429688,0.0288085938,-1.2207031250,-0.1068115234,-0.0152587891
0.1836099625,-0.7368164062,0.0815429688,0.0288085938,-1.1444091797,-0.0305175781,-0.0152587891
0.1861710548,-0.7368164062,0.0815429688,0.0288085938,-1.1444091797,-0.0305175781,-0.0152587891
0.1887941360,-0.7368164062,0.0815429688,0.0341796875,-0.9155273438,-0.0305175781,-0.0152587891
0.1914930344,-0.7373046875,0.0756835938,0.0341796875,-0.9155273438,-0.0305175781,-0.1068115234
0.1941900253,-0.7373046875,0.0756835938,0.0341796875,-0.4577636719,-0.0152587891,-0.1068115234
0.1968920231,-0.7373046875,0.0756835938,0.0341796875,-0.4577636719,-0.0152587891,0.0762939453
0.1995990276,-0.7368164062,0.0761718750,0.0415039062,-0.6256103516,0.0610351562,0.0762939453
0.2022981644,-0.7368164062,0.0761718750,0.0415039062,-0.6256103516,0.0610351562,0.0915527344
0.2049961090,-0.7368164062,0.0761718750,0.0415039062,-0.7019042969,-0.0152587891,0.0915527344
0.2076959610,-0.7368164062,0.0761718750,0.0415039062,-0.7019042969,-0.0152587891,-0.0610351562
0.2104101181,-0.7368164062,0.0800781250,0.0229492188,-0.6103515625,-0.1068115234,-0.0610351562
0.2131090164,-0.7368164062,0.0800781250,0.0229492188,-0.6103515625,-0.1068115234,-0.2441406250
0.2159750462,-0.7368164062,0.0800781250,0.0229492188,-1.0528564453,-0.0457763672,-0.2441406250
0.2194240093,-0.7368164062,0.0756835938,0.0371093750,-1.0528564453,0.0152587891,-0.3967285156
0.2219891548,-0.7373046875,0.0756835938,0.0371093750,-0.4882812500,0.0152587891,-0.3967285156
0.2245521545,-0.7373046875,0.0756835938,0.0371093750,-0.4882812500,0.0152587891,-0.2593994141
0.2271151543,-0.7373046875,0.0756835938,0.0371093750,-0.5645751953,0.1068115234,-0.2593994141
0.2298030853,-0.7373046875,0.0732421875,0.0380859375,-0.5645751953,0.1068115234,-0.2136230469
0.2323679924,-0.7363281250,0.0732421875,0.0380859375,-0.5645751953,-0.1831054688,-0.2136230469
0.2349231243,-0.7363281250,0.0732421875,0.0380859375,-0.5645751953,-0.1831054688,-0.2136230469
0.2374839783,-0.7363281250,0.0732421875,0.0380859375,-0.1068115234,-0.1373291016,-0.3967285156
0.2400560379,-0.7353515625,0.0751953125,0.0336914062,-0.1068115234,-0.1373291016,-0.3967285156
0.2426221371,-0.7353515625,0.0751953125,0.0336914062,0.1831054688,-0.1373291016,-0.2136230469
0.2452890873,-0.7353515625,0.0751953125,0.0336914062,0.1831054688,-0.1373291016,-0.2136230469
0.2478511333,-0.7353515625,0.0751953125,0.0336914062,-0.0762939453,-0.1983642578,-0.2746582031
0.2504091263,-0.7333984375,0.0771484375,0.0312500000,-0.0762939453,-0.1983642578,-0.2746582031
0.2529690266,-0.7333984375,0.0771484375,0.0312500000,-0.2136230469,-0.5340576172,-0.3356933594
0.2555279732,-0.7333984375,0.0771484375,0.0312500000,-0.2136230469,-0.5340576172,-0.3356933594
0.2581281662,-0.7333984375,0.0771484375,0.0312500000,-0.3204345703,-0.4882812500,-0.3509521484
0.2606949806,-0.7304687500,0.0727539062,0.0297851562,-0.3204345703,-0.4882812500,-0.3509521484
0.2632639408,-0.7304687500,0.0727539062,0.0297851562,-0.6561279297,-0.3814697266,-0.2441406250
0.2658240795,-0.7304687500,0.0727539062,0.0297851562,-0.6561279297,-0.3814697266,-0.2441406250
0.2684299946,-0.7304687500,0.0727539062,0.0297851562,3.2501220703,-0.3509521484,-0.3204345703
0.2709889412,-0.7309570312,0.0810546875,0.0288085938,0.1220703125,-0.3509521484,-0.3204345703
0.2735500336,-0.7309570312,0.0810546875,0.0288085938,0.1220703125,-0.3509521484,-0.4119873047
0.2761099339,-0.7309570312,0.0810546875,0.0288085938,-0.0152587891,-0.2593994141,-0.4119873047
0.2787771225,-0.7309570312,0.0810546875,0.0288085938,-0.0152587891,-0.2593994141,-0.3509521484
0.2813429832,-0.7260742188,0.0717773438,0.0317382812,0.1525878906,-0.0457763672,-0.3509521484
0.2839059830,-0.7260742188,0.0717773438,0.0317382812,0.1525878906,-0.0457763672,-0.3509521484
0.2864711285,-0.7260742188,0.0717773438,0.0317382812,-0.5035400391,0.1373291016,-0.0762939453
0.2890570164,-0.7260742188,0.0717773438,0.0317382812,-0.5035400391,0.1373291016,-0.0762939453
0.2916171551,-0.7329101562,0.0717773438,0.0375976562,-0.5187988281,0.2136230469,-0.0610351562
0.2941751480,-0.7329101562,0.0717773438,0.0375976562,-0.5187988281,0.2136230469,-0.0610351562
0.2967410088,-0.7329101562,0.0717773438,0.0375976562,-0.0915527344,0.0610351562,-0.1831054688
0.2993929386,-0.7329101562,0.0717773438,0.0375976562,-0.0915527344,0.0610351562,-0.1831054688
0.3021030426,-0.7309570312,0.0771484375,0.0229492188,-0.0915527344,-0.1525878906,-0.3204345703
0.3048009872,-0.7309570312,0.0771484375,0.0229492188,-0.0915527344,-0.1525878906,-0.3204345703
0.3076059818,-0.7309570312,0.0771484375,0.0229492188,0.1220703125,-0.0305175781,-0.3509521484
0.3103189468,-0.7309570312,0.0722656250,0.0371093750,0.1220703125,-0.0305175781,-0.3509521484
0.3130140305,-0.7304687500,0.0722656250,0.0371093750,-0.0457763672,-0.0915527344,-0.5187988281
0.3157091141,-0.7304687500,0.0722656250,0.0371093750,-0.0457763672,-0.0915527344,-0.5187988281
0.3184111118,-0.7304687500,0.0722656250,0.0371093750,0.5187988281,-0.0610351562,-0.2593994141
0.3211121559,-0.7304687500,0.0805664062,0.0375976562,0.5187988281,-0.0610351562,-0.2593994141
0.3238091469,-0.7304687500,0.0805664062,0.0375976562,-0.1525878906,-0.0457763672,-0.1525878906
0.3265049458,-0.7304687500,0.0805664062,0.0375976562,-0.1525878906,-0.0457763672,-0.1525878906
0.3291599751,-0.7304687500,0.0805664062,0.0375976562,-0.0610351562,0.1525878906,-0.3662109375
0.3317310810,-0.7363281250,0.0800781250,0.0278320312,-0.0610351562,0.1525878906,-0.3662109375
0.3343441486,-0.7363281250,0.0800781250,0.0278320312,-0.2288818359,0.4272460938,-0.4882812500
0.3369250298,-0.7363281250,0.0800781250,0.0278320312,-0.2288818359,0.4272460938,-0.4882812500
0.3395600319,-0.7363281250,0.0800781250,0.0278320312,-0.0457763672,0.1525878906,-0.5035400391
0.3422241211,-0.7343750000,0.0815429688,0.0297851562,-0.0457763672,0.1525878906,-0.5035400391
0.3449230194,-0.7343750000,0.0815429688,0.0297851562,0.2746582031,-0.3967285156,-0.9613037109
0.3476250172,-0.7343750000,0.0815429688,0.0297851562,0.2746582031,-0.3967285156,-0.9613037109
0.3503439426,-0.7343750000,0.0815429688,0.0327148438,0.0457763672,-0.2593994141,-1.0681152344
0.3530390263,-0.7363281250,0.0737304688,0.0327148438,0.0457763672,-0.2593994141,-1.0681152344
0.3557460308,-0.7363281250,0.0737304688,0.0327148438,0.2593994141,-0.2899169922,-1.0070800781
0.3584840298,-0.7363281250,0.0737304688,0.0327148438,0.2593994141,-0.2899169922,-1.0070800781
0.3611819744,-0.7363281250,0.0737304688,0.0341796875,0.2288818359,-0.3051757812,-0.7934570312
0.3638870716,-0.7363281250,0.0737304688,0.0341796875,0.2288818359,-0.3051757812,-0.7934570312
0.3665831089,-0.7363281250,0.0737304688,0.0341796875,-0.0457763672,0.1220703125,-0.6256103516
0.3692259789,-0.7363281250,0.0737304688,0.0341796875,-0.0457763672,0.1220703125,-0.6256103516
0.3718950748,-0.7368164062,0.0717773438,0.0400390625,-0.0152587891,0.2136230469,-0.3356933594
0.3744659424,-0.7368164062,0.0717773438,0.0400390625,-0.0152587891,0.2136230469,-0.3356933594
0.3770339489,-0.7368164062,0.0717773438,0.0400390625,-0.0152587891,0.1068115234,-0.6103515625
0.3797500134,-0.7368164062,0.0717773438,0.0400390625,-0.0305175781,0.1068115234,-0.6103515625
0.3823170662,-0.7397460938,0.0761718750,0.0297851562,-0.0305175781,-3.7994384766,-0.6256103516
0.3848869801,-0.7397460938,0.0761718750,0.0297851562,0.1068115234,-0.0915527344,-0.6256103516
0.3874549866,-0.7397460938,0.0761718750,0.0297851562,0.1068115234,-0.0915527344,-0.2288818359
0.3902361393,-0.7397460938,0.0761718750,0.0297851562,0.1373291016,0.1068115234,-0.2288818359
0.3929419518,-0.7290039062,0.0747070312,0.0346679688,0.1373291016,0.1068115234,-0.1068115234
0.3956480026,-0.7290039062,0.0747070312,0.0346679688,0.1373291016,0.1068115234,-0.1068115234
0.3983609676,-0.7290039062,0.0747070312,0.0346679688,0.1373291016,0.1068115234,-0.2899169922
0.4010610580,-0.7290039062,0.0732421875,0.0371093750,-0.0457763672,0.3509521484,-0.2899169922
0.4037599564,-0.7358398438,0.0732421875,0.0371093750,-0.0457763672,0.3509521484,-0.2441406250
0.4064640999,-0.7358398438,0.0732421875,0.0371093750,0.1068115234,0.3051757812,-0.2441406250
0.4091751575,-0.7358398438,0.0732421875,0.0371093750,0.1068115234,0.3051757812,-0.2441406250
0.4118700027,-0.7373046875,0.0737304688,0.0341796875,0.0000000000,0.4119873047,-0.2441406250
0.4145750999,-0.7373046875,0.0737304688,0.0341796875,0.0000000000,0.4119873047,-0.0152587891
0.4172739983,-0.7373046875,0.0737304688,0.0341796875,0.1525878906,0.1831054688,-0.0152587891
0.4199919701,-0.7373046875,0.0737304688,0.0341796875,0.1525878906,0.1831054688,-0.0152587891
0.4227671623,-0.7382812500,0.0751953125,0.0361328125,0.1525878906,0.1831054688,-0.0152587891
0.4253261089,-0.7382812500,0.0751953125,0.0361328125,0.1525878906,0.1831054688,-0.0152587891
0.4279561043,-0.7382812500,0.0751953125,0.0361328125,-0.1831054688,0.3204345703,-0.0762939453
0.4306290150,-0.7382812500,0.0751953125,0.0361328125,-0.1831054688,0.3204345703,-0.0762939453
0.4333701134,-0.7275390625,0.0703125000,0.0244140625,0.0762939453,0.1678466797,0.0000000000
0.4360311031,-0.7275390625,0.0703125000,0.0244140625,0.0762939453,0.1678466797,0.0000000000
0.4389269352,-0.7275390625,0.0703125000,0.0244140625,-0.3051757812,0.4425048828,0.1678466797
0.4416320324,-0.7275390625,0.0712890625,0.0307617188,-0.3051757812,0.4425048828,-3.7384033203
0.4443321228,-0.7358398438,0.0712890625,0.0307617188,-0.2899169922,0.2593994141,-0.0762939453
0.4470291138,-0.7358398438,0.0712890625,0.0307617188,-0.2899169922,0.2593994141,-0.0762939453
0.4497461319,-0.7358398438,0.0712890625,0.0307617188,0.0762939453,0.0152587891,-0.1525878906
0.4524469376,-0.7329101562,0.0732421875,0.0297851562,0.0762939453,0.0152587891,-0.1525878906
0.4551451206,-0.7329101562,0.0732421875,0.0297851562,-0.1831054688,0.1678466797,-0.1831054688
0.4578530788,-0.7329101562,0.0732421875,0.0297851562,-0.1831054688,0.1678466797,-0.1831054688
0.4605519772,-0.7329101562,0.0732421875,0.0297851562,-0.5950927734,0.1373291016,-0.0915527344
0.4632530212,-0.7431640625,0.0791015625,0.0346679688,-0.5950927734,0.1373291016,-0.0915527344
0.4659540653,-0.7431640625,0.0791015625,0.0346679688,-0.7171630859,-0.2593994141,0.0457763672
0.4686591625,-0.7431640625,0.0791015625,0.0346679688,-0.7171630859,-0.2593994141,0.0457763672
0.4712281227,-0.7431640625,0.0791015625,0.0346679688,-0.6866455078,-0.2136230469,-0.0915527344
0.4737989902,-0.7333984375,0.0756835938,0.0200195312,-0.6866455078,-0.2136230469,-0.0915527344
0.4763669968,-0.7333984375,0.0756835938,0.0200195312,-0.6256103516,-0.0305175781,-0.3356933594
0.4789390564,-0.7333984375,0.0756835938,0.0200195312,-0.6256103516,-0.0305175781,-0.3356933594
0.4815001488,-0.7333984375,0.0756835938,0.0371093750,-0.2441406250,-0.0762939453,-0.9460449219
0.4840681553,-0.7353515625,0.0698242188,0.0371093750,-0.2441406250,-0.0762939453,-0.9460449219
0.4866349697,-0.7353515625,0.0698242188,0.0371093750,-0.0305175781,0.0152587891,-0.7171630859
0.4893569946,-0.7353515625,0.0698242188,0.0371093750,-0.0305175781,0.0152587891,-0.7171630859
0.4919240475,-0.7353515625,0.0698242188,0.0336914062,-0.1831054688,0.2136230469,-0.4577636719
0.4944870472,-0.7329101562,0.0766601562,0.0336914062,-0.1831054688,0.2136230469,-0.4577636719
0.4970560074,-0.7329101562,0.0766601562,0.0336914062,-0.1525878906,0.0610351562,-0.3662109375
0.4998221397,-0.7329101562,0.0766601562,0.0336914062,-0.1525878906,0.0610351562,-0.3662109375
0.5026271343,-0.7363281250,0.0747070312,0.0317382812,0.1068115234,0.2441406250,-0.6561279297
0.5053260326,-0.7363281250,0.0747070312,0.0317382812,0.1068115234,0.2441406250,-0.6561279297
0.5080690384,-0.7363281250,0.0747070312,0.0317382812,0.1220703125,0.0152587891,-0.6103515625
0.5107691288,-0.7363281250,0.0747070312,0.0317382812,0.1220703125,0.0152587891,-0.6103515625
0.5134670734,-0.7348632812,0.0766601562,0.0336914062,-0.5187988281,-0.0610351562,-0.4730224609
0.5161659718,-0.7348632812,0.0766601562,0.0336914062,-0.5187988281,-0.0610351562,-0.4730224609
0.5188829899,-0.7348632812,0.0766601562,0.0336914062,-0.0305175781,0.0915527344,-0.7019042969
0.5215821266,-0.7348632812,0.0766601562,0.0336914062,-0.0305175781,0.0915527344,-0.7019042969
0.5242800713,-0.7236328125,0.0771484375,0.0292968750,-0.0610351562,-0.2746582031,-0.4119873047
0.5269789696,-0.7236328125,0.0771484375,0.0292968750,-0.0610351562,-0.2746582031,-0.4119873047
0.5295960903,-0.7236328125,0.0771484375,0.0292968750,-0.0610351562,0.0915527344,-0.1373291016
0.5321609974,-0.7236328125,0.0771484375,0.0390625000,-0.0610351562,0.0915527344,-0.1373291016
0.5347261429,-0.7373046875,0.0727539062,0.0390625000,-0.0610351562,-3.8146972656,-0.0915527344
0.5372910500,-0.7373046875,0.0727539062,0.0390625000,-0.2441406250,-0.1220703125,-0.0915527344
0.5399849415,-0.7373046875,0.0727539062,0.0390625000,-0.2441406250,-0.1220703125,-0.2441406250
0.5426881313,-0.7373046875,0.0747070312,0.0312500000,-0.6866455078,0.0152587891,-0.2441406250
0.5453829765,-0.7343750000,0.0747070312,0.0312500000,-0.6866455078,0.0152587891,-0.4272460938
0.5480940342,-0.7343750000,0.0747070312,0.0312500000,-0.1220703125,0.1678466797,-0.4272460938
0.5507929325,-0.7343750000,0.0747070312,0.0312500000,-0.1220703125,0.1678466797,-0.3051757812
0.5534989834,-0.7270507812,0.0698242188,0.0249023438,0.3662109375,-0.0915527344,-0.3051757812
0.5564129353,-0.7270507812,0.0698242188,0.0249023438,0.3662109375,3.8146972656,-0.1220703125
0.5594489574,-0.7270507812,0.0698242188,0.0249023438,0.0915527344,0.2899169922,-0.1220703125
0.5621540546,-0.7270507812,0.0698242188,0.0249023438,-3.8146972656,0.3204345703,-0.1525878906
0.5648541451,-0.7353515625,0.0727539062,0.0273437500,-0.4425048828,0.3204345703,-0.1525878906
0.5676519871,-0.7353515625,0.0727539062,0.0273437500,-0.4425048828,-0.0457763672,0.0610351562
0.5703630447,-0.7353515625,0.0727539062,0.0273437500,-0.2288818359,-0.0457763672,0.0610351562
0.5730631351,-0.7353515625,0.0722656250,0.0395507812,-0.2288818359,0.2288818359,0.1678466797
0.5757601261,-0.7329101562,0.0722656250,0.0395507812,-0.3509521484,0.2288818359,0.1678466797
0.5784461498,-0.7329101562,0.0722656250,0.0395507812,-0.3509521484,0.2136230469,0.1525878906
0.5810141563,-0.7329101562,0.0722656250,0.0395507812,-0.3814697266,0.2136230469,0.1525878906
0.5835750103,-0.7368164062,0.0590820312,0.0317382812,-0.3814697266,0.2136230469,0.2441406250
0.5861361027,-0.7368164062,0.0590820312,0.0317382812,-0.4119873047,-0.1525878906,0.2441406250
0.5887081623,-0.7368164062,0.0590820312,0.0317382812,-0.4119873047,-0.1525878906,0.2441406250
0.5912749767,-0.7368164062,0.0590820312,0.0317382812,0.4119873047,-0.3204345703,0.3509521484
0.5938391685,-0.7397460938,0.0795898438,0.0375976562,0.4119873047,-0.3204345703,0.3509521484
0.5964069366,-0.7397460938,0.0795898438,0.0375976562,0.3814697266,-0.2136230469,0.7629394531
0.5990209579,-0.7397460938,0.0795898438,0.0375976562,0.3814697266,-0.2136230469,0.7629394531
0.6015861034,-0.7397460938,0.0795898438,0.0375976562,0.5035400391,-0.1983642578,0.6561279297
0.6041510105,-0.7353515625,0.0693359375,0.0385742188,0.5035400391,-0.1983642578,0.6561279297
0.6067140102,-0.7353515625,0.0693359375,0.0385742188,0.0915527344,-0.1068115234,0.4425048828
0.6093850136,-0.7353515625,0.0693359375,0.0385742188,0.0915527344,-0.1068115234,0.4425048828
0.6119580269,-0.7353515625,0.0693359375,0.0385742188,-0.3814697266,0.0457763672,0.2746582031
0.6145229340,-0.7319335938,0.0693359375,0.0424804688,-0.3814697266,0.0457763672,0.2746582031
0.6170940399,-0.7319335938,0.0693359375,0.0424804688,-0.9155273438,0.1373291016,0.5187988281
0.6198410988,-0.7319335938,0.0693359375,0.0424804688,-0.9155273438,0.1373291016,0.5187988281
0.6225430965,-0.7319335938,0.0693359375,0.0424804688,-1.2207031250,0.0000000000,0.8392333984
0.6252419949,-0.7250976562,0.0600585938,0.0351562500,-1.2207031250,0.0000000000,0.8392333984
0.6279301643,-0.7250976562,0.0600585938,0.0351562500,-1.4343261719,-0.0762939453,1.2207031250
0.6306011677,-0.7250976562,0.0600585938,0.0351562500,-1.4343261719,-0.0762939453,1.2207031250
0.6331679821,-0.7250976562,0.0600585938,0.0292968750,-2.1972656250,-0.2288818359,1.2817382812
0.6357350349,-0.7124023438,0.0590820312,0.0292968750,-2.1972656250,-0.2288818359,1.2817382812
0.6383340359,-0.7124023438,0.0590820312,0.0292968750,-2.1972656250,-0.2441406250,1.3732910156
0.6408939362,-0.7124023438,0.0590820312,0.0292968750,-2.4719238281,-0.2441406250,1.3732910156
0.6434540749,-0.7124023438,0.0590820312,0.0224609375,-2.4719238281,-0.2441406250,1.6937255859
0.6460130215,-0.7333984375,0.0654296875,0.0224609375,-2.3651123047,-0.1525878906,1.6937255859
0.6485719681,-0.7333984375,0.0654296875,0.0224609375,-2.3651123047,-0.1525878906,1.6937255859
0.6511330605,-0.7333984375,0.0654296875,0.0224609375,-1.7700195312,-0.2136230469,2.1209716797
0.6536910534,-0.7333984375,0.0727539062,0.0253906250,-1.7700195312,-0.2136230469,2.1209716797
0.6562500000,-0.7431640625,0.0727539062,0.0253906250,-1.3580322266,-0.2441406250,2.2277832031
0.6588799953,-0.7431640625,0.0727539062,0.0253906250,-1.3580322266,-0.2441406250,2.2277832031
0.6614379883,-0.7431640625,0.0727539062,0.0253906250,-1.0833740234,-0.4425048828,1.9531250000
0.6639981270,-0.7431640625,0.0781250000,0.0292968750,-1.0833740234,-0.4425048828,1.9531250000
0.6665620804,-0.7402343750,0.0781250000,0.0292968750,-1.0681152344,-0.3356933594,1.8005371094
0.6691319942,-0.7402343750,0.0781250000,0.0292968750,-1.0681152344,-0.3356933594,1.8005371094
0.6716930866,-0.7402343750,0.0781250000,0.0292968750,-0.8697509766,-0.3356933594,1.8768310547
0.6745009422,-0.7436523438,0.0834960938,0.0234375000,-0.8697509766,-0.3356933594,1.8768310547
0.6770670414,-0.7436523438,0.0834960938,0.0234375000,-0.7019042969,-0.0457763672,2.2277832031
0.6799490452,-0.7436523438,0.0834960938,0.0234375000,-0.7019042969,-0.0457763672,2.2277832031
0.6825189590,-0.7436523438,0.0834960938,0.0234375000,-1.2512207031,0.0762939453,1.8310546875
0.6850891113,-0.7280273438,0.0800781250,0.0351562500,-1.2512207031,0.0762939453,1.8310546875
0.6876530647,-0.7280273438,0.0800781250,0.0351562500,-1.6784667969,-0.4730224609,1.4801025391
0.6903679371,-0.7280273438,0.0800781250,0.0351562500,-1.6784667969,-0.4730224609,1.4801025391
0.6931741238,-0.7280273438,0.0800781250,0.0351562500,-3.2196044922,-0.4730224609,1.4038085938
0.6958780289,-0.7216796875,0.0649414062,0.0346679688,-3.2196044922,-0.4730224609,1.4038085938
0.6985869408,-0.7216796875,0.0649414062,0.0346679688,-4.4860839844,-0.5950927734,1.2969970703
0.7012901306,-0.7216796875,0.0649414062,0.0346679688,-4.4860839844,-0.5950927734,1.2969970703
0.7039830685,-0.7216796875,0.0649414062,0.0156250000,-5.5541992188,-0.1220703125,2.3956298828
0.7066850662,-0.7158203125,0.0742187500,0.0156250000,-5.5541992188,-0.1220703125,2.3956298828
0.7093219757,-0.7158203125,0.0742187500,0.0156250000,-5.5541992188,0.5493164062,3.4027099609
0.7118861675,-0.7158203125,0.0742187500,0.0156250000,-6.0577392578,0.5493164062,3.4027099609
0.7144520283,-0.7158203125,0.0991210938,0.0102539062,-6.0577392578,0.5493164062,3.9062500000
0.7170200348,-0.7333984375,0.0991210938,0.0102539062,-5.9204101562,0.7324218750,3.9062500000
0.7196321487,-0.7333984375,0.0991210938,0.0102539062,-5.9204101562,0.7324218750,3.9062500000
0.7222001553,-0.7333984375,0.0991210938,0.0102539062,-4.4860839844,0.2899169922,3.9062500000
0.7247641087,-0.8583984375,0.0825195312,0.0166015625,-4.4860839844,0.2899169922,0.0000000000
0.7273271084,-0.7504882812,0.0825195312,0.0166015625,-3.4332275391,0.3662109375,3.8452148438
0.7299439907,-0.7504882812,0.0825195312,0.0166015625,-3.4332275391,0.3662109375,3.8452148438
0.7325091362,-0.7504882812,0.0825195312,0.0166015625,-2.3498535156,0.1373291016,4.3487548828
0.7350730896,-0.7592773438,0.0444335938,0.0351562500,-2.3498535156,0.1373291016,4.3487548828
0.7376410961,-0.7592773438,0.0444335938,0.0351562500,-1.9989013672,0.1220703125,4.2266845703
0.7404470444,-0.7592773438,0.0444335938,0.0351562500,-1.9989013672,0.1220703125,4.2266845703
0.7431340218,-0.7592773438,0.0444335938,0.0351562500,-2.9449462891,0.0152587891,4.6386718750
0.7458119392,-0.7534179688,0.0488281250,0.0258789062,-2.9449462891,0.0152587891,4.6386718750
0.7485060692,-0.7534179688,0.0488281250,0.0258789062,-4.2419433594,-0.3356933594,4.5928955078
0.7511880398,-0.7534179688,0.0488281250,0.0258789062,-4.2419433594,-0.3356933594,4.5928955078
0.7538690567,-0.7534179688,0.0488281250,0.0258789062,-4.8980712891,-0.9613037109,4.0435791016
0.7566659451,-0.7397460938,0.0908203125,0.0322265625,-4.8980712891,-0.9613037109,4.0435791016
0.7593619823,-0.7397460938,0.0908203125,0.0322265625,-5.1574707031,-1.0528564453,3.7841796875
0.7620410919,-0.7397460938,0.0908203125,0.0322265625,-5.1574707031,-1.0528564453,3.7841796875
0.7647230625,-0.7397460938,0.1064453125,0.0522460938,-4.2266845703,-0.9155273438,3.7536621094
0.7674019337,-0.7363281250,0.1064453125,0.0522460938,-4.2266845703,-0.9155273438,3.7536621094
0.7700941563,-0.7363281250,0.1064453125,0.0522460938,-2.9449462891,-0.4882812500,3.3111572266
0.7727749348,-0.7363281250,0.1064453125,0.0522460938,-2.9449462891,-0.4882812500,3.3111572266
0.7754571438,-0.7182617188,0.1030273438,0.0454101562,-1.8005371094,-0.0915527344,2.9602050781
0.7781441212,-0.7182617188,0.1030273438,0.0454101562,-1.8005371094,-0.0915527344,2.9602050781
0.7808301449,-0.7182617188,0.1030273438,0.0454101562,-1.0070800781,-0.2593994141,2.6855468750
0.7835099697,-0.7182617188,0.1030273438,0.0454101562,-1.0070800781,-0.2593994141,2.6855468750
0.7861881256,-0.7143554688,0.0991210938,0.0449218750,-0.0457763672,-0.0610351562,2.5634765625
0.7888860703,-0.7143554688,0.0991210938,0.0449218750,-0.0457763672,-0.0610351562,2.5634765625
0.7915811539,-0.7143554688,0.0991210938,0.0449218750,0.4119873047,-0.1373291016,1.9378662109
0.7943551540,-0.7143554688,0.0991210938,0.0449218750,0.4119873047,-0.1373291016,1.9378662109
0.7970581055,-0.7324218750,0.0927734375,0.0405273438,1.2054443359,-0.0915527344,1.4801025391
0.7999341488,-0.7324218750,0.0927734375,0.0405273438,1.2054443359,-0.0915527344,1.4801025391
0.8026371002,-0.7324218750,0.0927734375,0.0405273438,1.6174316406,-0.2441406250,1.2817382812
0.8053300381,-0.7324218750,0.0937500000,0.0283203125,1.6174316406,-0.2441406250,1.2817382812
0.8080711365,-0.7299804688,0.0937500000,0.0283203125,2.2125244141,0.0305175781,1.7395019531
0.8107719421,-0.7299804688,0.0937500000,0.0283203125,2.2125244141,0.0305175781,1.7395019531
0.8134641647,-0.7299804688,0.0937500000,0.0283203125,1.9378662109,-0.0305175781,1.5869140625
0.8161571026,-0.7343750000,0.0927734375,0.0249023438,1.9378662109,-0.0305175781,1.5869140625
0.8188979626,-0.7343750000,0.0927734375,0.0249023438,1.3885498047,-0.1983642578,1.2664794922
0.8217051029,-0.7343750000,0.0927734375,0.0249023438,1.3885498047,-0.1983642578,1.2664794922
0.8244061470,-0.7343750000,0.0927734375,0.0249023438,1.2359619141,-0.1373291016,1.2969970703
0.8271000385,-0.7124023438,0.1030273438,0.0224609375,1.2359619141,-0.1373291016,1.2969970703
0.8297049999,-0.7124023438,0.1030273438,0.0224609375,0.4425048828,0.2746582031,1.2969970703
0.8322739601,-0.7124023438,0.1030273438,0.0224609375,0.4425048828,0.2746582031,1.2969970703
0.8348431587,-0.7124023438,0.1030273438,0.0224609375,-0.4730224609,1.2054443359,1.4343261719
0.8374099731,-0.7153320312,0.0903320312,0.0161132812,-0.4730224609,1.2054443359,1.4343261719
0.8400371075,-0.7153320312,0.0903320312,0.0161132812,-1.8920898438,1.9531250000,1.4801025391
0.8426101208,-0.7153320312,0.0903320312,0.0161132812,-1.8920898438,1.9531250000,1.4801025391
0.8451750278,-0.7153320312,0.0903320312,-0.0097656250,-1.8920898438,2.4566650391,2.3040771484
0.8479120731,-0.7128906250,0.0986328125,-0.0097656250,-3.4942626953,2.4566650391,2.3040771484
0.8504829407,-0.7128906250,0.0986328125,-0.0097656250,-3.4942626953,2.4566650391,3.3569335938
0.8530471325,-0.7128906250,0.0986328125,-0.0097656250,-5.4321289062,2.2430419922,3.3569335938
0.8556151390,-0.7128906250,0.0986328125,-0.0161132812,-5.4321289062,2.2430419922,4.8828125000
0.8582170010,-0.7207031250,0.1030273438,-0.0161132812,-5.8898925781,2.3498535156,4.8828125000
0.8609139919,-0.7207031250,0.1030273438,-0.0161132812,-5.8898925781,2.3498535156,6.3323974609
0.8636119366,-0.7207031250,0.1030273438,-0.0161132812,-5.6152343750,1.9226074219,6.3323974609
0.8663079739,-0.7104492188,0.0751953125,-0.0019531250,-5.6152343750,1.9226074219,8.3923339844
0.8690071106,-0.7104492188,0.0751953125,-0.0019531250,-5.5999755859,1.2207031250,8.3923339844
0.8717069626,-0.7104492188,0.0751953125,-0.0019531250,-5.5999755859,1.2207031250,8.3923339844
0.8744080067,-0.7104492188,0.0751953125,-0.0019531250,-6.1340332031,0.6866455078,10.2996826172
0.8771109581,-0.7519531250,0.0058593750,-0.0019531250,-6.1340332031,0.6866455078,14.2059326172
0.8797161579,-0.7519531250,0.0058593750,-0.0019531250,-7.2479248047,0.0000000000,12.3291015625
0.8822901249,-0.7519531250,0.0058593750,-0.0019531250,-7.2479248047,0.0000000000,12.3291015625
0.8849670887,-0.7519531250,0.0058593750,-0.0019531250,-9.9945068359,-1.3275146484,13.6413574219
0.8875391483,-0.7944335938,-0.0771484375,-0.0200195312,-9.9945068359,-1.3275146484,13.6413574219
0.8902821541,-0.7944335938,-0.0771484375,-0.0200195312,-11.7797851562,-1.7547607422,14.4805908203
0.8929870129,-0.7944335938,-0.0771484375,-0.0200195312,-11.7797851562,-1.7547607422,14.4805908203
0.8956961632,-0.7944335938,-0.0771484375,0.0571289062,-14.8162841797,-1.0070800781,15.4876708984
0.8984079361,-0.7802734375,-0.0034179688,0.0571289062,-14.8162841797,-1.0070800781,15.4876708984
0.9011111259,-0.7802734375,-0.0034179688,0.0571289062,-17.3645019531,-0.3204345703,17.7307128906
0.9038259983,-0.7802734375,-0.0034179688,0.0571289062,-17.3645019531,-0.3204345703,17.7307128906
0.9065351486,-0.7802734375,0.0551757812,0.0693359375,-17.5018310547,-0.3356933594,20.0500488281
0.9092869759,-0.7607421875,0.0551757812,0.0693359375,-17.5018310547,-0.3356933594,20.0500488281
0.9119961262,-0.7607421875,0.0551757812,0.0693359375,-16.9982910156,0.5798339844,20.4315185547
0.9148499966,-0.7607421875,0.0551757812,0.0693359375,-16.9982910156,0.5798339844,20.4315185547
0.9179790020,-0.7382812500,0.0615234375,0.0605468750,-16.7694091797,1.4953613281,21.2097167969
0.9205579758,-0.7382812500,0.0615234375,0.0605468750,-16.7694091797,1.4953613281,21.2097167969
0.9231331348,-0.7382812500,0.0615234375,0.0605468750,-15.9301757812,2.3193359375,22.1557617188
0.9257071018,-0.7382812500,0.0615234375,0.0605468750,-15.9301757812,2.3193359375,22.1557617188
0.9283299446,-0.7192382812,0.0590820312,0.0610351562,-15.6097412109,3.6315917969,23.4069824219
0.9310400486,-0.7192382812,0.0590820312,0.0610351562,-15.6097412109,3.6315917969,23.4069824219
0.9337501526,-0.7192382812,0.0590820312,0.0610351562,-16.3726806641,4.4708251953,24.1546630859
0.9364531040,-0.7192382812,0.0869140625,0.0727539062,-16.3726806641,4.4708251953,24.1546630859
0.9391720295,-0.7031250000,0.0869140625,0.0727539062,-17.2119140625,4.3792724609,24.8413085938
0.9418749809,-0.7031250000,0.0869140625,0.0727539062,-17.2119140625,4.3792724609,24.8413085938
0.9445860386,-0.7031250000,0.0869140625,0.0727539062,-16.5405273438,4.7760009766,25.3906250000
0.9472980499,-0.7148437500,0.1186523438,0.0688476562,-16.5405273438,4.7760009766,25.3906250000
0.9500141144,-0.7148437500,0.1186523438,0.0688476562,-16.4642333984,3.7384033203,25.9857177734
0.9525930882,-0.7148437500,0.1186523438,0.0688476562,-16.4642333984,3.7384033203,25.9857177734
0.9551711082,-0.7148437500,0.1186523438,0.0688476562,-15.8386230469,2.0599365234,24.7344970703
0.9577920437,-0.7329101562,0.0517578125,0.0717773438,-15.8386230469,2.0599365234,24.7344970703
0.9603641033,-0.7329101562,0.0517578125,0.0717773438,-9.9029541016,1.7700195312,21.1791992188
0.9629390240,-0.7329101562,0.0517578125,0.0717773438,-9.9029541016,1.7700195312,21.1791992188
0.9655110836,-0.7329101562,0.0517578125,0.0717773438,-6.0119628906,2.5024414062,18.6767578125
0.9682199955,-0.7622070312,0.1870117188,0.0932617188,-6.0119628906,2.5024414062,18.6767578125
0.9707911015,-0.7622070312,0.1870117188,0.0932617188,-2.9449462891,3.7536621094,17.6544189453
0.9733600616,-0.7622070312,0.1870117188,0.0932617188,-2.9449462891,3.7536621094,17.6544189453
0.9759409428,-0.7622070312,0.1870117188,0.0932617188,0.9613037109,4.5013427734,16.0369873047
0.9786410332,-0.7441406250,0.2519531250,0.0712890625,0.3051757812,4.5013427734,16.0369873047
0.9813330173,-0.7441406250,0.2519531250,0.0712890625,0.3051757812,3.6315917969,13.6718750000
0.9840140343,-0.7441406250,0.2519531250,0.0712890625,2.8381347656,3.6315917969,13.6718750000
0.9866981506,-0.7441406250,0.1269531250,0.0629882812,6.7443847656,3.6468505859,10.9252929688
0.9893910885,-0.7358398438,0.2011718750,0.0629882812,5.3863525391,3.6468505859,10.9252929688
0.9920821190,-0.7358398438,0.2011718750,0.0629882812,5.3863525391,4.5166015625,9.0942382812
0.9947609901,-0.7358398438,0.2011718750,0.0629882812,9.5062255859,4.5166015625,9.0942382812
0.9974429607,-0.7358398438,0.1796875000,0.0488281250,9.5062255859,5.1269531250,7.5988769531
1.0001361370,-0.7382812500,0.1796875000,0.0488281250,11.9628906250,5.1269531250,7.5988769531
1.0028190613,-0.7382812500,0.1796875000,0.0488281250,11.9628906250,5.1269531250,6.5307617188
1.0055041313,-0.7382812500,0.1796875000,0.0488281250,12.8936767578,5.2490234375,6.5307617188
1.0081930161,-0.7397460938,0.1601562500,0.0263671875,12.8936767578,5.2490234375,5.5389404297
1.0108790398,-0.7397460938,0.1601562500,0.0263671875,12.0391845703,5.3100585938,5.5389404297
1.0136680603,-0.7397460938,0.1601562500,0.0263671875,12.0391845703,5.3100585938,5.1727294922
1.0163500309,-0.7397460938,0.1601562500,0.0263671875,9.9029541016,6.0882568359,5.1727294922
1.0191330910,-0.7338867188,0.1459960938,0.0019531250,9.9029541016,6.0882568359,5.5541992188
1.0218160152,-0.7338867188,0.1459960938,0.0019531250,7.9040527344,7.4157714844,5.5541992188
1.0244929790,-0.7338867188,0.1459960938,0.0019531250,7.9040527344,11.3220214844,6.2561035156
1.0271749496,-0.7338867188,0.0209960938,-0.0058593750,5.6304931641,9.2010498047,6.2561035156
1.0298750401,-0.7055664062,0.0913085938,-0.0058593750,5.6304931641,9.2010498047,7.3547363281
1.0325570107,-0.7055664062,0.0913085938,-0.0058593750,2.7465820312,11.5661621094,7.3547363281
1.0354740620,-0.7055664062,0.0913085938,-0.0058593750,2.7465820312,15.4724121094,8.7280273438
1.0385661125,-0.6889648438,0.0341796875,0.0053710938,-1.2207031250,14.0075683594,8.7280273438
1.0412371159,-0.6889648438,0.0341796875,0.0053710938,-5.1269531250,14.6484375000,10.8337402344
1.0439071655,-0.6889648438,0.0341796875,0.0053710938,-5.4473876953,14.6484375000,10.8337402344
1.0466041565,-0.6889648438,0.0341796875,0.0053710938,-9.3536376953,13.9007568359,13.0157470703
1.0493321419,-0.7036132812,0.0361328125,0.0249023438,-9.4299316406,13.9007568359,13.0157470703
1.0520341396,-0.7036132812,0.0361328125,0.0249023438,-13.3361816406,12.8784179688,15.0146484375
1.0547461510,-0.7036132812,0.0361328125,0.0249023438,-12.0544433594,12.8784179688,15.0146484375
1.0574541092,-0.7036132812,0.0361328125,0.0346679688,-12.0544433594,13.2598876953,16.1895751953
1.0601711273,-0.7436523438,0.0751953125,0.0346679688,-14.6484375000,13.2598876953,16.1895751953
1.0628800392,-0.7436523438,0.0751953125,0.0346679688,-14.6484375000,14.0838623047,17.0898437500
1.0655889511,-0.7436523438,0.0751953125,0.0346679688,-15.2282714844,14.0838623047,17.0898437500
1.0682971478,-0.7602539062,0.1220703125,0.0253906250,-15.2282714844,13.9923095703,18.9361572266
1.0708739758,-0.7602539062,0.1220703125,0.0253906250,-14.5263671875,13.9923095703,18.9361572266
1.0734500885,-0.7602539062,0.1220703125,0.0253906250,-14.5263671875,13.9923095703,20.1110839844
1.0760300159,-0.7602539062,0.1220703125,0.0253906250,-14.2669677734,14.0686035156,20.1110839844
1.0788290501,-0.7500000000,0.1396484375,0.0410156250,-14.2669677734,14.0686035156,21.9268798828
1.0814111233,-0.7500000000,0.1396484375,0.0410156250,-12.2680664062,14.4348144531,21.9268798828
1.0839929581,-0.7500000000,0.1396484375,0.0410156250,-12.2680664062,14.4348144531,25.8331298828
1.0865700245,-0.7500000000,0.1396484375,0.0410156250,-10.6964111328,13.8702392578,23.8037109375
1.0891959667,-0.7377929688,0.1083984375,0.0151367188,-10.6964111328,13.8702392578,23.8037109375
1.0917720795,-0.7377929688,0.1083984375,0.0151367188,-9.7045898438,13.5498046875,25.5584716797
1.0943450928,-0.7377929688,0.1083984375,0.0151367188,-9.7045898438,13.5498046875,25.5584716797
1.0969231129,-0.7377929688,0.1083984375,0.0151367188,-9.4451904297,13.2904052734,27.8320312500
1.0996870995,-0.7485351562,0.0688476562,0.0068359375,-9.4451904297,13.2904052734,27.8320312500
1.1023960114,-0.7485351562,0.0688476562,0.0068359375,-10.1928710938,13.0004882812,30.4718017578
1.1051101685,-0.7485351562,0.0688476562,0.0068359375,-10.1928710938,13.0004882812,30.4718017578
1.1078310013,-0.7485351562,0.0688476562,0.0068359375,-11.0931396484,12.7410888672,33.9813232422
1.1105461121,-0.7714843750,0.0678710938,0.0068359375,-11.0931396484,12.7410888672,33.9813232422
1.1132569313,-0.7714843750,0.0678710938,0.0068359375,-12.7258300781,12.5427246094,38.2232666016
1.1159651279,-0.7714843750,0.0678710938,0.0068359375,-12.7258300781,12.5427246094,38.2232666016
1.1186540127,-0.7714843750,0.0532226562,0.0117187500,-14.3737792969,11.6577148438,42.1752929688
1.1212251186,-0.7705078125,0.0532226562,0.0117187500,-14.3737792969,11.6577148438,42.1752929688
1.1237931252,-0.7705078125,0.0532226562,0.0117187500,-14.9536132812,10.9100341797,46.4324951172
1.1263740063,-0.7705078125,0.0532226562,0.0117187500,-14.9536132812,10.9100341797,46.4324951172
1.1290161610,-0.7709960938,0.0185546875,0.0180664062,-13.3972167969,10.2844238281,51.1016845703
1.1317260265,-0.7709960938,0.0185546875,0.0180664062,-13.3972167969,10.2844238281,51.1016845703
1.1344380379,-0.7709960938,0.0185546875,0.0180664062,-11.0473632812,9.4757080078,55.8319091797
1.1371450424,-0.7709960938,0.0185546875,0.0180664062,-11.0473632812,9.4757080078,55.8319091797
1.1398961544,-0.7768554688,-0.0478515625,0.0253906250,-8.6364746094,8.5296630859,60.0433349609
1.1425969601,-0.7768554688,-0.0478515625,0.0253906250,-8.6364746094,8.5296630859,60.0433349609
1.1454110146,-0.7768554688,-0.0478515625,0.0253906250,-5.3558349609,8.5601806641,64.5294189453
1.1481270790,-0.7768554688,-0.0478515625,0.0473632812,-5.3558349609,8.5601806641,64.5294189453
1.1508290768,-0.7856445312,-0.0844726562,0.0473632812,-1.3580322266,9.0942382812,69.4885253906
1.1535370350,-0.7856445312,-0.0844726562,0.0473632812,-1.3580322266,9.0942382812,69.4885253906
1.1563460827,-0.7856445312,-0.0844726562,0.0473632812,1.8920898438,5.7830810547,74.5391845703
1.1594841480,-0.7670898438,-0.1391601562,0.0268554688,1.8920898438,5.7830810547,74.5391845703
1.1621890068,-0.7670898438,-0.1391601562,0.0268554688,6.1187744141,1.7242431641,80.4443359375
1.1648919582,-0.7670898438,-0.1391601562,0.0268554688,6.1187744141,1.7242431641,80.4443359375
1.1675980091,-0.7670898438,-0.1391601562,0.0268554688,15.1062011719,1.0375976562,84.0759277344
1.1701951027,-0.8125000000,-0.1230468750,0.0454101562,15.1062011719,1.0375976562,84.0759277344
1.1727681160,-0.8125000000,-0.1230468750,0.0454101562,19.9890136719,1.0375976562,87.4786376953
1.1753461361,-0.8125000000,-0.1230468750,0.0454101562,19.9890136719,1.0375976562,87.4786376953
1.1779241562,-0.8125000000,-0.1230468750,0.0454101562,17.9901123047,0.4730224609,93.4600830078
1.1806240082,-0.8969726562,-0.0229492188,0.0366210938,17.9901123047,0.4730224609,93.4600830078
1.1833319664,-0.8969726562,-0.0229492188,0.0366210938,15.1977539062,-1.3732910156,100.2960205078
1.1860389709,-0.8969726562,-0.0229492188,0.0366210938,15.1977539062,-1.3732910156,100.2960205078
1.1887221336,-0.8969726562,-0.0229492188,0.0625000000,10.9100341797,-2.7160644531,105.8807373047
1.1912951469,-0.9609375000,-0.0019531250,0.0625000000,10.9100341797,-2.7160644531,105.8807373047
1.1938710213,-0.9609375000,-0.0019531250,0.0625000000,9.2773437500,-3.0975341797,111.0534667969
1.1964430809,-0.9609375000,-0.0019531250,0.0625000000,9.2773437500,-3.0975341797,111.0534667969
1.1990630627,-0.9609375000,0.1083984375,0.0698242188,9.2773437500,-2.8839111328,114.8681640625
1.2016320229,-0.9658203125,0.1083984375,0.0698242188,10.8032226562,-2.8839111328,114.8681640625
1.2042050362,-0.9658203125,0.1083984375,0.0698242188,10.8032226562,-2.8839111328,117.6910400391
1.2067840099,-0.9658203125,0.1083984375,0.0698242188,14.4195556641,-3.3264160156,117.6910400391
1.2096500397,-1.0131835938,0.2377929688,0.1440429688,14.4195556641,-7.2326660156,119.4915771484
1.2122240067,-1.0131835938,0.2377929688,0.1440429688,20.0653076172,-5.1116943359,119.4915771484
1.2147951126,-1.0131835938,0.2377929688,0.1440429688,20.0653076172,-5.1116943359,120.0714111328
1.2173669338,-1.0131835938,0.2377929688,0.1440429688,25.5737304688,-6.2713623047,120.0714111328
1.2202060223,-1.1977539062,0.2460937500,0.2416992188,25.5737304688,-6.2713623047,122.3144531250
1.2229170799,-1.1977539062,0.2460937500,0.2416992188,31.2500000000,-5.3863525391,122.3144531250
1.2256209850,-1.1977539062,0.2460937500,0.2416992188,31.2500000000,-5.3863525391,127.1820068359
1.2283380032,-1.1977539062,0.2460937500,0.2416992188,43.3349609375,-2.0904541016,127.1820068359
1.2310450077,-1.3798828125,0.2788085938,0.2514648438,43.3349609375,-2.0904541016,130.2185058594
1.2337491512,-1.3798828125,0.2788085938,0.2514648438,52.8106689453,0.2441406250,130.2185058594
1.2364490032,-1.3798828125,0.2788085938,0.2514648438,52.8106689453,0.2441406250,131.5612792969
1.2393131256,-1.3798828125,0.0288085938,0.3696289062,58.9294433594,2.0141601562,131.5612792969
1.2418861389,-1.3149414062,0.0971679688,0.3696289062,58.9294433594,2.0141601562,131.5612792969
1.2444641590,-1.3149414062,0.0971679688,0.3696289062,64.1174316406,2.9907226562,131.7901611328
1.2470390797,-1.3149414062,0.0971679688,0.3696289062,64.1174316406,2.9907226562,131.7901611328
1.2498340607,-1.1899414062,-0.0351562500,0.3828125000,64.4836425781,2.9296875000,132.2937011719
1.2525069714,-1.2397460938,-0.0351562500,0.3828125000,64.4836425781,2.9296875000,133.2855224609
1.2557590008,-1.2397460938,-0.0351562500,0.3828125000,62.2558593750,1.6326904297,133.2855224609
1.2584159374,-1.2397460938,-0.0351562500,0.3828125000,62.2558593750,1.6326904297,133.2550048828
1.2609910965,-1.1401367188,-0.0908203125,0.3413085938,56.7626953125,-2.1057128906,133.2550048828
1.2635631561,-1.1401367188,-0.0908203125,0.3413085938,56.7626953125,-2.1057128906,129.3487548828
1.2661340237,-1.1401367188,-0.0908203125,0.3413085938,49.8657226562,-7.5683593750,130.5847167969
1.2687139511,-1.1401367188,-0.0908203125,0.3413085938,49.8657226562,-7.5683593750,130.5847167969
1.2712850571,-0.9902343750,-0.2241210938,0.2856445312,46.9207763672,-13.8549804688,124.5269775391
1.2739779949,-0.9902343750,-0.2241210938,0.2856445312,46.9207763672,-13.8549804688,124.5269775391
1.2765541077,-0.9902343750,-0.2241210938,0.2856445312,44.5098876953,-20.3247070312,114.2730712891
1.2791390419,-0.9902343750,-0.2241210938,0.2856445312,44.5098876953,-20.3247070312,114.2730712891
1.2817070484,-0.8793945312,-0.3081054688,0.1499023438,42.8619384766,-24.1851806641,102.3406982422
1.2842731476,-0.8793945312,-0.3081054688,0.1499023438,42.8619384766,-24.1851806641,102.3406982422
1.2868549824,-0.8793945312,-0.3081054688,0.1499023438,42.2210693359,-26.7486572266,91.1254882812
1.2894740105,-0.8793945312,-0.3081054688,0.0190429688,42.2210693359,-26.7486572266,91.1254882812
1.2920501232,-0.7485351562,-0.3579101562,0.0190429688,37.2009277344,-32.1807861328,79.7424316406
1.2946259975,-0.7485351562,-0.3579101562,0.0190429688,37.2009277344,-32.1807861328,79.7424316406
1.2971961498,-0.7485351562,-0.3579101562,0.0190429688,23.4527587891,-38.7420654297,65.1397705078
1.2999341488,-0.7485351562,-0.7329101562,-0.0292968750,23.4527587891,-38.7420654297,65.1397705078
1.3025090694,-0.6479492188,-0.6948242188,-0.0292968750,0.0152587891,-42.7398681641,49.5758056641
1.3050820827,-0.6479492188,-0.6948242188,-0.0292968750,3.4484863281,-42.7398681641,49.5758056641
1.3076541424,-0.6479492188,-0.6948242188,-0.0292968750,3.4484863281,-46.6461181641,35.7513427734
1.3103120327,-0.6479492188,-0.7500000000,-0.1162109375,-17.8070068359,-44.9829101562,35.7513427734
1.3128859997,-0.5595703125,-0.7500000000,-0.1162109375,-17.8070068359,-44.9829101562,22.5677490234
1.3154599667,-0.5595703125,-0.7500000000,-0.1162109375,-38.0096435547,-48.2940673828,22.5677490234
1.3180820942,-0.5595703125,-0.7500000000,-0.1162109375,-38.0096435547,-48.2940673828,10.8489990234
1.3206651211,-0.5146484375,-0.6704101562,-0.1357421875,-54.7637939453,-50.4760742188,8.9416503906
1.3232340813,-0.5146484375,-0.6704101562,-0.1357421875,-54.7637939453,-50.4760742188,8.9416503906
1.3258061409,-0.5146484375,-0.6704101562,-0.1357421875,-67.9626464844,-49.4079589844,-4.2419433594
1.3284170628,-0.5146484375,-0.6704101562,-0.1357421875,-67.9626464844,-49.4079589844,-4.2419433594
1.3311221600,-0.5151367188,-0.7119140625,-0.1381835938,-73.9593505859,-46.3256835938,-18.1732177734
1.3338320255,-0.5151367188,-0.7119140625,-0.1381835938,-73.9593505859,-46.3256835938,-18.1732177734
1.3366489410,-0.5151367188,-0.7119140625,-0.1381835938,-76.4160156250,-43.7011718750,-33.7066650391
1.3393790722,-0.5151367188,-0.7119140625,-0.1381835938,-76.4160156250,-43.7011718750,-33.7066650391
1.3420939445,-0.5751953125,-0.6137695312,-0.1772460938,-78.3843994141,-41.8090820312,-49.0112304688
1.3448040485,-0.5751953125,-0.6137695312,-0.1772460938,-78.3843994141,-41.8090820312,-49.0112304688
1.3475141525,-0.5751953125,-0.6137695312,-0.1772460938,-77.4688720703,-38.4521484375,-64.4226074219
1.3501119614,-0.5751953125,-0.6137695312,-0.1684570312,-77.4688720703,-38.4521484375,-64.4226074219
1.3526849747,-0.5976562500,-0.4511718750,-0.1684570312,-69.4732666016,-34.6832275391,-80.3680419922
1.3552579880,-0.5976562500,-0.4511718750,-0.1684570312,-69.4732666016,-34.6832275391,-80.3680419922
1.3578190804,-0.5976562500,-0.4511718750,-0.1684570312,-56.0913085938,-30.6091308594,-96.3287353516
1.3605279922,-0.5976562500,-0.3261718750,-0.1782226562,-56.0913085938,-30.6091308594,-96.3287353516
1.3632431030,-0.6445312500,-0.3481445312,-0.1782226562,-41.3360595703,-27.0385742188,-111.9079589844
1.3661761284,-0.6445312500,-0.3481445312,-0.1782226562,-41.3360595703,-27.0385742188,-111.9079589844
1.3692121506,-0.6445312500,-0.3481445312,-0.1782226562,-26.1077880859,-23.6206054688,-125.7476806641
1.3719329834,-0.7265625000,-0.2812500000,-0.2036132812,-26.1077880859,-23.6206054688,-125.7476806641
1.3746409416,-0.7265625000,-0.2812500000,-0.2036132812,-11.3983154297,-19.6380615234,-138.9465332031
1.3773529530,-0.7265625000,-0.2812500000,-0.2036132812,-11.3983154297,-19.6380615234,-138.9465332031
1.3801059723,-0.7265625000,-0.2812500000,-0.2036132812,0.4577636719,-16.2200927734,-151.0009765625
1.3828120232,-0.7915039062,-0.2680664062,-0.2128906250,0.4577636719,-16.2200927734,-151.0009765625
1.3855240345,-0.7915039062,-0.2680664062,-0.2128906250,9.1857910156,-12.4664306641,-162.2924804688
1.3882520199,-0.7915039062,-0.2680664062,-0.2128906250,9.1857910156,-12.4664306641,-162.2924804688
1.3908281326,-0.7915039062,-0.2680664062,-0.2402343750,14.3737792969,-8.5296630859,-172.0123291016
1.3934099674,-0.8496093750,-0.2670898438,-0.2402343750,14.3737792969,-8.5296630859,-172.0123291016
1.3959851265,-0.8496093750,-0.2670898438,-0.2402343750,16.5100097656,-5.5541992188,-180.5877685547
1.3985741138,-0.8496093750,-0.2670898438,-0.2402343750,16.5100097656,-5.5541992188,-180.5877685547
1.4012520313,-0.9746093750,-0.2773437500,-0.2353515625,17.1203613281,-3.4179687500,-188.5375976562
1.4038231373,-0.8959960938,-0.2773437500,-0.2353515625,17.1203613281,-3.4179687500,-188.5375976562
1.4064011574,-0.8959960938,-0.2773437500,-0.2353515625,14.0228271484,-1.8768310547,-195.6329345703
1.4090220928,-0.8959960938,-0.2773437500,-0.2353515625,14.0228271484,-1.8768310547,-195.6329345703
1.4115970135,-0.9287109375,-0.2807617188,-0.2392578125,8.0261230469,-0.9460449219,-201.6296386719
1.4141740799,-0.9287109375,-0.2807617188,-0.2392578125,8.0261230469,-0.9460449219,-201.6296386719
1.4167480469,-0.9287109375,-0.2807617188,-0.2392578125,-3.6926269531,-0.5340576172,-205.6121826172
1.4194140434,-0.9287109375,-0.2807617188,-0.2392578125,-0.3051757812,-0.5340576172,-205.6121826172
1.4219861031,-0.9599609375,-0.2646484375,-0.2187500000,-0.3051757812,-0.5340576172,-209.5489501953
1.4245550632,-0.9599609375,-0.2646484375,-0.2187500000,-10.7421875000,-0.6408691406,-209.5489501953
1.4271371365,-0.9599609375,-0.2646484375,-0.2187500000,-10.7421875000,-0.6408691406,-212.0666503906
1.4299120903,-0.9599609375,-0.2646484375,-0.2187500000,-23.1781005859,-1.2359619141,-212.0666503906
1.4326181412,-1.0190429688,-0.2353515625,-0.1845703125,-23.1781005859,-1.2359619141,-213.8366699219
1.4353251457,-1.0190429688,-0.2353515625,-0.1845703125,-35.9802246094,-0.5035400391,-213.8366699219
1.4380619526,-1.0190429688,-0.2353515625,-0.1845703125,-35.9802246094,-0.5035400391,-215.5151367188
1.4406371117,-1.0190429688,-0.2353515625,-0.1845703125,-48.5076904297,-0.6408691406,-215.5151367188
1.4432101250,-1.0644531250,-0.1635742188,-0.1523437500,-48.5076904297,-0.6408691406,-215.5151367188
1.4457850456,-1.0644531250,-0.1635742188,-0.1523437500,-59.8297119141,-0.4119873047,-216.7510986328
1.4484059811,-1.0644531250,-0.1635742188,-0.1523437500,-59.8297119141,-0.4119873047,-216.7510986328
1.4511110783,-1.0644531250,-0.1635742188,-0.1064453125,-67.8558349609,0.2441406250,-217.3919677734
1.4538149834,-1.0893554688,-0.0893554688,-0.1064453125,-67.8558349609,0.2441406250,-217.3919677734
1.4565310478,-1.0893554688,-0.0893554688,-0.1064453125,-71.9604492188,1.2207031250,-218.4143066406
1.4592139721,-1.0893554688,-0.0893554688,-0.1064453125,-71.9604492188,1.2207031250,-218.4143066406
1.4617941380,-1.0893554688,-0.0087890625,-0.0810546875,-74.4781494141,3.2043457031,-219.3298339844
1.4644811153,-1.1093750000,-0.0087890625,-0.0810546875,-74.4781494141,3.2043457031,-219.3298339844
1.4670579433,-1.1093750000,-0.0087890625,-0.0810546875,-74.8901367188,6.5155029297,-219.8791503906
1.4697549343,-1.1093750000,-0.0087890625,-0.0810546875,-74.8901367188,6.5155029297,-219.8791503906
1.4724631310,-1.1044921875,0.0825195312,-0.0488281250,-73.7152099609,10.1776123047,-220.3521728516
1.4751751423,-1.1044921875,0.0825195312,-0.0488281250,-73.7152099609,10.1776123047,-220.3521728516
1.4778981209,-1.1044921875,0.0825195312,-0.0488281250,-73.8220214844,15.3808593750,-220.7946777344
1.4806070328,-1.1044921875,0.0825195312,-0.0488281250,-73.8220214844,15.3808593750,-220.7946777344
1.4833199978,-1.0742187500,0.1860351562,-0.0332031250,-74.0814208984,22.5677490234,-219.3756103516
1.4861690998,-1.0742187500,0.1860351562,-0.0332031250,-74.0814208984,22.5677490234,-219.3756103516
1.4891159534,-1.0742187500,0.1860351562,-0.0332031250,-74.4018554688,27.8930664062,-214.4622802734
1.4917020798,-1.0742187500,0.3110351562,0.0000000000,-74.4018554688,27.8930664062,-214.4622802734
1.4942770004,-1.0458984375,0.3095703125,0.0000000000,-74.2492675781,30.0445556641,-207.7178955078
1.4968609810,-1.0458984375,0.3095703125,0.0000000000,-74.2492675781,30.0445556641,-207.7178955078
1.4995450974,-1.0458984375,0.3095703125,0.0000000000,-74.9664306641,31.2042236328,-200.9277343750
1.5022580624,-1.0458984375,0.3344726562,0.0737304688,-74.9664306641,31.2042236328,-200.9277343750
1.5049710274,-1.0141601562,0.3344726562,0.0737304688,-75.7751464844,31.7840576172,-194.4885253906
1.5076811314,-1.0141601562,0.3344726562,0.0737304688,-75.7751464844,31.7840576172,-194.4885253906
1.5104041100,-1.0141601562,0.3344726562,0.0737304688,-75.6988525391,32.6690673828,-188.3392333984
1.5131220818,-0.9863281250,0.2524414062,0.1127929688,-75.6988525391,32.6690673828,-188.3392333984
1.5158281326,-0.9863281250,0.2524414062,0.1127929688,-74.2950439453,32.0739746094,-182.2662353516
1.5185320377,-0.9863281250,0.2524414062,0.1127929688,-74.2950439453,32.0739746094,-182.2662353516
1.5211069584,-0.9863281250,0.2524414062,0.1127929688,-71.8536376953,31.3415527344,-177.8411865234
1.5236899853,-0.9384765625,0.1943359375,0.1328125000,-71.8536376953,31.3415527344,-177.8411865234
1.5262739658,-0.9384765625,0.1943359375,0.1328125000,-68.2067871094,30.7617187500,-174.0417480469
1.5290081501,-0.9384765625,0.1943359375,0.1328125000,-68.2067871094,30.7617187500,-174.0417480469
1.5315840244,-0.9384765625,0.1943359375,0.1328125000,-63.1103515625,29.9530029297,-169.6319580078
1.5341689587,-0.8984375000,0.1987304688,0.1269531250,-63.1103515625,29.9530029297,-169.6319580078
1.5367450714,-0.8984375000,0.1987304688,0.1269531250,-57.1441650391,28.2440185547,-163.9709472656
1.5394520760,-0.8984375000,0.1987304688,0.1269531250,-57.1441650391,28.2440185547,-163.9709472656
1.5420329571,-0.8984375000,0.1987304688,0.1083984375,-53.2379150391,27.0080566406,-156.8908691406
1.5446100235,-0.8769531250,0.2768554688,0.1083984375,-52.6275634766,27.0080566406,-156.8908691406
1.5471920967,-0.8769531250,0.2768554688,0.1083984375,-52.6275634766,26.2756347656,-148.4985351562
1.5500240326,-0.8769531250,0.2768554688,0.1083984375,-49.3621826172,26.2756347656,-148.4985351562
1.5527391434,-0.7519531250,0.3603515625,0.1079101562,-49.3621826172,25.8026123047,-138.7329101562
1.5554490089,-0.8564453125,0.3603515625,0.1079101562,-48.5839843750,25.8026123047,-138.7329101562
1.5581700802,-0.8564453125,0.3603515625,0.1079101562,-48.5839843750,25.1007080078,-128.3416748047
1.5608890057,-0.8564453125,0.3603515625,0.1079101562,-49.3316650391,25.1007080078,-128.3416748047
1.5635981560,-0.8374023438,0.4033203125,0.1367187500,-49.3316650391,23.8647460938,-118.2708740234
1.5663039684,-0.8374023438,0.4033203125,0.1367187500,-50.2014160156,23.8647460938,-118.2708740234
1.5690240860,-0.8374023438,0.4033203125,0.1367187500,-50.2014160156,22.7661132812,-108.0474853516
1.5717329979,-0.8374023438,0.4033203125,0.1367187500,-52.0935058594,22.7661132812,-108.0474853516
1.5744400024,-0.8071289062,0.4331054688,0.1298828125,-52.0935058594,22.3388671875,-97.5341796875
1.5771541595,-0.8071289062,0.4331054688,0.1298828125,-55.2978515625,22.3388671875,-97.5341796875
1.5798060894,-0.8071289062,0.4331054688,0.1298828125,-55.2978515625,22.3388671875,-86.6699218750
1.5823919773,-0.8071289062,0.4331054688,0.1469726562,-58.1665039062,20.9960937500,-86.6699218750
1.5849640369,-0.7490234375,0.5239257812,0.1469726562,-58.1665039062,20.9960937500,-74.6459960938
1.5875389576,-0.7490234375,0.5239257812,0.1469726562,-61.5234375000,18.7835693359,-74.6459960938
1.5901920795,-0.7490234375,0.5239257812,0.1469726562,-61.5234375000,18.7835693359,-59.0209960938
1.5928759575,-0.7490234375,0.6225585938,0.2119140625,-65.0024414062,16.0064697266,-61.9812011719
1.5954549313,-0.6870117188,0.6225585938,0.2119140625,-65.0024414062,16.0064697266,-61.9812011719
1.5980949402,-0.6870117188,0.6225585938,0.2119140625,-66.7572021484,12.7563476562,-50.0946044922
1.6008031368,-0.6870117188,0.6225585938,0.2119140625,-66.7572021484,12.7563476562,-50.0946044922
1.6035161018,-0.6313476562,0.6713867188,0.2460937500,-67.2149658203,10.3912353516,-38.4979248047
1.6063859463,-0.6313476562,0.6713867188,0.2460937500,-67.2149658203,10.3912353516,-25.9246826172
1.6093490124,-0.6313476562,0.6713867188,0.2460937500,-66.6351318359,7.0953369141,-25.9246826172
1.6120669842,-0.6313476562,0.6713867188,0.2460937500,-66.6351318359,7.0953369141,-13.4429931641
1.6147699356,-0.6108398438,0.7460937500,0.2885742188,-64.7125244141,3.3874511719,-13.4429931641
1.6174781322,-0.6108398438,0.7460937500,0.2885742188,-64.7125244141,3.3874511719,-1.5411376953
1.6201930046,-0.6108398438,0.7460937500,0.2885742188,-61.1724853516,0.2746582031,-1.5411376953
1.6228981018,-0.6108398438,0.7460937500,0.3344726562,-61.1724853516,0.2746582031,9.8419189453
1.6256041527,-0.6025390625,0.8286132812,0.3344726562,-56.3049316406,-3.0975341797,9.8419189453
1.6283049583,-0.6025390625,0.8286132812,0.3344726562,-56.3049316406,-3.0975341797,21.5606689453
1.6308779716,-0.6025390625,0.8286132812,0.3344726562,-49.9725341797,-6.0272216797,21.6979980469
1.6334619522,-0.6025390625,0.9184570312,0.4106445312,-49.9725341797,-6.0272216797,21.6979980469
1.6360299587,-0.5722656250,0.9184570312,0.4106445312,-42.6635742188,-10.1165771484,33.3709716797
1.6386570930,-0.5722656250,0.9184570312,0.4106445312,-42.6635742188,-10.1165771484,33.3709716797
1.6412329674,-0.5722656250,0.9184570312,0.4106445312,-32.0587158203,-15.0451660156,46.1578369141
1.6438081264,-0.5571289062,1.0131835938,0.4731445312,-32.0587158203,-15.0451660156,46.1578369141
1.6463911533,-0.5571289062,1.0131835938,0.4731445312,-18.0816650391,-19.8822021484,58.4259033203
1.6490180492,-0.5571289062,1.0131835938,0.4731445312,-18.0816650391,-19.8822021484,58.4259033203
1.6515929699,-0.5571289062,1.0131835938,0.4731445312,-3.6621093750,-25.3448486328,71.1364746094
1.6541700363,-0.5527343750,1.1069335938,0.5092773438,-3.6621093750,-25.3448486328,71.1364746094
1.6568551064,-0.5527343750,1.1069335938,0.5092773438,10.7269287109,-31.1431884766,83.6334228516
1.6595661640,-0.5527343750,1.1069335938,0.5092773438,10.7269287109,-31.1431884766,83.6334228516
1.6621470451,-0.5527343750,1.1069335938,0.5092773438,26.6723632812,-37.7960205078,95.2301025391
1.6647219658,-0.5786132812,1.1914062500,0.5781250000,26.6723632812,-37.7960205078,95.2301025391
1.6673071384,-0.5786132812,1.1914062500,0.5781250000,45.5322265625,-45.3338623047,105.8959960938
1.6701371670,-0.5786132812,1.1914062500,0.5781250000,45.5322265625,-45.3338623047,105.8959960938
1.6728460789,-0.5786132812,1.1914062500,0.5781250000,63.1256103516,-52.8564453125,110.4583740234
1.6755630970,-0.7963867188,0.8183593750,0.4960937500,63.1256103516,-52.8564453125,110.4583740234
1.6782660484,-0.7963867188,0.8183593750,0.4960937500,82.9620361328,-50.5676269531,109.1308593750
1.6808421612,-0.7963867188,0.8183593750,0.4960937500,82.9620361328,-50.5676269531,109.1308593750
1.6834170818,-0.7963867188,0.8183593750,-0.0434570312,82.9620361328,-38.2995605469,111.7553710938
1.6859970093,-1.1445312500,0.0273437500,-0.0434570312,101.4862060547,-38.2995605469,111.7553710938
1.6886210442,-1.1445312500,0.0273437500,-0.0434570312,101.4862060547,-26.5808105469,110.1531982422
1.6913290024,-1.1445312500,0.0273437500,-0.0434570312,97.2747802734,-24.8870849609,110.1531982422
1.6940369606,-1.1445312500,-1.2666015625,-0.5185546875,97.2747802734,-9.2620849609,100.4333496094
1.6967401505,-1.0878906250,-1.2666015625,-0.5185546875,86.9293212891,-10.5895996094,100.4333496094
1.6994891167,-1.0878906250,-1.2666015625,-0.5185546875,86.9293212891,-2.7770996094,91.8121337891
1.7022011280,-1.0878906250,-1.2666015625,-0.5185546875,61.0504150391,-2.7618408203,91.8121337891
1.7049040794,-0.9340820312,-1.4682617188,-0.4726562500,61.0504150391,-2.7618408203,90.1641845703
1.7076029778,-0.9340820312,-1.4682617188,-0.4726562500,13.7329101562,-3.8299560547,90.1641845703
1.7103271484,-0.9340820312,-1.4682617188,-0.4726562500,13.7329101562,-7.7362060547,98.0377197266
1.7130360603,-0.9340820312,-1.4682617188,-0.4726562500,-32.9589843750,-6.3171386719,98.0377197266
1.7157449722,-0.9179687500,-0.5722656250,-0.2905273438,-32.9589843750,-10.2233886719,112.0605468750
1.7185010910,-0.9179687500,-0.5722656250,-0.2905273438,-75.6835937500,-10.1928710938,112.0605468750
1.7213079929,-0.9179687500,-0.5722656250,-0.2905273438,-75.6835937500,-18.0053710938,125.9460449219
1.7241981030,-0.9179687500,0.2065429688,-0.0366210938,-112.5488281250,-17.1203613281,125.9460449219
1.7269041538,-0.9331054688,0.2065429688,-0.0366210938,-132.0800781250,-23.3764648438,136.1541748047
1.7296919823,-0.9331054688,0.2065429688,-0.0366210938,-132.2021484375,-23.3764648438,136.1541748047
1.7322721481,-0.9331054688,0.2065429688,-0.0366210938,-132.2021484375,-31.1889648438,143.3258056641
1.7348489761,-0.9418945312,0.4702148438,0.0888671875,-136.7340087891,-29.3121337891,143.3258056641
1.7374320030,-0.9418945312,0.4702148438,0.0888671875,-136.7340087891,-29.3121337891,145.5688476562
1.7401480675,-0.9418945312,0.4702148438,0.0888671875,-136.0931396484,-35.0494384766,145.5688476562
1.7428579330,-0.9418945312,0.4702148438,0.0888671875,-136.0931396484,-35.0494384766,140.7318115234
1.7455720901,-0.8994140625,0.4985351562,0.0795898438,-128.2043457031,-37.0941162109,140.7318115234
1.7482991219,-0.8994140625,0.4985351562,0.0795898438,-128.2043457031,-37.0941162109,128.7078857422
1.7510130405,-0.8994140625,0.4985351562,0.0795898438,-105.9112548828,-37.5976562500,128.7078857422
1.7537260056,-0.8994140625,0.4985351562,0.0795898438,-105.9112548828,-37.5976562500,115.4479980469
1.7564411163,-0.6977539062,0.6723632812,0.0175781250,-73.2269287109,-38.5894775391,115.4479980469
1.7591090202,-0.6977539062,0.6723632812,0.0175781250,-73.2269287109,-38.5894775391,106.3690185547
1.7616820335,-0.6977539062,0.6723632812,0.0175781250,-38.7573242188,-39.4439697266,106.3690185547
1.7642610073,-0.6977539062,0.6723632812,0.0820312500,-38.7573242188,-39.4439697266,106.3690185547
1.7668430805,-0.7983398438,0.8051757812,0.0820312500,-7.8582763672,-39.7644042969,103.1188964844
1.7694680691,-0.7983398438,0.8051757812,0.0820312500,-7.8582763672,-39.7644042969,103.1188964844
1.7720479965,-0.7983398438,0.8051757812,0.0820312500,14.8010253906,-39.7338867188,101.7303466797
1.7746219635,-0.7983398438,0.5551757812,0.1357421875,14.8010253906,-39.7338867188,101.7303466797
1.7771990299,-0.9028320312,0.5668945312,0.1357421875,27.0233154297,-39.1387939453,98.3734130859
1.7799410820,-0.9028320312,0.5668945312,0.1357421875,27.0233154297,-39.1387939453,98.3734130859
1.7825200558,-0.9028320312,0.5668945312,0.1357421875,31.6009521484,-38.5437011719,93.6737060547
1.7851040363,-0.7778320312,0.4003906250,0.2368164062,31.6009521484,-38.5437011719,93.6737060547
1.7879149914,-0.8305664062,0.4003906250,0.2368164062,33.2336425781,-39.8712158203,90.6982421875
1.7906219959,-0.8305664062,0.4003906250,0.2368164062,33.2336425781,-39.8712158203,90.6982421875
1.7933390141,-0.8305664062,0.4003906250,0.2368164062,32.6538085938,-41.7633056641,89.1265869141
1.7960441113,-0.7602539062,0.3896484375,0.2700195312,32.6538085938,-41.7633056641,89.1265869141
1.7987720966,-0.7602539062,0.3896484375,0.2700195312,30.2886962891,-41.3208007812,86.8377685547
1.8014881611,-0.7602539062,0.3896484375,0.2700195312,30.2886962891,-41.3208007812,86.8377685547
1.8041920662,-0.7602539062,0.3896484375,0.2700195312,27.0538330078,-39.1845703125,83.3435058594
1.8068971634,-0.7475585938,0.3339843750,0.2294921875,27.0538330078,-39.1845703125,83.3435058594
1.8096129894,-0.7475585938,0.3339843750,0.2294921875,24.0936279297,-36.9567871094,80.5206298828
1.8123209476,-0.7475585938,0.3339843750,0.2294921875,24.0936279297,-36.9567871094,80.5206298828
1.8150329590,-0.7475585938,0.3339843750,0.2026367188,19.8516845703,-34.9578857422,78.4149169922
1.8177390099,-0.7666015625,0.2690429688,0.2026367188,19.8516845703,-34.9578857422,78.4149169922
1.8203539848,-0.7666015625,0.2690429688,0.2026367188,12.3443603516,-33.7524414062,76.5228271484
1.8229329586,-0.7666015625,0.2690429688,0.2026367188,12.3443603516,-33.7524414062,76.5228271484
1.8255100250,-0.7666015625,0.2563476562,0.2221679688,4.5928955078,-33.2183837891,74.0203857422
1.8282270432,-0.7797851562,0.2563476562,0.2221679688,4.5928955078,-33.2183837891,74.0203857422
1.8308031559,-0.7797851562,0.2563476562,0.2221679688,0.3509521484,-32.0892333984,70.8312988281
1.8333780766,-0.7797851562,0.2563476562,0.2221679688,0.3509521484,-32.0892333984,70.8312988281
1.8359620571,-0.7749023438,0.2666015625,0.2231445312,-3.5552978516,-29.5410156250,67.8558349609
1.8386759758,-0.7749023438,0.2666015625,0.2231445312,-0.7476806641,-29.5410156250,67.8558349609
1.8413381577,-0.7749023438,0.2666015625,0.2231445312,3.1585693359,-26.8707275391,64.4531250000
1.8441460133,-0.7749023438,0.2666015625,0.2231445312,1.8310546875,-26.8707275391,64.4531250000
1.8468489647,-0.7734375000,0.2924804688,0.1684570312,6.9885253906,-23.7274169922,60.3637695312
1.8499691486,-0.7734375000,0.2924804688,0.1684570312,6.9885253906,-23.7274169922,60.3637695312
1.8527870178,-0.7734375000,0.2924804688,0.1684570312,10.5590820312,-21.0723876953,56.5643310547
1.8554980755,-0.7734375000,0.2753906250,0.1469726562,10.5590820312,-21.0723876953,56.5643310547
1.8582160473,-0.7592773438,0.2753906250,0.1469726562,12.4206542969,-19.5617675781,53.3447265625
1.8609211445,-0.7592773438,0.2753906250,0.1469726562,12.4206542969,-19.5617675781,53.3447265625
1.8636269569,-0.7592773438,0.2753906250,0.1469726562,12.9852294922,-18.4783935547,50.1556396484
1.8663401604,-0.7539062500,0.2368164062,0.1630859375,12.9852294922,-18.4783935547,50.1556396484
1.8690330982,-0.7539062500,0.2368164062,0.1630859375,12.1917724609,-17.7764892578,47.2869873047
1.8716149330,-0.7539062500,0.2368164062,0.1630859375,12.1917724609,-17.7764892578,47.2869873047
1.8741900921,-0.7539062500,0.2368164062,0.1630859375,11.4898681641,-17.0745849609,44.3267822266
1.8767640591,-0.7338867188,0.2451171875,0.1206054688,11.4898681641,-17.0745849609,44.3267822266
1.8793580532,-0.7338867188,0.2451171875,0.1206054688,11.4898681641,-16.9525146484,41.2902832031
1.8819351196,-0.7338867188,0.2451171875,0.1206054688,10.8032226562,-16.9525146484,41.2902832031
1.8845109940,-0.7338867188,0.2451171875,0.1206054688,10.8032226562,-16.9525146484,38.3148193359
1.8870971203,-0.7070312500,0.2651367188,0.0966796875,10.3759765625,-17.2729492188,38.3148193359
1.8896820545,-0.7070312500,0.2651367188,0.0966796875,10.3759765625,-17.2729492188,34.6679687500
1.8922629356,-0.7070312500,0.2651367188,0.0966796875,10.6353759766,-17.3187255859,34.6679687500
1.8948409557,-0.7070312500,0.2651367188,0.0966796875,10.6353759766,-17.3187255859,34.6679687500
1.8974161148,-0.7167968750,0.2485351562,0.0727539062,10.8337402344,-17.7459716797,31.1584472656
1.9001359940,-0.7167968750,0.2485351562,0.0727539062,10.8337402344,-17.7459716797,31.1584472656
1.9027070999,-0.7167968750,0.2485351562,0.0727539062,10.9252929688,-18.2342529297,28.2440185547
1.9052801132,-0.7167968750,0.2485351562,0.0727539062,10.9252929688,-18.2342529297,28.2440185547
1.9079720974,-0.7260742188,0.2172851562,0.0498046875,10.2996826172,-19.4091796875,25.8636474609
1.9106941223,-0.7260742188,0.2172851562,0.0498046875,10.2996826172,-19.4091796875,25.8636474609
1.9134111404,-0.7260742188,0.2172851562,0.0498046875,9.3994140625,-21.2707519531,23.3612060547
1.9162230492,-0.7260742188,0.1943359375,0.0307617188,9.3994140625,-21.2707519531,23.3612060547
1.9188950062,-0.7314453125,0.1943359375,0.0307617188,9.9182128906,-22.4761962891,20.6756591797
1.9214761257,-0.7314453125,0.1943359375,0.0307617188,9.9182128906,-22.4761962891,20.6756591797
1.9240419865,-0.7314453125,0.1943359375,0.0307617188,11.8255615234,-23.1933593750,18.6614990234
1.9266190529,-0.7314453125,0.1665039062,0.0219726562,11.8255615234,-23.1933593750,18.6614990234
1.9293169975,-0.7402343750,0.1665039062,0.0219726562,13.4124755859,-23.8189697266,16.5252685547
1.9320311546,-0.7402343750,0.1665039062,0.0219726562,13.4124755859,-23.8189697266,16.5252685547
1.9347431660,-0.7402343750,0.1665039062,0.0219726562,15.5487060547,-23.5443115234,14.2974853516
1.9374511242,-0.7265625000,0.0830078125,0.0268554688,15.5487060547,-23.5443115234,14.2974853516
1.9401731491,-0.7265625000,0.0830078125,0.0268554688,16.1590576172,-23.6816406250,12.2985839844
1.9428861141,-0.7265625000,0.0830078125,0.0268554688,16.1590576172,-23.6816406250,12.2985839844
1.9455931187,-0.7265625000,0.0830078125,0.0268554688,16.9677734375,-23.6968994141,10.5438232422
1.9483139515,-0.7143554688,0.0805664062,0.0649414062,16.9677734375,-23.6968994141,10.5438232422
1.9510231018,-0.7143554688,0.0805664062,0.0649414062,20.5535888672,-23.5137939453,8.6822509766
1.9537291527,-0.7143554688,0.0805664062,0.0649414062,20.5535888672,-23.5137939453,8.6822509766
1.9564399719,-0.7143554688,0.2055664062,0.1040039062,25.9552001953,-22.2473144531,6.7138671875
1.9591619968,-0.7368164062,0.1386718750,0.1040039062,25.9552001953,-22.2473144531,6.7138671875
1.9618639946,-0.7368164062,0.1386718750,0.1040039062,31.8145751953,-21.6827392578,5.2337646484
1.9646339417,-0.7368164062,0.1386718750,0.1040039062,31.8145751953,-21.6827392578,5.2337646484
1.9673321247,-0.7060546875,0.1210937500,0.1386718750,37.9791259766,-22.4914550781,4.6691894531
1.9703910351,-0.7060546875,0.1210937500,0.1386718750,37.9791259766,-22.4914550781,4.6691894531
1.9729640484,-0.7060546875,0.1210937500,0.1386718750,43.8232421875,-23.6206054688,4.9743652344
1.9755380154,-0.7060546875,0.1210937500,0.1386718750,43.8232421875,-23.6206054688,4.9743652344
1.9781279564,-0.7031250000,0.0546875000,0.1411132812,48.6145019531,-24.2156982422,5.6304931641
1.9809460640,-0.7031250000,0.0546875000,0.1411132812,48.6145019531,-24.2156982422,5.6304931641
1.9836521149,-0.7031250000,0.0546875000,0.1411132812,50.8575439453,-23.1323242188,6.4086914062
1.9863660336,-0.7031250000,0.0546875000,0.1318359375,50.8575439453,-23.1323242188,6.4086914062
1.9890880585,-0.7153320312,0.0283203125,0.1318359375,48.8433837891,-21.6522216797,8.7432861328
1.9917981625,-0.7153320312,0.0283203125,0.1318359375,48.8433837891,-21.6522216797,8.7432861328
1.9945061207,-0.7153320312,0.0283203125,0.1318359375,46.0815429688,-20.4162597656,11.3067626953
1.9972131252,-0.7153320312,0.0014648438,0.1186523438,46.0815429688,-20.4162597656,11.3067626953
1.9998400211,-0.7275390625,0.0014648438,0.1186523438,43.8232421875,-19.6990966797,14.2669677734
2.0024180412,-0.7275390625,0.0014648438,0.1186523438,43.8232421875,-19.6990966797,14.2669677734
2.0049951077,-0.7275390625,0.0014648438,0.1186523438,41.0461425781,-19.0887451172,17.2271728516
2.0075769424,-0.7207031250,0.0400390625,0.1352539062,41.0461425781,-19.0887451172,17.2271728516
2.0102050304,-0.7207031250,0.0400390625,0.1352539062,37.1398925781,-17.8070068359,19.3328857422
2.0127871037,-0.7207031250,0.0400390625,0.1352539062,37.6739501953,-17.8070068359,19.3328857422
2.0153629780,-0.7207031250,0.0400390625,0.1352539062,37.6739501953,-17.8070068359,21.1639404297
2.0179350376,-0.7109375000,0.0708007812,0.1166992188,33.7982177734,-16.5710449219,21.1639404297
2.0205211639,-0.7109375000,0.0708007812,0.1166992188,33.7982177734,-16.5710449219,22.7203369141
2.0230970383,-0.7109375000,0.0708007812,0.1166992188,32.6995849609,-16.3879394531,22.7203369141
2.0256750584,-0.7109375000,0.0708007812,0.1166992188,32.6995849609,-16.3879394531,26.6265869141
2.0284190178,-0.7172851562,0.0776367188,0.1533203125,33.9508056641,-15.6860351562,24.3682861328
2.0311141014,-0.7172851562,0.0776367188,0.1533203125,33.9508056641,-15.6860351562,25.9857177734
2.0338129997,-0.7172851562,0.0776367188,0.1533203125,34.1796875000,-15.4876708984,25.9857177734
2.0365059376,-0.7172851562,0.0776367188,0.1533203125,34.1796875000,-15.4876708984,29.8919677734
2.0391941071,-0.7338867188,0.0791015625,0.1289062500,32.1044921875,-15.9454345703,28.1524658203
2.0418710709,-0.7338867188,0.0791015625,0.1289062500,32.1044921875,-15.9454345703,28.1524658203
2.0446569920,-0.7338867188,0.0791015625,0.1289062500,29.5104980469,-16.8151855469,30.0292968750
2.0473389626,-0.7338867188,0.0766601562,0.1391601562,29.5104980469,-16.8151855469,33.9355468750
2.0501050949,-0.7597656250,0.0766601562,0.1391601562,29.4342041016,-17.1966552734,32.4859619141
2.0528199673,-0.7597656250,0.0766601562,0.1391601562,29.4342041016,-17.1966552734,32.4859619141
2.0555341244,-0.7597656250,0.0766601562,0.1391601562,31.4178466797,-16.8304443359,34.9884033203
2.0582890511,-0.7617187500,0.1455078125,0.1367187500,31.4178466797,-16.8304443359,38.8946533203
2.0610051155,-0.7617187500,0.1455078125,0.1367187500,33.8745117188,-17.2576904297,36.6516113281
2.0637209415,-0.7617187500,0.1455078125,0.1367187500,33.8745117188,-17.2576904297,36.6516113281
2.0664341450,-0.7617187500,0.1455078125,0.1367187500,35.3088378906,-17.5476074219,37.9028320312
2.0691399574,-0.7778320312,0.1665039062,0.1323242188,35.3088378906,-17.5476074219,41.8090820312
2.0717229843,-0.7778320312,0.1665039062,0.1323242188,37.5061035156,-17.7001953125,39.3524169922
2.0742981434,-0.7778320312,0.1665039062,0.1323242188,37.5061035156,-17.7001953125,39.3524169922
2.0768830776,-0.7778320312,0.1665039062,0.1323242188,39.5965576172,-18.4783935547,41.8395996094
2.0795559883,-0.7719726562,0.1635742188,0.1425781250,39.5965576172,-18.4783935547,41.8395996094
2.0822639465,-0.7719726562,0.1635742188,0.1425781250,40.9851074219,-19.0429687500,43.7469482422
2.0851321220,-0.7719726562,0.1635742188,0.1425781250,40.9851074219,-19.0429687500,43.7469482422
2.0882279873,-0.7719726562,0.1542968750,0.1113281250,39.1693115234,-18.8293457031,46.1730957031
2.0909430981,-0.7763671875,0.1542968750,0.1113281250,39.1693115234,-18.8293457031,50.0793457031
2.0936551094,-0.7763671875,0.1542968750,0.1113281250,36.1022949219,-18.3563232422,49.3164062500
2.0963671207,-0.7763671875,0.1542968750,0.1113281250,36.1022949219,-18.3563232422,53.2226562500
2.0990920067,-0.7656250000,0.1396484375,0.1474609375,34.5611572266,-18.4326171875,52.1545410156
2.1017940044,-0.7656250000,0.1396484375,0.1474609375,34.5611572266,-18.4326171875,52.1545410156
2.1045060158,-0.7656250000,0.1396484375,0.1474609375,34.4696044922,-19.2260742188,54.4586181641
2.1072170734,-0.7656250000,0.1396484375,0.1474609375,34.4696044922,-19.2260742188,58.3648681641
2.1100480556,-0.7529296875,0.1542968750,0.1621093750,35.5682373047,-19.9584960938,56.7626953125
2.1127610207,-0.7529296875,0.1542968750,0.1621093750,35.5682373047,-19.9584960938,59.9517822266
2.1154711246,-0.7529296875,0.1542968750,0.1621093750,39.0014648438,-18.8751220703,59.9517822266
2.1181819439,-0.7529296875,0.0976562500,0.1166992188,39.0014648438,-18.8751220703,63.8580322266
2.1207640171,-0.7851562500,0.0976562500,0.1166992188,41.7175292969,-18.6309814453,63.2781982422
2.1233429909,-0.7851562500,0.0976562500,0.1166992188,41.7175292969,-18.6309814453,63.2781982422
2.1259181499,-0.7851562500,0.0976562500,0.1166992188,43.0755615234,-19.2260742188,67.1691894531
2.1285099983,-0.7851562500,0.0219726562,0.1396484375,43.0755615234,-19.2260742188,67.1691894531
2.1310861111,-0.8325195312,0.0219726562,0.1396484375,44.7387695312,-18.2189941406,71.4263916016
2.1336679459,-0.8325195312,0.0219726562,0.1396484375,44.7387695312,-18.2189941406,71.4263916016
2.1362421513,-0.8325195312,0.0219726562,0.1396484375,45.1660156250,-16.9067382812,76.0803222656
2.1389751434,-0.8779296875,0.1049804688,0.1289062500,45.1660156250,-16.9067382812,76.0803222656
2.1415600777,-0.8779296875,0.1049804688,0.1289062500,47.1038818359,-16.7388916016,81.9854736328
2.1441380978,-0.8779296875,0.1049804688,0.1289062500,47.1038818359,-16.7388916016,81.9854736328
2.1467089653,-0.8779296875,0.1049804688,0.1289062500,47.9278564453,-17.7459716797,87.0361328125
2.1495020390,-0.9726562500,0.0488281250,0.1542968750,47.9278564453,-17.7459716797,87.0361328125
2.1522109509,-0.9726562500,0.0488281250,0.1542968750,50.2166748047,-16.9219970703,90.7440185547
2.1549220085,-0.9726562500,0.0488281250,0.1542968750,50.2166748047,-16.9219970703,90.7440185547
2.1576261520,-0.9726562500,0.0488281250,0.1542968750,51.2237548828,-15.5029296875,95.1538085938
2.1603391171,-1.1250000000,0.0395507812,0.0678710938,51.2237548828,-15.5029296875,95.1538085938
2.1630530357,-1.1250000000,0.0395507812,0.0678710938,49.3316650391,-14.1448974609,100.6469726562
2.1657590866,-1.1250000000,0.0395507812,0.0678710938,49.3316650391,-14.1448974609,100.6469726562
2.1684520245,-1.1250000000,0.0395507812,0.0688476562,49.4537353516,-14.2211914062,106.1248779297
2.1710281372,-1.1831054688,0.1040039062,0.0688476562,49.4537353516,-14.2211914062,106.1248779297
2.1737120152,-1.1831054688,0.1040039062,0.0688476562,52.6428222656,-14.6636962891,111.1297607422
2.1762931347,-1.1831054688,0.1040039062,0.0688476562,52.6428222656,-14.6636962891,111.1297607422
2.1789460182,-1.1831054688,0.1137695312,0.0224609375,57.2357177734,-13.8092041016,115.4022216797
2.1816530228,-1.2426757812,0.1137695312,0.0224609375,57.2357177734,-13.8092041016,115.4022216797
2.1843690872,-1.2426757812,0.1137695312,0.0224609375,59.4940185547,-12.4816894531,119.4458007812
2.1870739460,-1.2426757812,0.1137695312,0.0224609375,59.4940185547,-12.4816894531,119.4458007812
2.1897900105,-1.2851562500,0.1069335938,0.0058593750,59.4940185547,-12.5427246094,123.7182617188
2.1925089359,-1.2851562500,0.1069335938,0.0058593750,62.3168945312,-12.5427246094,123.7182617188
2.1952130795,-1.2851562500,0.1069335938,0.0058593750,66.2231445312,-12.8784179688,127.8076171875
2.1979370117,-1.2851562500,0.1069335938,0.0058593750,64.1937255859,-12.8784179688,127.8076171875
2.2006440163,-1.3315429688,-0.0214843750,0.0283203125,64.1937255859,-12.5427246094,131.9885253906
2.2033531666,-1.3315429688,-0.0214843750,0.0283203125,63.8580322266,-12.5427246094,131.9885253906
2.2062129974,-1.3315429688,-0.0214843750,0.0283203125,61.7523193359,-10.6353759766,135.8032226562
2.2092499733,-1.3315429688,-0.1010742188,0.0200195312,61.7523193359,-10.6353759766,135.8032226562
2.2119679451,-1.3525390625,-0.1010742188,0.0200195312,58.5479736328,-8.6212158203,139.7399902344
2.2146761417,-1.3525390625,-0.1010742188,0.0200195312,58.5479736328,-8.6212158203,139.7399902344
2.2173850536,-1.3525390625,-0.1010742188,0.0200195312,56.8389892578,-8.1634521484,144.8974609375
2.2199971676,-1.3808593750,-0.2187500000,0.0527343750,56.8389892578,-8.1634521484,144.8974609375
2.2225670815,-1.3808593750,-0.2187500000,0.0527343750,57.0220947266,-7.9650878906,150.0091552734
2.2251479626,-1.3808593750,-0.2187500000,0.0527343750,57.0220947266,-7.9650878906,150.0091552734
2.2277171612,-1.3808593750,-0.2187500000,0.0527343750,57.0220947266,-7.4615478516,154.6325683594
2.2304270267,-1.3886718750,-0.4008789062,0.0932617188,57.8308105469,-7.4615478516,154.6325683594
2.2331409454,-1.3886718750,-0.4008789062,0.0932617188,57.8308105469,-8.5144042969,159.9426269531
2.2358460426,-1.3886718750,-0.4008789062,0.0932617188,57.9986572266,-8.5144042969,159.9426269531
2.2386469841,-1.3886718750,-0.4008789062,0.0932617188,57.9986572266,-10.1623535156,165.2221679688
2.2412290573,-1.4375000000,-0.5517578125,0.1552734375,58.5632324219,-10.1623535156,165.2221679688
2.2438030243,-1.4375000000,-0.5517578125,0.1552734375,58.5632324219,-14.0686035156,171.0510253906
2.2463829517,-1.4375000000,-0.5517578125,0.1552734375,61.0046386719,-12.4511718750,171.0510253906
2.2489650249,-1.4375000000,-0.5517578125,0.2177734375,61.0046386719,-12.4511718750,176.0253906250
2.2515470982,-1.4707031250,-0.6396484375,0.2177734375,67.7337646484,-16.4489746094,176.0253906250
2.2541241646,-1.4707031250,-0.6396484375,0.2177734375,67.7337646484,-16.4489746094,176.0253906250
2.2567000389,-1.4707031250,-0.6396484375,0.2177734375,77.5451660156,-20.8587646484,179.0466308594
2.2594151497,-1.4707031250,-0.6396484375,0.2753906250,77.5451660156,-20.8587646484,179.0466308594
2.2619991302,-1.5258789062,-0.7402343750,0.2753906250,89.8437500000,-26.7486572266,180.5419921875
2.2645771503,-1.5258789062,-0.7402343750,0.2753906250,89.8437500000,-26.7486572266,180.5419921875
2.2671589851,-1.5258789062,-0.7402343750,0.2753906250,102.3712158203,-32.4554443359,180.9387207031
2.2698960304,-1.5258789062,-0.6284179688,0.3188476562,102.3712158203,-32.4554443359,180.9387207031
2.2724721432,-1.5971679688,-0.6284179688,0.3188476562,115.8294677734,-37.7807617188,179.9926757812
2.2750539780,-1.5971679688,-0.6284179688,0.3188476562,115.8294677734,-37.7807617188,179.9926757812
2.2776291370,-1.5971679688,-0.6284179688,0.3188476562,130.2490234375,-43.1823730469,179.4738769531
2.2803330421,-1.8291015625,-0.3920898438,0.1757812500,130.2490234375,-43.1823730469,179.4738769531
2.2830481529,-1.8291015625,-0.3920898438,0.1757812500,139.4653320312,-44.7540283203,184.1735839844
2.2857570648,-1.8291015625,-0.3920898438,0.1757812500,139.4653320312,-44.7540283203,184.1735839844
2.2884809971,-1.8291015625,-0.3920898438,0.1757812500,133.6364746094,-38.7420654297,197.9675292969
2.2911889553,-1.9467773438,-0.3911132812,0.2724609375,133.6364746094,-38.7420654297,197.9675292969
2.2938921452,-1.9467773438,-0.3911132812,0.2724609375,114.2425537109,-30.3192138672,213.9282226562
2.2966070175,-1.9467773438,-0.3911132812,0.2724609375,114.2425537109,-30.3192138672,213.9282226562
2.2992579937,-1.9467773438,-0.3911132812,0.2724609375,86.7919921875,-26.5045166016,225.1892089844
2.3019461632,-1.7724609375,-0.6757812500,0.3164062500,86.7919921875,-26.5045166016,225.1892089844
2.3045301437,-1.7724609375,-0.6757812500,0.3164062500,56.8695068359,-24.1851806641,227.1270751953
2.3071000576,-1.7724609375,-0.6757812500,0.3164062500,56.8695068359,-24.1851806641,227.1270751953
2.3097779751,-1.7724609375,-0.6757812500,0.4414062500,34.9578857422,-20.8282470703,220.5047607422
2.3123519421,-1.5966796875,-0.5942382812,0.4414062500,34.9578857422,-20.8282470703,220.5047607422
2.3149261475,-1.5966796875,-0.5942382812,0.4414062500,23.2391357422,-17.6086425781,207.9162597656
2.3175041676,-1.5966796875,-0.5942382812,0.4414062500,20.7519531250,-17.6086425781,207.9162597656
2.3201670647,-1.5966796875,-0.4624023438,0.2753906250,20.7519531250,-9.7961425781,193.2067871094
2.3227429390,-1.3662109375,-0.4624023438,0.2753906250,19.1192626953,-10.7116699219,193.2067871094
2.3254380226,-1.3662109375,-0.4624023438,0.2753906250,19.1192626953,1.0070800781,183.5632324219
2.3284749985,-1.3662109375,-0.4624023438,0.2753906250,27.5115966797,1.4953613281,183.5632324219
2.3311810493,-1.2094726562,-0.1503906250,-0.0371093750,27.5115966797,9.7045898438,182.0831298828
2.3338930607,-1.2094726562,-0.1503906250,-0.0371093750,28.5339355469,9.7045898438,182.0831298828
2.3366000652,-1.2094726562,-0.1503906250,-0.0371093750,12.9089355469,7.5531005859,182.3272705078
2.3393220901,-1.2094726562,-0.1503906250,-0.0371093750,14.3432617188,7.5531005859,182.3272705078
2.3420310020,-0.8579101562,0.3261718750,0.1738281250,-16.9067382812,-6.1340332031,182.0983886719
2.3447370529,-0.8579101562,0.3261718750,0.1738281250,-17.6849365234,-6.1340332031,182.0983886719
2.3474440575,-0.8579101562,0.3261718750,0.1738281250,-56.7474365234,-30.8685302734,168.7622070312
2.3501639366,-0.8579101562,0.3261718750,0.6000976562,-58.1207275391,-30.8685302734,168.7622070312
2.3528771400,-0.3339843750,0.2177734375,0.6000976562,-58.1207275391,-53.7414550781,133.4533691406
2.3555879593,-0.3339843750,0.2177734375,0.6000976562,-70.6024169922,-53.7414550781,133.4533691406
2.3582911491,-0.3339843750,0.2177734375,0.6000976562,-70.6024169922,-62.9577636719,94.5587158203
2.3608751297,-0.4589843750,-0.0581054688,0.4506835938,-54.4586181641,-62.9577636719,94.5587158203
2.3634519577,-0.4868164062,-0.0581054688,0.4506835938,-54.4586181641,-62.9577636719,61.4166259766
2.3661420345,-0.4868164062,-0.0581054688,0.4506835938,-33.1115722656,-66.6503906250,61.4166259766
2.3687341213,-0.4868164062,-0.0581054688,0.4506835938,-33.1115722656,-66.6503906250,27.4353027344
2.3713121414,-0.5356445312,-0.5703125000,0.2270507812,-5.4626464844,-61.5386962891,27.4353027344
2.3738861084,-0.5356445312,-0.5703125000,0.2270507812,-5.4626464844,-61.5386962891,27.4353027344
2.3764591217,-0.5356445312,-0.5703125000,0.2270507812,23.6511230469,-43.8690185547,-6.6680908203
2.3791899681,-0.5356445312,-0.5703125000,0.2270507812,23.6511230469,-43.8690185547,-6.6680908203
2.3817629814,-0.4633789062,-0.6533203125,-0.0634765625,50.1098632812,-27.2979736328,-35.7360839844
2.3843369484,-0.4633789062,-0.6533203125,-0.0634765625,50.1098632812,-27.2979736328,-35.7360839844
2.3869130611,-0.4633789062,-0.6533203125,-0.0634765625,64.2089843750,-20.2789306641,-59.8297119141
2.3895969391,-0.4633789062,-0.6533203125,-0.0634765625,64.2089843750,-20.2789306641,-59.8297119141
2.3921761513,-0.2583007812,-0.5996093750,-0.1601562500,62.6525878906,-20.1721191406,-82.0007324219
2.3947510719,-0.2583007812,-0.5996093750,-0.1601562500,62.6525878906,-20.1721191406,-82.0007324219
2.3973209858,-0.2583007812,-0.5996093750,-0.1601562500,49.9114990234,-23.0712890625,-104.0802001953
2.3999021053,-0.2583007812,-0.5996093750,-0.1601562500,49.9114990234,-23.0712890625,-104.0802001953
2.4024860859,-0.2055664062,-0.5385742188,-0.1147460938,34.3933105469,-26.7028808594,-123.3825683594
2.4050590992,-0.2055664062,-0.5385742188,-0.1147460938,34.3933105469,-26.7028808594,-123.3825683594
2.4076371193,-0.2055664062,-0.5385742188,-0.1147460938,19.5007324219,-28.7780761719,-139.0533447266
2.4102301598,-0.2055664062,-0.5385742188,-0.1147460938,19.5007324219,-28.7780761719,-139.0533447266
2.4128029346,-0.2797851562,-0.4296875000,-0.0537109375,19.5007324219,-28.9611816406,-153.6712646484
2.4153840542,-0.2797851562,-0.4296875000,-0.0537109375,5.0811767578,-28.9611816406,-153.6712646484
2.4180171490,-0.2797851562,-0.4296875000,-0.0537109375,5.0811767578,-25.0549316406,-168.6096191406
2.4205880165,-0.2797851562,-0.4296875000,-0.0537109375,-11.9018554688,-26.1077880859,-168.6096191406
2.4231629372,-0.3920898438,-0.3452148438,-0.0375976562,-11.9018554688,-26.1077880859,-184.2346191406
2.4257400036,-0.3920898438,-0.3452148438,-0.0375976562,-32.3944091797,-20.8740234375,-184.2346191406
2.4284460545,-0.3920898438,-0.3452148438,-0.0375976562,-32.3944091797,-20.8740234375,-199.6002197266
2.4311530590,-0.3920898438,-0.3452148438,-0.0966796875,-53.7109375000,-14.8620605469,-199.6002197266
2.4338650703,-0.5024414062,-0.3139648438,-0.0966796875,-53.7109375000,-14.8620605469,-211.3189697266
2.4365861416,-0.5024414062,-0.3139648438,-0.0966796875,-74.6917724609,-10.2081298828,-213.8061523438
2.4393060207,-0.5024414062,-0.3139648438,-0.0966796875,-74.6917724609,-10.2081298828,-229.4311523438
2.4420170784,-0.5766601562,-0.2500000000,-0.1176757812,-93.0175781250,-6.7596435547,-226.6082763672
2.4448821545,-0.5766601562,-0.2500000000,-0.1176757812,-93.0175781250,-6.7596435547,-237.6556396484
2.4480299950,-0.5766601562,-0.2500000000,-0.1176757812,-105.0720214844,-3.3416748047,-237.6556396484
2.4506151676,-0.5766601562,-0.2500000000,-0.1176757812,-105.0720214844,-3.3416748047,-247.6959228516
2.4531919956,-0.6455078125,-0.1767578125,-0.1337890625,-113.2965087891,0.2288818359,-247.6959228516
2.4557681084,-0.6455078125,-0.1767578125,-0.1337890625,-113.2965087891,0.2288818359,-258.4533691406
2.4583859444,-0.6455078125,-0.1767578125,-0.1337890625,-119.2016601562,4.4555664062,-258.4533691406
2.4610950947,-0.6455078125,-0.1767578125,-0.1411132812,-119.2016601562,4.4555664062,-269.0582275391
2.4638080597,-0.6791992188,-0.1303710938,-0.1411132812,-123.9318847656,9.5977783203,-269.0582275391
2.4665160179,-0.6791992188,-0.1303710938,-0.1411132812,-123.9318847656,9.5977783203,-280.7769775391
2.4692230225,-0.6791992188,-0.1303710938,-0.1411132812,-124.7711181641,15.0604248047,-279.2358398438
2.4719381332,-0.6791992188,-0.0615234375,-0.0610351562,-124.7711181641,15.0604248047,-287.0483398438
2.4746460915,-0.7348632812,-0.0615234375,-0.0610351562,-120.5749511719,20.4162597656,-289.0625000000
2.4773609638,-0.7348632812,-0.0615234375,-0.0610351562,-120.5749511719,20.4162597656,-300.7812500000
2.4799780846,-0.7348632812,-0.0615234375,-0.0610351562,-112.5030517578,26.5808105469,-298.4313964844
2.4825580120,-0.7885742188,0.0673828125,-0.0209960938,-112.5030517578,26.5808105469,-298.4313964844
2.4851379395,-0.7885742188,0.0673828125,-0.0209960938,-101.2878417969,31.4331054688,-306.7016601562
2.4877181053,-0.7885742188,0.0673828125,-0.0209960938,-101.2878417969,31.4331054688,-306.7016601562
2.4902989864,-0.7885742188,0.0673828125,-0.0209960938,-89.4927978516,35.2783203125,-315.7348632812
2.4928810596,-0.8305664062,0.2138671875,-0.0190429688,-89.4927978516,35.2783203125,-315.7348632812
2.4955711365,-0.8305664062,0.2138671875,-0.0190429688,-76.2786865234,38.2537841797,-324.3865966797
2.4982471466,-0.8305664062,0.2138671875,-0.0190429688,-76.2786865234,38.2537841797,-324.3865966797
2.5008430481,-0.8305664062,0.2138671875,-0.0190429688,-61.3861083984,41.2445068359,-332.5500488281
2.5034210682,-0.9013671875,0.2685546875,-0.0356445312,-61.3861083984,41.2445068359,-332.5500488281
2.5060009956,-0.9013671875,0.2685546875,-0.0356445312,-48.0041503906,44.7082519531,-340.3778076172
2.5086159706,-0.9013671875,0.2685546875,-0.0356445312,-48.0041503906,44.7082519531,-340.3778076172
2.5111939907,-0.9013671875,0.2685546875,-0.0356445312,-38.2385253906,48.1872558594,-347.0916748047
2.5137729645,-0.9472656250,0.2397460938,-0.0532226562,-38.2385253906,48.1872558594,-347.0916748047
2.5163481236,-0.9472656250,0.2397460938,-0.0532226562,-34.3322753906,49.9725341797,-353.6682128906
2.5189330578,-0.9472656250,0.2397460938,-0.0532226562,-32.3791503906,49.9725341797,-353.6682128906
2.5215139389,-0.9472656250,0.2397460938,-0.0532226562,-32.3791503906,49.9725341797,-359.8327636719
2.5240900517,-1.0380859375,0.2075195312,-0.0458984375,-28.4729003906,50.3845214844,-359.8327636719
2.5266730785,-1.0380859375,0.2075195312,-0.0458984375,-28.4729003906,50.3845214844,-364.8071289062
2.5293469429,-1.0380859375,0.2075195312,-0.0458984375,-24.0325927734,50.5065917969,-364.8071289062
2.5319190025,-1.0380859375,0.2075195312,-0.0068359375,-24.0325927734,50.5065917969,-368.7133789062
2.5344951153,-1.1264648438,0.2143554688,-0.0068359375,-20.1110839844,50.8270263672,-369.4610595703
2.5370690823,-1.1264648438,0.2143554688,-0.0068359375,-20.1110839844,50.8270263672,-369.4610595703
2.5397491455,-1.1264648438,0.2143554688,-0.0068359375,-17.1966552734,51.1474609375,-374.4659423828
2.5423259735,-1.1264648438,0.2143554688,0.0029296875,-17.1966552734,51.1474609375,-374.4659423828
2.5448999405,-1.2646484375,0.2119140625,0.0029296875,-15.3503417969,50.8728027344,-379.9133300781
2.5474779606,-1.2646484375,0.2119140625,0.0029296875,-15.3503417969,50.8728027344,-379.9133300781
2.5501720905,-1.2646484375,0.2119140625,0.0029296875,-17.5476074219,52.1697998047,-384.1705322266
2.5527470112,-1.3896484375,0.2719726562,0.0087890625,-17.5476074219,52.1697998047,-384.1705322266
2.5553209782,-1.4160156250,0.2719726562,0.0087890625,-22.7966308594,53.3447265625,-387.1612548828
2.5580880642,-1.4160156250,0.2719726562,0.0087890625,-22.7966308594,53.3447265625,-387.1612548828
2.5606570244,-1.4160156250,0.2719726562,0.0087890625,-31.1889648438,54.5806884766,-389.2669677734
2.5632319450,-1.5312500000,0.3251953125,-0.0039062500,-31.1889648438,54.5806884766,-389.2669677734
2.5658850670,-1.5312500000,0.3251953125,-0.0039062500,-41.0614013672,55.7250976562,-390.9149169922
2.5687730312,-1.5312500000,0.3251953125,-0.0039062500,-41.0614013672,55.7250976562,-390.9149169922
2.5717511177,-1.5312500000,0.3251953125,-0.0039062500,-53.5736083984,56.4117431641,-390.8996582031
2.5744700432,-1.6372070312,0.3774414062,0.0312500000,-53.5736083984,56.4117431641,-390.8996582031
2.5771811008,-1.6372070312,0.3774414062,0.0312500000,-67.7032470703,57.1441650391,-388.9770507812
2.5799100399,-1.6372070312,0.3774414062,0.0312500000,-67.7032470703,57.1441650391,-388.9770507812
2.5826270580,-1.6372070312,0.5024414062,0.0664062500,-80.0933837891,58.1054687500,-385.1623535156
2.5853371620,-1.7563476562,0.5078125000,0.0664062500,-80.0933837891,58.1054687500,-385.1623535156
2.5880849361,-1.7563476562,0.5078125000,0.0664062500,-90.2404785156,59.4635009766,-380.3558349609
2.5906691551,-1.7563476562,0.5078125000,0.0664062500,-90.2404785156,59.4635009766,-380.3558349609
2.5932500362,-1.7563476562,0.6757812500,0.1406250000,-98.6480712891,62.6525878906,-373.2757568359
2.5958340168,-1.8676757812,0.6757812500,0.1406250000,-98.6480712891,62.6525878906,-373.2757568359
2.5984680653,-1.8676757812,0.6757812500,0.1406250000,-103.2714843750,67.8100585938,-363.9526367188
2.6010510921,-1.8676757812,0.6757812500,0.1406250000,-103.2714843750,67.8100585938,-363.9526367188
2.6036360264,-1.9003906250,0.7509765625,0.2094726562,-104.5379638672,73.3947753906,-352.0507812500
2.6062090397,-1.9003906250,0.7509765625,0.2094726562,-104.5379638672,73.3947753906,-352.0507812500
2.6088550091,-1.9003906250,0.7509765625,0.2094726562,-108.4442138672,75.6072998047,-334.6710205078
2.6114389896,-1.9003906250,0.7509765625,0.2094726562,-105.4840087891,75.6072998047,-334.6710205078
2.6140170097,-1.8154296875,0.9829101562,0.3305664062,-105.4840087891,75.6072998047,-313.4460449219
2.6166031361,-1.8154296875,0.9829101562,0.3305664062,-113.4490966797,74.3255615234,-313.4460449219
2.6193439960,-1.8154296875,0.9829101562,0.3305664062,-113.4490966797,74.3255615234,-295.2575683594
2.6220381260,-1.8154296875,0.9829101562,0.3305664062,-126.8920898438,71.0449218750,-295.2575683594
2.6246249676,-1.4257812500,1.3071289062,0.5937500000,-126.8920898438,71.0449218750,-277.4658203125
2.6272039413,-1.4257812500,1.3071289062,0.5937500000,-131.7138671875,62.2863769531,-277.4658203125
2.6299231052,-1.4257812500,1.3071289062,0.5937500000,-131.7138671875,62.2863769531,-254.0283203125
2.6324999332,-1.4257812500,1.3071289062,0.5937500000,-126.1749267578,48.8739013672,-256.4239501953
2.6350769997,-0.9799804688,2.0444335938,0.8427734375,-126.1749267578,48.8739013672,-256.4239501953
2.6376600266,-0.9799804688,2.0444335938,0.8427734375,-114.1052246094,34.5916748047,-231.5063476562
2.6403920650,-0.9799804688,2.0444335938,0.8427734375,-114.1052246094,34.5916748047,-231.5063476562
2.6431000233,-0.9799804688,2.0444335938,0.9838867188,-92.2698974609,22.0336914062,-204.4830322266
2.6458160877,-0.7656250000,2.5639648438,0.9838867188,-92.2698974609,22.0336914062,-204.4830322266
2.6485390663,-0.7656250000,2.5639648438,0.9838867188,-60.3637695312,9.1094970703,-173.2025146484
2.6512460709,-0.7656250000,2.5639648438,0.9838867188,-60.3637695312,9.1094970703,-173.2025146484
2.6539521217,-0.7246093750,2.5659179688,0.9580078125,-25.5432128906,-2.3345947266,-132.8430175781
2.6566531658,-0.7246093750,2.5659179688,0.9580078125,-25.5432128906,-2.3345947266,-132.8430175781
2.6593749523,-0.7246093750,2.5659179688,0.9580078125,9.2620849609,-11.8713378906,-82.6721191406
2.6620819569,-0.7246093750,2.5659179688,0.9580078125,9.2620849609,-11.8713378906,-82.6721191406
2.6647839546,-0.6674804688,2.3583984375,0.7441406250,37.3840332031,-19.2108154297,-25.8789062500
2.6674981117,-0.6674804688,2.3583984375,0.7441406250,37.3840332031,-19.2108154297,-25.8789062500
2.6702139378,-0.6674804688,2.3583984375,0.7441406250,52.2460937500,-23.6511230469,30.7617187500
2.6729190350,-0.6674804688,2.3583984375,0.7441406250,52.2460937500,-23.6511230469,30.7617187500
2.6756320000,-0.7578125000,2.1713867188,0.6074218750,52.1697998047,-25.8178710938,82.5500488281
2.6783361435,-0.7578125000,2.1713867188,0.6074218750,52.1697998047,-25.8178710938,82.5500488281
2.6809170246,-0.7578125000,2.1713867188,0.6074218750,38.7420654297,-28.8696289062,126.1596679688
2.6834950447,-0.7578125000,2.1713867188,0.5698242188,38.7420654297,-28.8696289062,126.1596679688
2.6862850189,-0.7919921875,1.9716796875,0.5698242188,16.5405273438,-35.1867675781,163.0401611328
2.6891610622,-0.7919921875,1.9716796875,0.5698242188,16.5405273438,-35.1867675781,163.0401611328
2.6918680668,-0.7919921875,1.9716796875,0.5698242188,-6.0729980469,-45.1202392578,195.2514648438
2.6945760250,-0.8847656250,1.2255859375,0.6186523438,-6.0729980469,-45.1202392578,195.2514648438
2.6972820759,-0.8847656250,1.2255859375,0.6186523438,-34.6069335938,-58.4106445312,215.6066894531
2.6999940872,-0.8847656250,1.2255859375,0.6186523438,-34.6069335938,-58.4106445312,215.6066894531
2.7027070522,-0.8847656250,1.2255859375,0.6186523438,-63.5986328125,-61.3403320312,208.0993652344
2.7054150105,-1.4370117188,-0.9833984375,-0.0634765625,-63.5986328125,-61.3403320312,208.0993652344
2.7081401348,-1.4370117188,-0.9833984375,-0.0634765625,-59.7991943359,-35.1104736328,181.7169189453
2.7108399868,-1.4370117188,-0.9833984375,-0.0634765625,-59.7991943359,-35.1104736328,181.7169189453
2.7135491371,-1.4370117188,-0.9833984375,-0.6884765625,-85.6323242188,-7.8125000000,146.7437744141
2.7162549496,-1.5761718750,-2.9946289062,-0.7338867188,-85.6323242188,-7.8125000000,146.7437744141
2.7189249992,-1.5761718750,-2.9946289062,-0.7338867188,-89.5080566406,10.2386474609,103.9886474609
2.7215020657,-1.5761718750,-2.9946289062,-0.7338867188,-89.5080566406,10.2386474609,103.9886474609
2.7240869999,-1.5761718750,-1.7446289062,-0.8618164062,-92.6971435547,5.5999755859,94.1467285156
2.7266571522,-1.4077148438,-1.7172851562,-0.8618164062,-92.6971435547,5.5999755859,94.1467285156
2.7292850018,-1.4077148438,-1.7172851562,-0.8618164062,-169.7387695312,-4.0893554688,130.6610107422
2.7320821285,-1.4077148438,-1.7172851562,-0.8618164062,-169.7387695312,-4.0893554688,130.6610107422
2.7346489429,-1.2827148438,1.1015625000,0.1201171875,-253.4790039062,-7.4157714844,183.5784912109
2.7372231483,-1.3627929688,1.1015625000,0.1201171875,-253.4790039062,-7.4157714844,183.5784912109
2.7399470806,-1.3627929688,1.1015625000,0.1201171875,-282.7606201172,-26.8402099609,227.3559570312
2.7425241470,-1.3627929688,1.1015625000,0.1201171875,-282.7606201172,-26.8402099609,227.3559570312
2.7451050282,-1.5424804688,2.4287109375,0.6743164062,-257.5683593750,-61.3708496094,252.1209716797
2.7476780415,-1.5424804688,2.4287109375,0.6743164062,-257.5683593750,-61.3708496094,252.1209716797
2.7506761551,-1.5424804688,2.4287109375,0.6743164062,-187.8509521484,-81.1004638672,246.4904785156
2.7533819675,-1.5424804688,2.4287109375,0.6743164062,-187.8509521484,-81.1004638672,246.4904785156
2.7560870647,-1.7397460938,1.4389648438,0.0039062500,-92.4377441406,-75.0579833984,211.9140625000
2.7588009834,-1.7397460938,1.4389648438,0.0039062500,-92.4377441406,-75.0579833984,211.9140625000
2.7615079880,-1.7397460938,1.4389648438,0.0039062500,-28.2897949219,-55.2673339844,175.2166748047
2.7642099857,-1.7397460938,1.4389648438,-0.1235351562,-28.2897949219,-55.2673339844,175.2166748047
2.7669179440,-0.9833984375,0.9536132812,-0.1235351562,-12.5427246094,-42.7703857422,156.3873291016
2.7696321011,-0.9833984375,0.9536132812,-0.1235351562,-12.5427246094,-42.7703857422,156.3873291016
2.7723441124,-0.9833984375,0.9536132812,-0.1235351562,-8.3618164062,-47.1343994141,148.4222412109
2.7750461102,-0.6083984375,0.9736328125,0.2329101562,-8.3618164062,-47.1343994141,148.4222412109
2.7777900696,-0.5722656250,0.9736328125,0.2329101562,-0.2288818359,-57.5256347656,142.3645019531
2.7803709507,-0.5722656250,0.9736328125,0.2329101562,-0.2288818359,-57.5256347656,142.3645019531
2.7829430103,-0.5722656250,0.9736328125,0.2329101562,-0.2288818359,-62.4084472656,137.2833251953
2.7855150700,-0.8144531250,0.7099609375,0.3139648438,11.6882324219,-62.4084472656,137.2833251953
2.7881309986,-0.8144531250,0.7099609375,0.3139648438,11.6882324219,-62.4084472656,131.2561035156
2.7908329964,-0.8144531250,0.7099609375,0.3139648438,24.1241455078,-61.8743896484,131.2561035156
2.7935459614,-0.8144531250,0.7099609375,0.3139648438,24.1241455078,-57.9681396484,123.9776611328
2.7962579727,-0.8354492188,0.4868164062,0.2656250000,32.4096679688,-58.2275390625,123.9776611328
2.7989780903,-0.8354492188,0.4868164062,0.2656250000,32.4096679688,-54.3212890625,115.7379150391
2.8016870022,-0.8354492188,0.4868164062,0.2656250000,40.0848388672,-52.5207519531,115.7379150391
2.8044781685,-0.8354492188,0.4868164062,0.2656250000,40.0848388672,-48.6145019531,107.5897216797
2.8071889877,-0.5898437500,0.4672851562,0.3217773438,52.0782470703,-48.5687255859,107.5897216797
2.8101620674,-0.5898437500,0.4672851562,0.3217773438,63.7969970703,-49.0722656250,101.1505126953
2.8128709793,-0.5898437500,0.4672851562,0.3217773438,66.1163330078,-49.0722656250,101.1505126953
2.8156940937,-0.5458984375,0.4423828125,0.3535156250,77.8350830078,-51.3610839844,96.3439941406
2.8184089661,-0.5458984375,0.4423828125,0.3535156250,78.0029296875,-51.3610839844,96.3439941406
2.8211181164,-0.5458984375,0.4423828125,0.3535156250,85.8154296875,-53.2226562500,92.3156738281
2.8238370419,-0.5458984375,0.4423828125,0.3535156250,84.9456787109,-53.2226562500,92.3156738281
2.8265430927,-0.7993164062,0.4160156250,0.3500976562,88.8519287109,-53.1921386719,90.2252197266
2.8292391300,-0.7993164062,0.4160156250,0.3500976562,87.6159667969,-53.1921386719,90.2252197266
2.8318171501,-0.7993164062,0.4160156250,0.3500976562,87.6159667969,-49.2858886719,87.7380371094
2.8343920708,-0.7993164062,0.4160156250,0.3500976562,92.1020507812,-49.6826171875,87.7380371094
2.8369729519,-0.9951171875,0.3378906250,0.3212890625,92.1020507812,-49.6826171875,81.9854736328
2.8396019936,-0.9951171875,0.3378906250,0.3212890625,99.7161865234,-42.0837402344,81.9854736328
2.8421771526,-0.9951171875,0.3378906250,0.3212890625,99.7161865234,-42.0837402344,74.1729736328
2.8447580338,-0.9951171875,0.3378906250,0.3212890625,100.9063720703,-33.6914062500,73.8220214844
2.8473360538,-0.9130859375,0.2792968750,0.2475585938,100.9063720703,-33.6914062500,73.8220214844
2.8499281406,-0.9130859375,0.2792968750,0.2475585938,91.7205810547,-28.3660888672,66.3146972656
2.8525040150,-0.9130859375,0.2792968750,0.2475585938,91.7205810547,-28.3660888672,66.3146972656
2.8550829887,-0.9130859375,0.2792968750,0.1762695312,77.0874023438,-26.6113281250,60.6536865234
2.8576610088,-0.7504882812,0.1831054688,0.1762695312,77.0874023438,-26.6113281250,60.6536865234
2.8603179455,-0.7504882812,0.1831054688,0.1762695312,62.6525878906,-25.2227783203,56.1676025391
2.8628940582,-0.7504882812,0.1831054688,0.1762695312,62.6525878906,-25.2227783203,56.1676025391
2.8654761314,-0.7504882812,0.0581054688,0.1030273438,52.4749755859,-23.6053466797,52.6275634766
2.8681900501,-0.6894531250,0.0996093750,0.1030273438,52.4749755859,-23.6053466797,52.6275634766
2.8707709312,-0.6894531250,0.0996093750,0.1030273438,47.1801757812,-21.5301513672,50.2319335938
2.8733479977,-0.6894531250,0.0996093750,0.1030273438,47.1801757812,-21.5301513672,50.2319335938
2.8759310246,-0.6894531250,0.1503906250,0.0639648438,44.7692871094,-19.4091796875,48.6755371094
2.8786759377,-0.7158203125,0.1503906250,0.0639648438,44.7692871094,-19.4091796875,48.6755371094
2.8813850880,-0.7158203125,0.1503906250,0.0639648438,42.9229736328,-17.6849365234,47.3175048828
2.8840939999,-0.7158203125,0.1503906250,0.0639648438,42.9229736328,-17.6849365234,47.3175048828
2.8868031502,-0.7451171875,0.1123046875,0.0595703125,40.7409667969,-16.5405273438,44.1589355469
2.8895261288,-0.7451171875,0.1123046875,0.0595703125,40.7409667969,-16.5405273438,44.1589355469
2.8922359943,-0.7451171875,0.1123046875,0.0595703125,40.8782958984,-15.0909423828,39.8101806641
2.8949379921,-0.7451171875,0.1123046875,0.0595703125,40.8782958984,-15.0909423828,39.8101806641
2.8976471424,-0.7290039062,0.0307617188,0.0917968750,41.6412353516,-14.7705078125,36.5600585938
2.9002530575,-0.7290039062,0.0307617188,0.0917968750,41.6412353516,-14.7705078125,36.5600585938
2.9028329849,-0.7290039062,0.0307617188,0.0917968750,41.6412353516,-14.1601562500,35.6597900391
2.9054069519,-0.7290039062,0.0307617188,0.0917968750,41.3055419922,-14.1601562500,35.6597900391
2.9080679417,-0.7636718750,-0.0302734375,0.1245117188,41.3055419922,-12.8021240234,35.6292724609
2.9107749462,-0.7636718750,-0.0302734375,0.1245117188,39.0625000000,-12.8021240234,35.6292724609
2.9134891033,-0.7636718750,-0.0302734375,0.1245117188,39.0625000000,-10.6201171875,36.0260009766
2.9161970615,-0.7636718750,-0.0683593750,0.1381835938,36.2701416016,-10.6201171875,36.0260009766
2.9188711643,-0.7607421875,-0.0683593750,0.1381835938,36.2701416016,-10.6201171875,36.4837646484
2.9214520454,-0.7607421875,-0.0683593750,0.1381835938,32.7148437500,-9.3231201172,36.4837646484
2.9241340160,-0.7607421875,-0.0683593750,0.1381835938,32.7148437500,-9.3231201172,37.5213623047
2.9268009663,-0.7036132812,-0.0253906250,0.1455078125,27.5878906250,-8.8806152344,37.5213623047
2.9298951626,-0.7036132812,-0.0253906250,0.1455078125,19.7753906250,-8.6212158203,38.4674072266
2.9326050282,-0.7036132812,-0.0253906250,0.1455078125,22.1862792969,-8.6212158203,38.4674072266
2.9353160858,-0.7036132812,-0.0253906250,0.1455078125,18.2800292969,-7.9650878906,38.9099121094
2.9380650520,-0.6572265625,0.0039062500,0.1435546875,17.8833007812,-7.9650878906,38.9099121094
2.9407689571,-0.6572265625,0.0039062500,0.1435546875,13.9770507812,-7.7056884766,39.0930175781
2.9435889721,-0.6572265625,0.0039062500,0.1435546875,14.0075683594,-7.7056884766,39.0930175781
2.9462921619,-0.6572265625,0.0039062500,0.1479492188,10.1013183594,-6.6528320312,40.0390625000
2.9490110874,-0.6552734375,0.0288085938,0.1479492188,11.5814208984,-6.6528320312,40.0390625000
2.9517240524,-0.6552734375,0.0288085938,0.1479492188,11.5814208984,-6.1798095703,41.7938232422
2.9544341564,-0.6552734375,0.0288085938,0.1479492188,10.8947753906,-6.1798095703,41.7938232422
2.9571421146,-0.6523437500,0.0415039062,0.1274414062,10.8947753906,-6.9427490234,43.5180664062
2.9597899914,-0.6523437500,0.0415039062,0.1274414062,10.3302001953,-6.9427490234,43.5180664062
2.9623630047,-0.6523437500,0.0415039062,0.1274414062,10.3302001953,-6.9427490234,44.5709228516
2.9649419785,-0.6523437500,0.0415039062,0.1274414062,10.7879638672,-7.5225830078,44.5709228516
2.9675171375,-0.6621093750,0.0590820312,0.1069335938,10.7879638672,-7.5225830078,45.5017089844
2.9701020718,-0.6621093750,0.0590820312,0.1069335938,12.3443603516,-7.9498291016,45.5017089844
2.9726741314,-0.6621093750,0.0590820312,0.1069335938,12.3443603516,-7.9498291016,45.5017089844
2.9752480984,-0.6621093750,0.0590820312,0.1069335938,13.2446289062,-8.7127685547,46.7834472656
2.9779269695,-0.6928710938,0.0434570312,0.0830078125,13.2446289062,-8.7127685547,46.7834472656
2.9805071354,-0.6928710938,0.0434570312,0.0830078125,14.7094726562,-10.4370117188,48.1872558594
2.9830861092,-0.6928710938,0.0434570312,0.0830078125,14.7094726562,-10.4370117188,48.1872558594
2.9856719971,-0.6928710938,0.0434570312,0.0830078125,17.6696777344,-11.8865966797,48.9501953125
2.9883980751,-0.7128906250,0.0117187500,0.0590820312,17.6696777344,-11.8865966797,48.9501953125
2.9911119938,-0.7128906250,0.0117187500,0.0590820312,19.2108154297,-12.7410888672,50.0793457031
2.9938161373,-0.7128906250,0.0117187500,0.0590820312,19.2108154297,-12.7410888672,50.0793457031
2.9965250492,-0.7128906250,0.0117187500,0.0307617188,19.0887451172,-14.0686035156,52.0935058594
2.9992780685,-0.7392578125,0.0371093750,0.0307617188,19.0887451172,-14.0686035156,52.0935058594
3.0019841194,-0.7392578125,0.0371093750,0.0307617188,19.4244384766,-14.6636962891,54.5806884766
3.0046949387,-0.7392578125,0.0371093750,0.0307617188,19.4244384766,-14.6636962891,54.5806884766
3.0075161457,-0.7734375000,0.0454101562,0.0292968750,18.6309814453,-14.6636962891,57.4188232422
3.0101089478,-0.7734375000,0.0454101562,0.0292968750,18.6309814453,-14.6636962891,57.4188232422
3.0126941204,-0.7734375000,0.0454101562,0.0292968750,17.0593261719,-15.1519775391,59.5245361328
3.0152771473,-0.7734375000,0.0454101562,0.0292968750,17.0593261719,-15.1519775391,59.5245361328
3.0178611279,-0.7802734375,0.0429687500,0.0346679688,14.9993896484,-16.9525146484,61.8133544922
3.0205590725,-0.7802734375,0.0429687500,0.0346679688,14.9993896484,-16.9525146484,61.8133544922
3.0232479572,-0.7802734375,0.0429687500,0.0346679688,15.7165527344,-18.3410644531,64.1632080078
3.0259389877,-0.7802734375,0.0429687500,0.0346679688,15.7165527344,-18.3410644531,64.1632080078
3.0287621021,-0.7934570312,0.0751953125,0.0800781250,18.1732177734,-18.4631347656,65.6433105469
3.0314509869,-0.7934570312,0.0751953125,0.0800781250,18.1732177734,-18.4631347656,65.6433105469
3.0341470242,-0.7934570312,0.0751953125,0.0800781250,20.8892822266,-18.6767578125,66.4520263672
3.0368340015,-0.7934570312,0.0751953125,0.0937500000,20.8892822266,-18.6767578125,66.4520263672
3.0395240784,-0.7885742188,0.1440429688,0.0937500000,23.8494873047,-19.6533203125,67.7032470703
3.0422000885,-0.7885742188,0.1440429688,0.0937500000,23.8494873047,-19.6533203125,67.7032470703
3.0451331139,-0.7885742188,0.1440429688,0.0937500000,27.0080566406,-20.3399658203,69.6258544922
3.0481910706,-0.8022460938,0.2001953125,0.1137695312,27.0080566406,-20.3399658203,69.6258544922
3.0507750511,-0.8022460938,0.2001953125,0.1137695312,29.1900634766,-20.2331542969,71.2738037109
3.0533540249,-0.8022460938,0.2001953125,0.1137695312,29.1900634766,-20.2331542969,71.2738037109
3.0559389591,-0.8022460938,0.2001953125,0.1137695312,31.7993164062,-19.1345214844,73.0285644531
3.0586371422,-0.8164062500,0.1665039062,0.1025390625,31.7993164062,-19.1345214844,73.0285644531
3.0613501072,-0.8164062500,0.1665039062,0.1025390625,33.5235595703,-18.3258056641,75.1953125000
3.0640680790,-0.8164062500,0.1665039062,0.1025390625,33.5235595703,-18.3258056641,75.1953125000
3.0667729378,-0.8164062500,0.1665039062,0.1025390625,34.7747802734,-18.4478759766,77.8045654297
3.0694949627,-0.8222656250,0.1040039062,0.1137695312,34.7747802734,-18.4478759766,77.8045654297
3.0723071098,-0.8222656250,0.1040039062,0.1137695312,36.2091064453,-18.8903808594,80.7952880859
3.0750160217,-0.8222656250,0.1040039062,0.1137695312,36.2091064453,-18.8903808594,80.7952880859
3.0777289867,-0.8222656250,0.0839843750,0.1210937500,37.0941162109,-18.4478759766,83.4197998047
3.0803489685,-0.8242187500,0.0839843750,0.1210937500,37.0941162109,-18.4478759766,83.4197998047
3.0835349560,-0.8242187500,0.0839843750,0.1210937500,38.5437011719,-17.5933837891,86.8225097656
3.0861110687,-0.8242187500,0.0839843750,0.1210937500,38.5437011719,-17.5933837891,86.8225097656
3.0887229443,-0.8481445312,0.1157226562,0.1420898438,40.0085449219,-16.3879394531,91.0491943359
3.0913031101,-0.8481445312,0.1157226562,0.1420898438,40.0085449219,-16.3879394531,91.0491943359
3.0938730240,-0.8481445312,0.1157226562,0.1420898438,41.8090820312,-16.3574218750,95.4895019531
3.0964429379,-0.8481445312,0.1157226562,0.1420898438,41.8090820312,-16.3574218750,95.4895019531
3.0990631580,-0.9443359375,0.0708007812,0.2099609375,44.4641113281,-15.1214599609,100.0061035156
3.1016311646,-0.9443359375,0.0708007812,0.2099609375,44.4641113281,-15.1214599609,100.0061035156
3.1042070389,-0.9443359375,0.0708007812,0.2099609375,48.3703613281,-14.9383544922,103.4393310547
3.1067800522,-0.9443359375,0.0708007812,0.2099609375,47.8057861328,-14.9383544922,103.4393310547
3.1094160080,-1.0751953125,0.0419921875,0.1440429688,47.8057861328,-14.9383544922,106.4453125000
3.1119921207,-1.0751953125,0.0419921875,0.1440429688,49.4384765625,-14.8468017578,106.4453125000
3.1145701408,-1.0751953125,0.0419921875,0.1440429688,49.4384765625,-14.8468017578,110.9619140625
3.1171400547,-1.0751953125,0.0419921875,0.1440429688,50.5523681641,-14.2517089844,110.9619140625
3.1197230816,-1.1616210938,0.0537109375,0.1098632812,50.5523681641,-14.2517089844,114.8681640625
3.1223011017,-1.1616210938,0.0537109375,0.1098632812,50.9643554688,-14.5111083984,116.4703369141
3.1248829365,-1.1616210938,0.0537109375,0.1098632812,50.9643554688,-14.5111083984,116.4703369141
3.1274640560,-1.1616210938,0.0537109375,-0.0151367188,52.3986816406,-14.7552490234,121.9329833984
3.1301829815,-1.2001953125,0.0092773438,-0.0068359375,52.3986816406,-14.7552490234,121.9329833984
3.1327631474,-1.2001953125,0.0092773438,-0.0068359375,53.9245605469,-14.8620605469,127.1820068359
3.1354451180,-1.2001953125,0.0092773438,-0.0068359375,53.9245605469,-14.8620605469,127.1820068359
3.1381950378,-1.2001953125,-0.1157226562,-0.0561523438,54.6875000000,-13.6413574219,133.6822509766
3.1409060955,-1.2416992188,-0.0258789062,-0.0561523438,54.6875000000,-13.6413574219,133.6822509766
3.1436140537,-1.2416992188,-0.0258789062,-0.0561523438,53.7414550781,-12.4206542969,139.9230957031
3.1463201046,-1.2416992188,-0.0258789062,-0.0561523438,53.7414550781,-12.4206542969,139.9230957031
3.1490190029,-1.3041992188,-0.0883789062,-0.0541992188,50.9185791016,-11.0015869141,146.1334228516
3.1515991688,-1.3041992188,-0.0883789062,-0.0541992188,50.9185791016,-11.0015869141,146.1334228516
3.1541759968,-1.3041992188,-0.0883789062,-0.0541992188,47.6074218750,-10.1013183594,152.0080566406
3.1567521095,-1.3041992188,-0.0883789062,-0.0541992188,47.6074218750,-10.1013183594,152.0080566406
3.1594140530,-1.3334960938,-0.1450195312,-0.0214843750,44.5709228516,-9.1094970703,157.6995849609
3.1621220112,-1.3334960938,-0.1450195312,-0.0214843750,44.5709228516,-9.1094970703,157.6995849609
3.1648271084,-1.3334960938,-0.1450195312,-0.0214843750,42.6940917969,-9.0332031250,162.8265380859
3.1675319672,-1.3334960938,-0.1450195312,-0.0214843750,42.6940917969,-9.0332031250,162.8265380859
3.1701681614,-1.3325195312,-0.2080078125,0.0556640625,41.3818359375,-9.7045898438,167.7246093750
3.1727380753,-1.3325195312,-0.2080078125,0.0556640625,41.3818359375,-9.7045898438,167.7246093750
3.1753120422,-1.3325195312,-0.2080078125,0.0556640625,42.1752929688,-9.9487304688,171.9360351562
3.1779010296,-1.3325195312,-0.2080078125,0.0556640625,42.1752929688,-9.9487304688,171.9360351562
3.1806080341,-1.3212890625,-0.2856445312,0.1176757812,44.5709228516,-10.9863281250,176.1627197266
3.1833200455,-1.3212890625,-0.2856445312,0.1176757812,44.5709228516,-10.9863281250,176.1627197266
3.1860289574,-1.3212890625,-0.2856445312,0.1176757812,48.3551025391,-13.6260986328,180.5114746094
3.1887459755,-1.3212890625,-0.2856445312,0.2050781250,48.3551025391,-13.6260986328,180.5114746094
3.1914501190,-1.3486328125,-0.3525390625,0.2050781250,53.7719726562,-16.4489746094,184.1125488281
3.1944029331,-1.3486328125,-0.3525390625,0.2050781250,53.7719726562,-16.4489746094,184.1125488281
3.1971001625,-1.3486328125,-0.3525390625,0.2050781250,62.0422363281,-18.6309814453,187.5915527344
3.2000341415,-1.4257812500,-0.4462890625,0.2802734375,62.0422363281,-18.6309814453,187.5915527344
3.2027330399,-1.4257812500,-0.4462890625,0.2802734375,71.6552734375,-21.8658447266,190.3076171875
3.2053091526,-1.4257812500,-0.4462890625,0.2802734375,71.6552734375,-21.8658447266,190.3076171875
3.2078940868,-1.4257812500,-0.4462890625,0.2802734375,83.8470458984,-25.7263183594,191.8945312500
3.2106080055,-1.5004882812,-0.5200195312,0.3881835938,83.8470458984,-25.7263183594,191.8945312500
3.2133140564,-1.5004882812,-0.5200195312,0.3881835938,99.9298095703,-30.0445556641,191.8792724609
3.2160151005,-1.5004882812,-0.5200195312,0.3881835938,99.9298095703,-30.0445556641,191.8792724609
3.2187371254,-1.5004882812,-0.5200195312,0.4130859375,120.5291748047,-36.6363525391,190.0634765625
3.2214469910,-1.6376953125,-0.6577148438,0.4130859375,120.5291748047,-36.6363525391,190.0634765625
3.2241549492,-1.6376953125,-0.6577148438,0.4130859375,141.4031982422,-43.3654785156,189.3157958984
3.2268669605,-1.6376953125,-0.6577148438,0.4130859375,141.4031982422,-43.3654785156,189.3157958984
3.2295091152,-1.8876953125,-0.8364257812,0.3178710938,153.8848876953,-42.2210693359,193.0084228516
3.2320909500,-1.9038085938,-0.8364257812,0.3178710938,153.8848876953,-42.2210693359,193.0084228516
3.2346689701,-1.9038085938,-0.8364257812,0.3178710938,153.8848876953,-38.9099121094,203.7353515625
3.2372460365,-1.9038085938,-0.8364257812,0.3178710938,150.7873535156,-38.9099121094,203.7353515625
3.2398509979,-1.8969726562,-0.7670898438,0.1577148438,150.7873535156,-38.9099121094,219.0093994141
3.2424271107,-1.8969726562,-0.7670898438,0.1577148438,128.8604736328,-37.6892089844,219.0093994141
3.2450110912,-1.8969726562,-0.7670898438,0.1577148438,128.8604736328,-37.6892089844,232.8796386719
3.2475900650,-1.8969726562,-0.7670898438,0.1577148438,93.9025878906,-34.5153808594,232.8796386719
3.2503311634,-1.9052734375,-0.5820312500,0.2353515625,93.9025878906,-34.5153808594,240.6921386719
3.2529079914,-1.9052734375,-0.5820312500,0.2353515625,49.3469238281,-30.8227539062,240.9362792969
3.2554850578,-1.9052734375,-0.5820312500,0.2353515625,49.3469238281,-30.8227539062,240.9362792969
3.2582099438,-1.9052734375,-0.5820312500,0.2353515625,16.8762207031,-26.7486572266,241.8670654297
3.2609219551,-1.7280273438,-0.2924804688,0.5180664062,16.8762207031,-26.7486572266,241.8670654297
3.2636311054,-1.7280273438,-0.2924804688,0.5180664062,5.9967041016,-25.6042480469,232.8643798828
3.2664501667,-1.7280273438,-0.2924804688,0.5180664062,5.9967041016,-25.6042480469,213.3331298828
3.2691740990,-1.7280273438,-0.2924804688,0.3872070312,15.1062011719,-25.0244140625,214.7064208984
3.2718851566,-1.4599609375,-0.3554687500,0.3872070312,15.1062011719,-25.0244140625,214.7064208984
3.2745871544,-1.4599609375,-0.3554687500,0.3872070312,36.4379882812,-20.8282470703,193.5119628906
3.2772901058,-1.4599609375,-0.3554687500,0.3872070312,36.4379882812,-20.8282470703,193.5119628906
3.2800030708,-1.2099609375,-0.4506835938,0.0195312500,48.6145019531,-9.5367431641,178.6346435547
3.2827081680,-1.1684570312,-0.4506835938,0.0195312500,48.6145019531,-9.5367431641,178.6346435547
3.2854101658,-1.1684570312,-0.4506835938,0.0195312500,48.2330322266,5.6915283203,172.2564697266
3.2882499695,-1.1684570312,-0.4506835938,0.0195312500,48.2330322266,5.6915283203,172.2564697266
3.2908439636,-0.7968750000,0.1186523438,0.0375976562,36.3769531250,12.3138427734,173.3551025391
3.2939629555,-0.7968750000,0.1186523438,0.0375976562,36.3769531250,12.3138427734,173.3551025391
3.2965459824,-0.7968750000,0.1186523438,0.0375976562,-0.1678466797,-1.4190673828,175.5676269531
3.2992019653,-0.7968750000,0.1186523438,0.0375976562,-0.1678466797,-1.4190673828,175.5676269531
3.3017740250,-0.3964843750,0.5170898438,0.4741210938,-44.1741943359,-25.8178710938,161.9567871094
3.3043439388,-0.3964843750,0.5170898438,0.4741210938,-44.1741943359,-25.8178710938,161.9567871094
3.3069159985,-0.3964843750,0.5170898438,0.4741210938,-61.2335205078,-43.5791015625,126.5716552734
3.3095030785,-0.3964843750,0.5170898438,0.4741210938,-61.2335205078,-43.5791015625,126.5716552734
3.3120739460,-0.5268554688,0.3422851562,0.4179687500,-58.1207275391,-53.2531738281,90.6524658203
3.3146409988,-0.5268554688,0.3422851562,0.4179687500,-58.1207275391,-53.2531738281,90.6524658203
3.3172161579,-0.5268554688,0.3422851562,0.4179687500,-50.8422851562,-62.3931884766,64.3920898438
3.3198289871,-0.5268554688,0.3422851562,0.3642578125,-50.8422851562,-62.3931884766,64.3920898438
