# time_stamp before, Acceleration x, Acceleration y, Acceleration z, Gyro x, Gyro y, Gyro z
0.0000000000,-0.7255859375,0.0678710938,0.0419921875,-0.0610351562,0.4272460938,-0.1678466797
0.0025520325,-0.7255859375,0.0678710938,0.0419921875,0.1373291016,0.2288818359,0.1831054688
0.0051069260,-0.7255859375,0.0678710938,0.0488281250,0.1373291016,0.2288818359,0.1831054688
0.0077021122,-0.7319335938,0.0644531250,0.0488281250,-0.0152587891,0.0152587891,0.1525878906
0.0102589130,-0.7319335938,0.0644531250,0.0488281250,-0.0152587891,0.0152587891,0.1525878906
0.0128109455,-0.7319335938,0.0644531250,0.0488281250,-0.0152587891,0.1678466797,-0.2746582031
0.0153710842,-0.7319335938,0.0644531250,0.0419921875,-0.3356933594,0.1678466797,-0.2746582031
0.0179641247,-0.7368164062,0.0659179688,0.0419921875,-0.3356933594,0.1678466797,-0.5035400391
0.0205249786,-0.7368164062,0.0659179688,0.0419921875,-0.2441406250,0.2136230469,-0.5035400391
0.0230801105,-0.7368164062,0.0659179688,0.0419921875,-0.2441406250,0.2136230469,-0.4882812500
0.0256330967,-0.7368164062,0.0678710938,0.0556640625,0.3662109375,-0.0457763672,-0.4882812500
0.0284819603,-0.7348632812,0.0678710938,0.0556640625,0.3662109375,-0.0457763672,-0.1373291016
0.0310380459,-0.7348632812,0.0678710938,0.0556640625,0.0610351562,0.1831054688,-0.1373291016
0.0335960388,-0.7348632812,0.0678710938,0.0556640625,0.0610351562,0.1831054688,-0.1373291016
0.0361640453,-0.7348632812,0.0703125000,0.0434570312,-0.1373291016,0.0152587891,0.0762939453
0.0389239788,-0.7290039062,0.0703125000,0.0434570312,-0.1373291016,0.0152587891,0.0762939453
0.0414938927,-0.7290039062,0.0703125000,0.0434570312,0.1831054688,-0.1220703125,-0.1678466797
0.0440549850,-0.7290039062,0.0703125000,0.0434570312,0.1831054688,-0.1220703125,-0.1678466797
0.0466179848,-0.7348632812,0.0634765625,0.0463867188,0.4425048828,0.2899169922,-0.1678466797
0.0491909981,-0.7348632812,0.0634765625,0.0463867188,0.4425048828,0.2899169922,-0.1678466797
0.0519149303,-0.7348632812,0.0634765625,0.0463867188,0.6103515625,0.2746582031,-0.3814697266
0.0544769764,-0.7348632812,0.0634765625,0.0463867188,0.6103515625,0.2746582031,-0.3814697266
0.0570409298,-0.7280273438,0.0629882812,0.0449218750,0.7324218750,-0.3509521484,-0.7019042969
0.0596120358,-0.7280273438,0.0629882812,0.0449218750,0.7324218750,-0.3509521484,-0.7019042969
0.0621850491,-0.7280273438,0.0629882812,0.0449218750,0.1983642578,-0.0305175781,-0.5340576172
0.0647470951,-0.7280273438,0.0629882812,0.0449218750,0.1983642578,-0.0305175781,-0.5340576172
0.0673079491,-0.7392578125,0.0615234375,0.0502929688,0.7019042969,-0.1678466797,-0.2899169922
0.0699100494,-0.7392578125,0.0615234375,0.0502929688,0.7019042969,-0.1678466797,-0.2899169922
0.0724740028,-0.7392578125,0.0615234375,0.0502929688,0.7019042969,-0.3204345703,-0.3204345703
0.0750360489,-0.7392578125,0.0615234375,0.0502929688,0.5493164062,-0.3204345703,-0.3204345703
0.0776081085,-0.7348632812,0.0649414062,0.0380859375,0.5493164062,-0.3204345703,-0.3356933594
0.0801799297,-0.7348632812,0.0649414062,0.0380859375,0.4272460938,-0.1373291016,-0.3356933594
0.0827450752,-0.7348632812,0.0649414062,0.0380859375,0.4272460938,-0.1373291016,-0.1831054688
0.0853860378,-0.7348632812,0.0649414062,0.0380859375,0.0000000000,-0.0457763672,-0.1831054688
0.0880250931,-0.7368164062,0.0654296875,0.0429687500,0.0000000000,-0.0457763672,-0.1831054688
0.0906059742,-0.7368164062,0.0654296875,0.0429687500,-0.4730224609,-0.1220703125,-0.2441406250
0.0931799412,-0.7368164062,0.0654296875,0.0429687500,-0.4730224609,-0.1220703125,-0.2441406250
0.0958819389,-0.7368164062,0.0654296875,0.0429687500,-0.1068115234,-0.0610351562,-0.3814697266
0.0992169380,-0.7275390625,0.0644531250,0.0473632812,-0.1068115234,-0.0610351562,-0.3051757812
0.1017830372,-0.7275390625,0.0644531250,0.0473632812,-0.2136230469,-0.2136230469,-0.3051757812
0.1043510437,-0.7275390625,0.0644531250,0.0473632812,-0.2136230469,-0.2136230469,-0.3051757812
0.1069080830,-0.7329101562,0.0615234375,0.0449218750,-0.1525878906,-0.1068115234,-0.3509521484
0.1095240116,-0.7329101562,0.0615234375,0.0449218750,-0.1525878906,-0.1068115234,-0.3509521484
0.1120800972,-0.7329101562,0.0615234375,0.0449218750,-0.1373291016,0.2288818359,-0.4882812500
0.1147499084,-0.7329101562,0.0615234375,0.0449218750,-0.1373291016,0.2288818359,-0.4882812500
0.1173169613,-0.7304687500,0.0654296875,0.0483398438,-0.0152587891,0.1983642578,-0.2746582031
0.1199080944,-0.7304687500,0.0654296875,0.0483398438,-0.0152587891,0.1983642578,-0.2746582031
0.1224660873,-0.7304687500,0.0654296875,0.0483398438,-0.1068115234,0.0305175781,-0.2136230469
0.1250379086,-0.7304687500,0.0654296875,0.0483398438,-0.1068115234,0.0305175781,-0.2136230469
0.1275980473,-0.7304687500,0.0620117188,0.0468750000,0.0305175781,0.0610351562,-0.4119873047
0.1301670074,-0.7304687500,0.0620117188,0.0468750000,0.0305175781,0.0610351562,-0.4119873047
0.1327230930,-0.7304687500,0.0620117188,0.0468750000,-0.2288818359,-0.2899169922,-0.4119873047
0.1352910995,-0.7304687500,0.0620117188,0.0468750000,-0.2288818359,-0.2899169922,-0.4119873047
0.1379339695,-0.7280273438,0.0644531250,0.0527343750,3.6773681641,-0.3967285156,-0.2746582031
0.1404991150,-0.7280273438,0.0644531250,0.0527343750,0.1220703125,-0.3967285156,-0.2746582031
0.1430699825,-0.7280273438,0.0644531250,0.0527343750,0.1220703125,-0.3967285156,-0.0762939453
0.1456410885,-0.7280273438,0.0644531250,0.0527343750,0.3356933594,-0.4577636719,-0.0762939453
0.1483049393,-0.7314453125,0.0620117188,0.0415039062,0.3356933594,-0.4577636719,-0.3662109375
0.1508779526,-0.7314453125,0.0620117188,0.0415039062,0.4882812500,-0.5187988281,-0.3662109375
0.1534450054,-0.7314453125,0.0620117188,0.0415039062,0.4882812500,-0.5187988281,-0.3662109375
0.1560130119,-0.7314453125,0.0620117188,0.0415039062,0.7019042969,-0.5950927734,-0.4119873047
0.1591150761,-0.7319335938,0.0610351562,0.0473632812,-3.2043457031,-0.4882812500,-0.2746582031
0.1628150940,-0.7319335938,0.0610351562,0.0473632812,-0.1220703125,-0.4882812500,-0.2746582031
0.1661939621,-0.7319335938,0.0610351562,0.0473632812,-0.8239746094,0.1373291016,-0.2288818359
0.1688470840,-0.7324218750,0.0620117188,0.0434570312,-0.8239746094,0.1373291016,-0.2288818359
0.1714119911,-0.7324218750,0.0620117188,0.0434570312,-0.8544921875,0.1525878906,-0.2136230469
0.1739799976,-0.7324218750,0.0620117188,0.0434570312,-0.8544921875,0.1525878906,-0.2136230469
0.1765470505,-0.7324218750,0.0620117188,0.0434570312,-0.7171630859,-0.1220703125,-0.2899169922
0.1793770790,-0.7368164062,0.0678710938,0.0439453125,-0.7171630859,-0.1220703125,-0.2899169922
0.1820809841,-0.7368164062,0.0678710938,0.0439453125,-0.3967285156,0.0152587891,-0.4577636719
0.1847789288,-0.7368164062,0.0678710938,0.0439453125,-0.3967285156,0.0152587891,-0.4577636719
0.1874799728,-0.7368164062,0.0673828125,0.0507812500,-0.1678466797,-0.2441406250,-0.6408691406
0.1900711060,-0.7329101562,0.0673828125,0.0507812500,-0.1678466797,-0.2441406250,-0.6408691406
0.1926379204,-0.7329101562,0.0673828125,0.0507812500,-0.2593994141,0.3051757812,-0.6256103516
0.1952080727,-0.7329101562,0.0673828125,0.0507812500,-0.2593994141,0.3051757812,-0.6256103516
0.1978850365,-0.7319335938,0.0664062500,0.0415039062,-0.2593994141,-0.3204345703,-0.4119873047
0.2004630566,-0.7319335938,0.0664062500,0.0415039062,-0.2593994141,-0.3204345703,-0.4119873047
0.2030420303,-0.7319335938,0.0664062500,0.0415039062,-0.2593994141,-0.1525878906,-0.5645751953
0.2056069374,-0.7319335938,0.0664062500,0.0415039062,0.4272460938,-0.1525878906,-0.5645751953
0.2082428932,-0.7377929688,0.0644531250,0.0571289062,0.4272460938,3.7536621094,-0.2746582031
0.2109498978,-0.7377929688,0.0644531250,0.0571289062,-0.2136230469,0.2593994141,-0.2746582031
0.2136929035,-0.7377929688,0.0644531250,0.0571289062,-0.2136230469,0.2593994141,-0.3814697266
0.2164978981,-0.7377929688,0.0644531250,0.0571289062,-0.3356933594,0.0457763672,-0.3814697266
0.2191390991,-0.7319335938,0.0644531250,0.0361328125,-0.3356933594,0.0457763672,-0.9918212891
0.2217009068,-0.7319335938,0.0644531250,0.0361328125,0.4119873047,0.0000000000,-0.9918212891
0.2242689133,-0.7319335938,0.0644531250,0.0361328125,0.4119873047,0.0000000000,-0.9918212891
0.2268331051,-0.7319335938,0.0644531250,0.0361328125,0.2593994141,-0.1068115234,-0.6713867188
0.2294950485,-0.7314453125,0.0654296875,0.0522460938,0.2593994141,-0.1068115234,-0.6713867188
0.2321949005,-0.7314453125,0.0654296875,0.0522460938,0.3204345703,-0.1678466797,-0.8850097656
0.2348930836,-0.7314453125,0.0654296875,0.0522460938,0.3204345703,-0.1678466797,-0.8850097656
0.2375869751,-0.7314453125,0.0654296875,0.0468750000,0.0762939453,-0.2136230469,-0.6561279297
0.2402899265,-0.7294921875,0.0644531250,0.0468750000,0.0762939453,-0.2136230469,-0.6561279297
0.2430949211,-0.7294921875,0.0644531250,0.0468750000,-0.2288818359,0.2288818359,-0.6866455078
0.2457959652,-0.7294921875,0.0644531250,0.0468750000,-0.2288818359,0.2288818359,-0.6866455078
0.2484569550,-0.7275390625,0.0654296875,0.0434570312,-0.0152587891,0.4577636719,-0.7781982422
0.2510199547,-0.7275390625,0.0654296875,0.0434570312,-0.0152587891,0.4577636719,-0.7781982422
0.2535820007,-0.7275390625,0.0654296875,0.0434570312,0.0457763672,0.0305175781,-0.7629394531
0.2561440468,-0.7275390625,0.0654296875,0.0434570312,0.0457763672,0.0305175781,-0.7629394531
0.2588610649,-0.7329101562,0.0634765625,0.0449218750,-0.2136230469,-0.1068115234,-0.8544921875
0.2614309788,-0.7329101562,0.0634765625,0.0449218750,-0.2136230469,-0.1068115234,-0.8544921875
0.2639949322,-0.7329101562,0.0634765625,0.0449218750,-0.1678466797,-0.2899169922,-0.9765625000
0.2665591240,-0.7329101562,0.0634765625,0.0449218750,-0.1678466797,-0.2899169922,-0.9765625000
0.2692480087,-0.7343750000,0.0610351562,0.0483398438,0.1068115234,-0.1373291016,-1.1444091797
0.2718119621,-0.7343750000,0.0610351562,0.0483398438,0.1068115234,-0.1373291016,-1.1444091797
0.2743809223,-0.7343750000,0.0610351562,0.0483398438,-0.0305175781,-0.2288818359,-1.2512207031
0.2769439220,-0.7343750000,0.0610351562,0.0483398438,-0.0305175781,-0.2288818359,-1.2512207031
0.2796239853,-0.7333984375,0.0668945312,0.0498046875,-0.2441406250,-0.1678466797,-1.0528564453
0.2823159695,-0.7333984375,0.0668945312,0.0498046875,-0.2441406250,-0.1678466797,-1.0528564453
0.2850160599,-0.7333984375,0.0668945312,0.0498046875,-0.2899169922,0.0915527344,-0.7781982422
0.2875869274,-0.7333984375,0.0668945312,0.0498046875,-0.2899169922,0.0915527344,-0.7781982422
0.2902889252,-0.7338867188,0.0625000000,0.0517578125,-0.2899169922,0.3662109375,-0.9460449219
0.2930390835,-0.7338867188,0.0625000000,0.0517578125,-0.1678466797,0.3662109375,-0.9460449219
0.2957069874,-0.7338867188,0.0625000000,0.0517578125,-0.1678466797,-0.1983642578,-1.2817382812
0.2984850407,-0.7338867188,0.0654296875,0.0415039062,-0.1983642578,-0.1983642578,-1.2817382812
0.3010520935,-0.7314453125,0.0654296875,0.0415039062,-0.1983642578,-0.0457763672,-0.9307861328
0.3036139011,-0.7314453125,0.0654296875,0.0415039062,-0.2593994141,-0.0457763672,-0.9307861328
0.3062810898,-0.7314453125,0.0654296875,0.0415039062,-0.2593994141,-0.0457763672,-0.7934570312
0.3088529110,-0.7314453125,0.0581054688,0.0620117188,-0.3356933594,-0.0457763672,-0.7934570312
0.3114180565,-0.7343750000,0.0581054688,0.0620117188,-0.3356933594,-0.0457763672,-0.8850097656
0.3139820099,-0.7343750000,0.0581054688,0.0620117188,-0.3967285156,-0.0457763672,-0.8850097656
0.3165419102,-0.7343750000,0.0581054688,0.0620117188,-0.3967285156,-0.0457763672,-0.8850097656
0.3191490173,-0.7319335938,0.0610351562,0.0400390625,-0.6256103516,0.0610351562,-0.9460449219
0.3217170238,-0.7319335938,0.0610351562,0.0400390625,-0.6256103516,0.0610351562,-0.9460449219
0.3242781162,-0.7319335938,0.0610351562,0.0400390625,0.0000000000,-0.1831054688,-0.9765625000
0.3268380165,-0.7319335938,0.0610351562,0.0400390625,0.0000000000,-0.1831054688,-0.9765625000
0.3294129372,-0.7373046875,0.0620117188,0.0478515625,0.0000000000,-0.2288818359,-0.6256103516
0.3319759369,-0.7373046875,0.0620117188,0.0478515625,0.0000000000,-0.2288818359,-0.6256103516
0.3345379829,-0.7373046875,0.0620117188,0.0478515625,-0.6561279297,-0.0305175781,-0.5798339844
0.3371040821,-0.7373046875,0.0620117188,0.0478515625,-0.6561279297,-0.0305175781,-0.5798339844
0.3397140503,-0.7304687500,0.0532226562,0.0498046875,-0.7476806641,0.1220703125,-0.5645751953
0.3422789574,-0.7304687500,0.0532226562,0.0498046875,-0.7476806641,0.1220703125,-0.5645751953
0.3448359966,-0.7304687500,0.0532226562,0.0498046875,-0.7476806641,0.1831054688,-0.7934570312
0.3473980427,-0.7304687500,0.0532226562,0.0498046875,-0.1678466797,0.1831054688,-0.7934570312
0.3501060009,-0.7368164062,0.0576171875,0.0454101562,-0.1678466797,-0.1678466797,-1.0833740234
0.3526670933,-0.7368164062,0.0576171875,0.0454101562,-0.2899169922,-0.1678466797,-1.0833740234
0.3552429676,-0.7368164062,0.0576171875,0.0454101562,-0.2899169922,-0.1678466797,-0.7476806641
0.3579230309,-0.7368164062,0.0576171875,0.0454101562,-0.3356933594,-0.2441406250,-0.7476806641
0.3606390953,-0.7309570312,0.0625000000,0.0302734375,-0.3356933594,-0.2441406250,-0.5340576172
0.3633430004,-0.7309570312,0.0625000000,0.0302734375,-0.5187988281,-0.0610351562,-0.5340576172
0.3660390377,-0.7309570312,0.0625000000,0.0302734375,-0.5187988281,-0.0610351562,-0.9002685547
0.3688321114,-0.7309570312,0.0625000000,0.0463867188,-0.6561279297,-0.1983642578,-0.9002685547
0.3713989258,-0.7290039062,0.0639648438,0.0463867188,-0.6561279297,-0.1983642578,-0.9155273438
0.3739640713,-0.7290039062,0.0639648438,0.0463867188,0.0000000000,-0.2593994141,-0.9155273438
0.3765380383,-0.7290039062,0.0639648438,0.0463867188,0.0000000000,-0.2593994141,-0.9155273438
0.3792150021,-0.7290039062,0.0532226562,0.0478515625,0.2288818359,-0.3204345703,-0.7629394531
0.3819129467,-0.7387695312,0.0532226562,0.0478515625,0.2288818359,-0.3204345703,-0.7629394531
0.3846130371,-0.7387695312,0.0532226562,0.0478515625,-0.1373291016,-0.0762939453,-0.5798339844
0.3874850273,-0.7387695312,0.0532226562,0.0478515625,-0.1373291016,-0.0762939453,-0.7171630859
0.3903150558,-0.7290039062,0.0654296875,0.0375976562,-0.4577636719,-0.0762939453,-0.7171630859
0.3935389519,-0.7290039062,0.0654296875,0.0375976562,-0.4577636719,0.3356933594,-0.3967285156
0.3961050510,-0.7290039062,0.0654296875,0.0375976562,-0.1373291016,0.3356933594,-0.3967285156
0.3987519741,-0.7290039062,0.0654296875,0.0375976562,-0.1373291016,0.3356933594,-0.5340576172
0.4013099670,-0.7250976562,0.0625000000,0.0458984375,0.0915527344,-0.0762939453,-0.5340576172
0.4038701057,-0.7250976562,0.0625000000,0.0458984375,0.0915527344,-0.0762939453,-0.5340576172
0.4064331055,-0.7250976562,0.0625000000,0.0458984375,-0.6561279297,0.2746582031,-0.4882812500
0.4089980125,-0.7250976562,0.0625000000,0.0458984375,-0.6561279297,0.2746582031,-0.4882812500
0.4115641117,-0.7338867188,0.0654296875,0.0458984375,-0.5493164062,-0.0152587891,-0.3509521484
0.4141290188,-0.7338867188,0.0654296875,0.0458984375,-0.5493164062,-0.0152587891,-0.3509521484
0.4166879654,-0.7338867188,0.0654296875,0.0458984375,-0.5645751953,-0.2899169922,-0.6256103516
0.4193050861,-0.7338867188,0.0654296875,0.0483398438,-0.5645751953,-0.2899169922,-0.6256103516
0.4218640327,-0.7314453125,0.0532226562,0.0483398438,-0.5187988281,-0.1983642578,-0.4882812500
0.4244270325,-0.7314453125,0.0532226562,0.0483398438,-0.5187988281,-0.1983642578,-0.4882812500
0.4269890785,-0.7314453125,0.0532226562,0.0483398438,0.0762939453,-0.3204345703,-0.7019042969
0.4295580387,-0.7314453125,0.0532226562,0.0463867188,0.0762939453,-0.3204345703,-0.7019042969
0.4321200848,-0.7377929688,0.0581054688,0.0463867188,0.0305175781,-0.3814697266,-0.4730224609
0.4347820282,-0.7377929688,0.0581054688,0.0463867188,0.0305175781,-0.3814697266,-0.4730224609
0.4373519421,-0.7377929688,0.0581054688,0.0463867188,-0.1525878906,0.0000000000,-0.5340576172
0.4400179386,-0.7377929688,0.0639648438,0.0390625000,-0.1525878906,0.0000000000,-0.5340576172
0.4425890446,-0.7309570312,0.0639648438,0.0390625000,-0.1525878906,-0.5798339844,-0.5950927734
0.4451580048,-0.7309570312,0.0639648438,0.0390625000,-0.0152587891,-0.5798339844,-0.5950927734
0.4478209019,-0.7309570312,0.0639648438,0.0390625000,-0.0152587891,-0.5798339844,-0.6866455078
0.4505200386,-0.7333984375,0.0610351562,0.0468750000,0.2136230469,-0.5187988281,-0.6866455078
0.4532170296,-0.7333984375,0.0610351562,0.0468750000,0.2136230469,-0.5187988281,-0.8239746094
0.4559121132,-0.7333984375,0.0610351562,0.0468750000,-0.2288818359,-0.0152587891,-0.8239746094
0.4586250782,-0.7333984375,0.0610351562,0.0468750000,-0.2288818359,3.8909912109,-0.6561279297
0.4613230228,-0.7309570312,0.0590820312,0.0512695312,-0.4425048828,0.0457763672,-0.6561279297
0.4640209675,-0.7309570312,0.0590820312,0.0512695312,-0.4425048828,-3.8604736328,-0.3967285156
0.4667170048,-0.7309570312,0.0590820312,0.0512695312,-0.3662109375,-0.2899169922,-0.3967285156
0.4693470001,-0.7309570312,0.0590820312,0.0512695312,-0.3662109375,-0.2899169922,-0.2136230469
0.4719109535,-0.7343750000,0.0620117188,0.0410156250,0.4577636719,-0.3051757812,-0.2136230469
0.4744811058,-0.7343750000,0.0620117188,0.0410156250,0.4577636719,-0.3051757812,-0.2136230469
0.4770460129,-0.7343750000,0.0620117188,0.0410156250,0.0915527344,-0.3204345703,-0.2288818359
0.4796190262,-0.7343750000,0.0620117188,0.0410156250,0.0915527344,-0.3204345703,-0.2288818359
0.4821839333,-0.7353515625,0.0644531250,0.0419921875,-0.3509521484,0.0305175781,-0.4425048828
0.4847490788,-0.7353515625,0.0644531250,0.0419921875,-0.3509521484,0.0305175781,-0.4425048828
0.4873158932,-0.7353515625,0.0644531250,0.0419921875,0.0000000000,-0.1831054688,-0.5493164062
0.4900341034,-0.7353515625,0.0644531250,0.0351562500,0.0000000000,-0.1831054688,-0.5493164062
0.4927320480,-0.7324218750,0.0571289062,0.0351562500,0.0000000000,-0.7476806641,-0.7781982422
0.4954268932,-0.7324218750,0.0571289062,0.0351562500,0.0000000000,-0.7476806641,-0.7781982422
0.4982719421,-0.7324218750,0.0571289062,0.0351562500,-0.2441406250,-0.1068115234,-0.3051757812
0.5009739399,-0.7309570312,0.0566406250,0.0483398438,-0.2441406250,-0.1068115234,-0.3051757812
0.5037128925,-0.7309570312,0.0566406250,0.0483398438,0.1831054688,-0.1831054688,-0.5187988281
0.5064508915,-0.7309570312,0.0566406250,0.0483398438,0.1831054688,-0.1831054688,-0.5187988281
0.5092000961,-0.7309570312,0.0566406250,0.0483398438,-0.0610351562,0.0000000000,-0.4730224609
0.5118999481,-0.7290039062,0.0629882812,0.0532226562,-0.0610351562,0.0000000000,-0.4730224609
0.5145959854,-0.7290039062,0.0629882812,0.0532226562,-0.0457763672,-0.3814697266,-0.3204345703
0.5173039436,-0.7290039062,0.0629882812,0.0532226562,-0.0457763672,-0.3814697266,-0.3204345703
0.5199000835,-0.7290039062,0.0629882812,0.0532226562,-0.0610351562,-0.3356933594,-0.3509521484
0.5224630833,-0.7338867188,0.0590820312,0.0351562500,-0.0610351562,-0.3356933594,-0.3509521484
0.5250310898,-0.7338867188,0.0590820312,0.0351562500,-0.2746582031,-0.1525878906,0.0000000000
0.5275940895,-0.7338867188,0.0590820312,0.0351562500,-0.2746582031,-0.1525878906,0.0000000000
0.5303020477,-0.7338867188,0.0590820312,0.0488281250,-0.4577636719,0.1983642578,-0.1678466797
0.5330040455,-0.7329101562,0.0585937500,0.0488281250,-0.4577636719,0.1983642578,-0.1678466797
0.5357010365,-0.7329101562,0.0585937500,0.0488281250,-0.5950927734,0.0457763672,-0.0152587891
0.5383861065,-0.7329101562,0.0585937500,0.0488281250,-0.5950927734,0.0457763672,-0.0152587891
0.5409510136,-0.7329101562,0.0600585938,0.0463867188,-0.1983642578,-0.1983642578,0.0000000000
0.5435190201,-0.7368164062,0.0600585938,0.0463867188,-0.1983642578,-0.1983642578,0.0000000000
0.5460920334,-0.7368164062,0.0600585938,0.0463867188,-0.1983642578,-0.1525878906,0.1220703125
0.5486810207,-0.7368164062,0.0600585938,0.0463867188,-0.4730224609,-0.1525878906,0.1220703125
0.5512518883,-0.7368164062,0.0605468750,0.0410156250,-0.4730224609,3.7536621094,0.1220703125
0.5538148880,-0.7275390625,0.0605468750,0.0410156250,-0.2593994141,0.0762939453,0.1220703125
0.5563800335,-0.7275390625,0.0605468750,0.0410156250,-0.2593994141,0.0762939453,-0.1831054688
0.5591189861,-0.7275390625,0.0605468750,0.0410156250,-0.2746582031,-0.0610351562,-0.1831054688
0.5619199276,-0.7353515625,0.0654296875,0.0419921875,-0.2746582031,-0.0610351562,-0.0915527344
0.5646159649,-0.7353515625,0.0654296875,0.0419921875,-0.3204345703,-0.1220703125,-0.0915527344
0.5673179626,-0.7353515625,0.0654296875,0.0419921875,-0.3204345703,-0.1220703125,-0.2441406250
0.5699160099,-0.7353515625,0.0654296875,0.0419921875,-0.1373291016,-0.2899169922,-0.2441406250
0.5724880695,-0.7324218750,0.0561523438,0.0395507812,-0.1373291016,-0.2899169922,-0.2441406250
0.5750539303,-0.7324218750,0.0561523438,0.0395507812,-0.2593994141,-0.0915527344,-0.1220703125
0.5776228905,-0.7324218750,0.0561523438,0.0395507812,-0.2593994141,-0.0915527344,-0.1220703125
0.5803699493,-0.7324218750,0.0561523438,0.0395507812,-0.4577636719,-0.1373291016,-0.2136230469
0.5830659866,-0.7338867188,0.0629882812,0.0415039062,-0.4577636719,-0.1373291016,-0.2136230469
0.5857610703,-0.7338867188,0.0629882812,0.0415039062,-0.4119873047,-0.2136230469,-0.0915527344
0.5884559155,-0.7338867188,0.0629882812,0.0415039062,-0.4119873047,-0.2136230469,-0.0915527344
0.5910239220,-0.7338867188,0.0629882812,0.0405273438,-0.1678466797,-0.3967285156,-0.1068115234
0.5937340260,-0.7299804688,0.0610351562,0.0405273438,-0.1678466797,-0.3967285156,-0.1068115234
0.5963001251,-0.7299804688,0.0610351562,0.0405273438,-0.5493164062,0.2593994141,-0.3204345703
0.5990610123,-0.7299804688,0.0610351562,0.0405273438,-0.5493164062,0.2593994141,-0.3204345703
0.6016199589,-0.7299804688,0.0644531250,0.0483398438,-0.2136230469,0.1983642578,-0.2288818359
0.6042969227,-0.7299804688,0.0644531250,0.0483398438,-0.2136230469,0.1983642578,-0.2288818359
0.6079320908,-0.7299804688,0.0644531250,0.0483398438,-0.5645751953,0.1068115234,0.0610351562
0.6104989052,-0.7299804688,0.0644531250,0.0483398438,-0.5645751953,0.1068115234,0.0610351562
0.6130580902,-0.7221679688,0.0595703125,0.0434570312,-0.1373291016,-0.1831054688,0.1373291016
0.6156229973,-0.7221679688,0.0595703125,0.0434570312,-0.1373291016,-0.1831054688,0.1373291016
0.6182029247,-0.7221679688,0.0595703125,0.0434570312,-0.1525878906,-0.2136230469,0.1525878906
0.6207671165,-0.7221679688,0.0595703125,0.0434570312,-0.1525878906,-0.2136230469,0.1525878906
0.6233270168,-0.7324218750,0.0576171875,0.0493164062,-0.2746582031,0.0305175781,-0.0762939453
0.6259930134,-0.7324218750,0.0576171875,0.0493164062,-0.2746582031,0.0305175781,-0.0762939453
0.6285870075,-0.7324218750,0.0576171875,0.0493164062,-0.2746582031,-0.0915527344,-0.1983642578
0.6311480999,-0.7324218750,0.0576171875,0.0493164062,-0.2746582031,-0.0915527344,-0.1983642578
0.6337089539,-0.7294921875,0.0581054688,0.0493164062,-0.2899169922,-0.0915527344,-0.0305175781
0.6362769604,-0.7294921875,0.0581054688,0.0493164062,-0.2899169922,-0.0915527344,-0.0305175781
0.6388430595,-0.7294921875,0.0581054688,0.0493164062,-0.6103515625,-0.2288818359,0.0762939453
0.6413989067,-0.7294921875,0.0581054688,0.0390625000,-0.6103515625,-0.2288818359,0.0762939453
0.6439630985,-0.7333984375,0.0649414062,0.0390625000,-0.6103515625,-0.2288818359,0.0762939453
0.6465249062,-0.7333984375,0.0649414062,0.0390625000,-0.8087158203,-0.2288818359,0.0762939453
0.6491670609,-0.7333984375,0.0649414062,0.0390625000,-0.8087158203,-0.2288818359,-0.1220703125
0.6517291069,-0.7333984375,0.0649414062,0.0444335938,-0.7781982422,-0.3356933594,-0.1220703125
0.6542949677,-0.7416992188,0.0566406250,0.0444335938,-0.7781982422,-0.3356933594,-0.1220703125
0.6568651199,-0.7416992188,0.0566406250,0.0444335938,-0.7629394531,-0.1068115234,-0.0915527344
0.6595981121,-0.7416992188,0.0566406250,0.0444335938,-0.7629394531,-0.1068115234,-0.0915527344
0.6621620655,-0.7416992188,0.0678710938,0.0419921875,-0.8392333984,-0.1525878906,-0.1525878906
0.6647269726,-0.7299804688,0.0678710938,0.0419921875,-0.8392333984,-0.1525878906,-0.1525878906
0.6672949791,-0.7299804688,0.0678710938,0.0419921875,-0.4272460938,-0.1678466797,-0.3509521484
0.6700010300,-0.7299804688,0.0678710938,0.0419921875,-0.4272460938,-0.1678466797,-0.3509521484
0.6725649834,-0.7299804688,0.0639648438,0.0419921875,-0.4577636719,-0.0762939453,-0.0762939453
0.6751289368,-0.7299804688,0.0639648438,0.0419921875,-0.4577636719,-0.0762939453,-0.0762939453
0.6777260303,-0.7299804688,0.0639648438,0.0419921875,-0.4730224609,0.0915527344,0.0305175781
0.6802890301,-0.7299804688,0.0639648438,0.0419921875,-0.4730224609,0.0915527344,0.0305175781
0.6828489304,-0.7368164062,0.0615234375,0.0434570312,-0.7324218750,-0.3051757812,-0.1068115234
0.6854131222,-0.7368164062,0.0615234375,0.0434570312,-0.7324218750,-0.3051757812,-0.1068115234
0.6881389618,-0.7368164062,0.0615234375,0.0434570312,-0.2899169922,-0.5340576172,-0.3814697266
0.6907019615,-0.7368164062,0.0615234375,0.0434570312,-0.2899169922,-0.5340576172,-0.3814697266
0.6932630539,-0.7358398438,0.0625000000,0.0576171875,-0.9765625000,-0.2288818359,-0.2136230469
0.6959860325,-0.7358398438,0.0625000000,0.0576171875,-0.9765625000,-0.2288818359,-0.2136230469
0.6987080574,-0.7358398438,0.0625000000,0.0576171875,-0.4425048828,0.2593994141,-0.1525878906
0.7012751102,-0.7358398438,0.0625000000,0.0576171875,-0.4425048828,0.2593994141,-0.1525878906
0.7046980858,-0.7299804688,0.0629882812,0.0429687500,0.0000000000,-0.3967285156,-0.2899169922
0.7072629929,-0.7299804688,0.0629882812,0.0429687500,0.0000000000,-0.3967285156,-0.2899169922
0.7098810673,-0.7299804688,0.0629882812,0.0429687500,0.0610351562,-0.4882812500,-0.0915527344
0.7124509811,-0.7299804688,0.0654296875,0.0371093750,0.0610351562,-0.4882812500,-0.0915527344
0.7150158882,-0.7265625000,0.0654296875,0.0371093750,-0.2288818359,-0.2136230469,-0.4272460938
0.7175810337,-0.7265625000,0.0654296875,0.0371093750,-0.2288818359,-0.2136230469,-0.4272460938
0.7201519012,-0.7265625000,0.0654296875,0.0371093750,-0.2288818359,0.0610351562,-0.3662109375
0.7227149010,-0.7265625000,0.0615234375,0.0410156250,0.1220703125,0.0610351562,-0.3662109375
0.7252779007,-0.7309570312,0.0615234375,0.0410156250,0.1220703125,0.0610351562,-0.0457763672
0.7279160023,-0.7309570312,0.0615234375,0.0410156250,0.1373291016,-0.0152587891,-0.0457763672
0.7304749489,-0.7309570312,0.0615234375,0.0410156250,0.1373291016,-0.0152587891,-0.0457763672
0.7330420017,-0.7309570312,0.0620117188,0.0449218750,0.1068115234,-0.1373291016,-0.0457763672
0.7356019020,-0.7294921875,0.0620117188,0.0449218750,0.1068115234,-0.1373291016,-0.0457763672
0.7381980419,-0.7294921875,0.0620117188,0.0449218750,0.3509521484,-0.2899169922,-0.1983642578
0.7407650948,-0.7294921875,0.0620117188,0.0449218750,0.3509521484,-0.2899169922,-0.1983642578
0.7433218956,-0.7329101562,0.0644531250,0.0473632812,0.1525878906,-0.1983642578,-0.3967285156
0.7458879948,-0.7329101562,0.0644531250,0.0473632812,0.1525878906,-0.1983642578,-0.3967285156
0.7485001087,-0.7329101562,0.0644531250,0.0473632812,-0.2746582031,-0.1678466797,-0.1525878906
0.7511699200,-0.7329101562,0.0644531250,0.0473632812,-0.2746582031,-0.1678466797,-0.1525878906
0.7537369728,-0.7382812500,0.0620117188,0.0473632812,-0.0305175781,-0.0762939453,-0.0305175781
0.7562971115,-0.7382812500,0.0620117188,0.0473632812,-0.0305175781,-0.0762939453,-0.0305175781
0.7590179443,-0.7382812500,0.0620117188,0.0473632812,0.2441406250,-0.2746582031,-0.2441406250
0.7615849972,-0.7382812500,0.0620117188,0.0473632812,0.2441406250,-0.2746582031,-0.2441406250
0.7641479969,-0.7319335938,0.0551757812,0.0410156250,-0.1983642578,0.1068115234,-0.1525878906
0.7667119503,-0.7319335938,0.0551757812,0.0410156250,-0.1983642578,0.1068115234,-0.1525878906
0.7694170475,-0.7319335938,0.0551757812,0.0410156250,0.3662109375,-0.0915527344,-0.2136230469
0.7721130848,-0.7319335938,0.0551757812,0.0410156250,0.3662109375,-0.0915527344,-0.2136230469
0.7748119831,-0.7294921875,0.0590820312,0.0478515625,0.0915527344,-0.1525878906,0.1220703125
0.7775111198,-0.7294921875,0.0590820312,0.0478515625,0.0915527344,-0.1525878906,0.1220703125
0.7802200317,-0.7294921875,0.0590820312,0.0478515625,-3.8146972656,-0.1373291016,-0.0152587891
0.7829248905,-0.7294921875,0.0590820312,0.0512695312,-0.5950927734,-0.1373291016,-0.0152587891
0.7856209278,-0.7343750000,0.0610351562,0.0512695312,-0.5950927734,-0.2136230469,-0.2288818359
0.7883689404,-0.7343750000,0.0610351562,0.0512695312,-0.6866455078,-0.2136230469,-0.2288818359
0.7910649776,-0.7343750000,0.0610351562,0.0512695312,-0.6866455078,-0.0305175781,-0.2441406250
0.7937641144,-0.7314453125,0.0581054688,0.0498046875,-0.1525878906,-0.0305175781,-0.2441406250
0.7964611053,-0.7314453125,0.0581054688,0.0498046875,3.7536621094,-0.3356933594,-0.2899169922
0.7991700172,-0.7314453125,0.0581054688,0.0498046875,0.4119873047,-0.3356933594,-0.2899169922
0.8018670082,-0.7314453125,0.0581054688,0.0498046875,0.4119873047,-0.5035400391,-0.3662109375
0.8045740128,-0.7304687500,0.0659179688,0.0429687500,0.4882812500,-0.5035400391,-0.3662109375
0.8072741032,-0.7304687500,0.0659179688,0.0429687500,0.4882812500,-0.4577636719,-0.4577636719
0.8098790646,-0.7304687500,0.0659179688,0.0429687500,0.8239746094,-0.4577636719,-0.4577636719
0.8124430180,-0.7304687500,0.0659179688,0.0429687500,0.8239746094,-0.4425048828,-0.5950927734
0.8153119087,-0.7304687500,0.0600585938,0.0429687500,0.7629394531,-0.4425048828,-0.5950927734
0.8179500103,-0.7304687500,0.0600585938,0.0429687500,0.7629394531,-0.4425048828,-0.4577636719
0.8206100464,-0.7304687500,0.0600585938,0.0429687500,0.3662109375,-0.3356933594,-0.4577636719
0.8232700825,-0.7304687500,0.0600585938,0.0502929688,0.3662109375,3.5705566406,-0.2593994141
0.8260669708,-0.7333984375,0.0581054688,0.0502929688,0.0915527344,0.0762939453,-0.2593994141
0.8287570477,-0.7333984375,0.0581054688,0.0502929688,0.0915527344,-3.8299560547,-0.1220703125
0.8314180374,-0.7333984375,0.0581054688,0.0502929688,0.0762939453,-0.2593994141,-0.1220703125
0.8340799809,-0.7338867188,0.0625000000,0.0463867188,0.0762939453,3.6468505859,-0.2441406250
0.8368530273,-0.7338867188,0.0625000000,0.0463867188,-0.2593994141,0.0457763672,-0.2441406250
0.8395650387,-0.7338867188,0.0625000000,0.0463867188,-0.2593994141,0.0457763672,-0.8239746094
0.8422210217,-0.7338867188,0.0625000000,0.0463867188,0.4425048828,-0.2441406250,-0.8239746094
0.8449120522,-0.7338867188,0.0668945312,0.0473632812,0.4425048828,-0.2441406250,-0.3356933594
0.8476109505,-0.7338867188,0.0668945312,0.0473632812,0.2593994141,-0.2441406250,-0.3356933594
0.8501780033,-0.7338867188,0.0668945312,0.0473632812,0.2593994141,-0.2441406250,-0.3356933594
0.8527460098,-0.7338867188,0.0668945312,0.0473632812,0.2593994141,0.2441406250,-0.0152587891
0.8553140163,-0.7280273438,0.0595703125,0.0366210938,0.2593994141,0.2441406250,-0.0152587891
0.8580529690,-0.7280273438,0.0595703125,0.0366210938,0.2441406250,0.1678466797,-0.1220703125
0.8606231213,-0.7280273438,0.0595703125,0.0366210938,0.2441406250,0.1678466797,-0.1220703125
0.8631870747,-0.7280273438,0.0595703125,0.0366210938,0.2441406250,-0.2136230469,-0.1220703125
0.8657550812,-0.7441406250,0.0600585938,0.0483398438,0.2441406250,-0.2136230469,-0.1220703125
0.8684918880,-0.7441406250,0.0600585938,0.0483398438,0.0305175781,-0.4119873047,-0.0915527344
0.8711850643,-0.7441406250,0.0600585938,0.0483398438,0.0305175781,-0.4119873047,-0.0915527344
0.8738830090,-0.7441406250,0.0600585938,0.0449218750,-0.1831054688,-0.2593994141,-0.1983642578
0.8765850067,-0.7416992188,0.0620117188,0.0449218750,-0.1831054688,-0.2593994141,-0.1983642578
0.8793959618,-0.7416992188,0.0620117188,0.0449218750,0.1220703125,-0.2593994141,-0.2136230469
0.8820960522,-0.7416992188,0.0620117188,0.0449218750,0.1220703125,-0.2593994141,-0.2136230469
0.8847930431,-0.7309570312,0.0639648438,0.0449218750,0.1831054688,-0.1525878906,-0.0762939453
0.8874928951,-0.7309570312,0.0639648438,0.0449218750,0.1831054688,-0.1525878906,-0.0762939453
0.8900809288,-0.7309570312,0.0639648438,0.0449218750,-0.0305175781,0.0610351562,-0.1678466797
0.8926470280,-0.7309570312,0.0639648438,0.0449218750,-0.0305175781,0.0610351562,-0.1678466797
0.8952169418,-0.7275390625,0.0620117188,0.0434570312,0.0152587891,-0.4272460938,-0.3509521484
0.8977890015,-0.7275390625,0.0620117188,0.0434570312,0.0152587891,-0.4272460938,-0.3509521484
0.9004900455,-0.7275390625,0.0620117188,0.0434570312,-0.3051757812,0.0152587891,-0.1983642578
0.9032700062,-0.7275390625,0.0620117188,0.0434570312,-0.3051757812,0.0152587891,-0.1983642578
0.9058339596,-0.7324218750,0.0610351562,0.0454101562,0.0915527344,-0.3814697266,-0.1525878906
0.9085180759,-0.7324218750,0.0610351562,0.0454101562,0.0915527344,-0.3814697266,-0.1525878906
0.9111790657,-0.7324218750,0.0610351562,0.0454101562,-0.1220703125,0.0915527344,-0.1525878906
0.9139640331,-0.7324218750,0.0610351562,0.0429687500,-0.1220703125,0.0915527344,-0.1525878906
0.9170160294,-0.7280273438,0.0634765625,0.0429687500,0.2899169922,-0.0915527344,-0.2136230469
0.9197709560,-0.7280273438,0.0634765625,0.0429687500,0.2899169922,-0.0915527344,-0.2136230469
0.9224779606,-0.7280273438,0.0634765625,0.0429687500,0.6713867188,-0.2136230469,-0.1678466797
0.9251699448,-0.7280273438,0.0664062500,0.0405273438,0.6713867188,-0.2136230469,-0.1678466797
0.9279110432,-0.7280273438,0.0664062500,0.0405273438,0.7019042969,-0.5645751953,-0.1678466797
0.9304850101,-0.7280273438,0.0664062500,0.0405273438,0.7019042969,-0.5645751953,-0.1678466797
0.9330499172,-0.7280273438,0.0664062500,0.0405273438,0.6866455078,-0.3967285156,-0.1068115234
0.9356191158,-0.7338867188,0.0664062500,0.0395507812,0.6866455078,-0.3967285156,-0.1068115234
0.9382190704,-0.7338867188,0.0664062500,0.0395507812,0.9155273438,-0.3814697266,-0.1373291016
0.9409179688,-0.7338867188,0.0664062500,0.0395507812,0.9155273438,-0.3814697266,-0.1373291016
0.9437389374,-0.7338867188,0.0664062500,0.0395507812,0.4272460938,-0.0915527344,-0.2441406250
0.9464399815,-0.7333984375,0.0610351562,0.0424804688,0.4272460938,-0.0915527344,-0.2441406250
0.9491150379,-0.7333984375,0.0610351562,0.0424804688,0.0152587891,-0.2288818359,0.0457763672
0.9516870975,-0.7333984375,0.0610351562,0.0424804688,0.0152587891,-0.2288818359,0.0457763672
0.9542529583,-0.7333984375,0.0610351562,0.0424804688,0.0152587891,-0.1373291016,0.4577636719
0.9568219185,-0.7329101562,0.0615234375,0.0463867188,-0.0915527344,-0.1373291016,0.4577636719
0.9594459534,-0.7329101562,0.0615234375,0.0463867188,-0.0915527344,-0.1373291016,0.6103515625
0.9620149136,-0.7329101562,0.0615234375,0.0463867188,-0.0457763672,-0.2441406250,0.6103515625
0.9645829201,-0.7329101562,0.0615234375,0.0458984375,-0.0457763672,-0.2441406250,0.3814697266
0.9671521187,-0.7314453125,0.0659179688,0.0458984375,0.1373291016,0.1525878906,0.3814697266
0.9699630737,-0.7314453125,0.0659179688,0.0458984375,0.1373291016,0.1525878906,0.1678466797
0.9726679325,-0.7314453125,0.0659179688,0.0458984375,0.2288818359,0.1373291016,0.1678466797
0.9753661156,-0.7314453125,0.0576171875,0.0541992188,0.2288818359,0.1373291016,0.3967285156
0.9780700207,-0.7270507812,0.0576171875,0.0541992188,0.9002685547,-0.1373291016,0.3967285156
0.9806420803,-0.7270507812,0.0576171875,0.0541992188,0.9002685547,-0.1373291016,0.3967285156
0.9832088947,-0.7270507812,0.0576171875,0.0541992188,1.5563964844,-0.1983642578,0.5340576172
0.9857749939,-0.7343750000,0.0571289062,0.0522460938,1.5563964844,-0.1983642578,0.5340576172
0.9884169102,-0.7343750000,0.0571289062,0.0522460938,1.3122558594,-0.2441406250,0.7629394531
0.9911160469,-0.7343750000,0.0571289062,0.0522460938,1.3122558594,-0.2441406250,0.7629394531
0.9938199520,-0.7343750000,0.0571289062,0.0522460938,1.3580322266,-0.2136230469,1.0681152344
0.9965109825,-0.7294921875,0.0590820312,0.0449218750,1.3580322266,-0.2136230469,1.0681152344
0.9992170334,-0.7294921875,0.0590820312,0.0449218750,1.5716552734,-0.0457763672,1.0833740234
1.0019929409,-0.7294921875,0.0590820312,0.0449218750,1.5716552734,-0.0457763672,1.0833740234
1.0045590401,-0.7294921875,0.0590820312,0.0449218750,1.7547607422,-0.5493164062,1.0528564453
1.0072259903,-0.7314453125,0.0712890625,0.0502929688,1.7547607422,-0.5493164062,1.0528564453
1.0099179745,-0.7314453125,0.0712890625,0.0502929688,2.0294189453,-0.4119873047,1.1596679688
1.0125830173,-0.7314453125,0.0712890625,0.0502929688,2.0294189453,-0.4119873047,1.1596679688
1.0155079365,-0.7314453125,0.0727539062,0.0380859375,2.2735595703,-0.1220703125,1.2512207031
1.0180819035,-0.7250976562,0.0727539062,0.0380859375,2.2735595703,-0.1220703125,1.2512207031
1.0206429958,-0.7250976562,0.0727539062,0.0380859375,3.5400390625,0.4730224609,1.6479492188
1.0232069492,-0.7250976562,0.0727539062,0.0380859375,3.5400390625,0.4730224609,1.6479492188
1.0257680416,-0.7250976562,0.0771484375,0.0292968750,4.3792724609,0.7781982422,1.7852783203
1.0283710957,-0.7407226562,0.0771484375,0.0292968750,4.3792724609,0.7781982422,1.7852783203
1.0309360027,-0.7407226562,0.0771484375,0.0292968750,5.3100585938,0.2593994141,1.5716552734
1.0334990025,-0.7407226562,0.0771484375,0.0292968750,5.3100585938,0.2593994141,1.5716552734
1.0360620022,-0.7382812500,0.0722656250,0.0390625000,5.3100585938,0.0610351562,1.3885498047
1.0386269093,-0.7382812500,0.0722656250,0.0390625000,5.6304931641,0.0610351562,1.3885498047
1.0411899090,-0.7382812500,0.0722656250,0.0390625000,5.6304931641,0.0610351562,1.5716552734
1.0437519550,-0.7382812500,0.0722656250,0.0390625000,5.1879882812,0.0457763672,1.5716552734
1.0463120937,-0.7426757812,0.0439453125,0.0336914062,5.1879882812,0.0457763672,1.7547607422
1.0489571095,-0.7426757812,0.0439453125,0.0336914062,3.8452148438,-0.0915527344,1.7547607422
1.0515179634,-0.7426757812,0.0439453125,0.0336914062,3.8452148438,-0.0915527344,1.7547607422
1.0540759563,-0.7426757812,0.0439453125,0.0336914062,2.2583007812,-0.1220703125,1.5563964844
1.0566389561,-0.7436523438,0.0502929688,0.0371093750,2.2583007812,-0.1220703125,1.5563964844
1.0592670441,-0.7436523438,0.0502929688,0.0371093750,0.8850097656,-0.0610351562,1.9836425781
1.0618350506,-0.7436523438,0.0502929688,0.0371093750,0.8850097656,-0.0610351562,1.9836425781
1.0643930435,-0.7436523438,0.0502929688,0.0371093750,0.1068115234,-0.0762939453,2.1820068359
1.0669538975,-0.7319335938,0.0449218750,0.0410156250,0.1068115234,-0.0762939453,2.1820068359
1.0697240829,-0.7319335938,0.0449218750,0.0410156250,-0.5035400391,-0.4119873047,1.6632080078
1.0722858906,-0.7319335938,0.0449218750,0.0410156250,-0.5035400391,-0.4119873047,1.6632080078
1.0748460293,-0.7319335938,0.0449218750,0.0410156250,-0.2136230469,0.1373291016,1.9073486328
1.0774059296,-0.7348632812,0.0512695312,0.0581054688,-0.2136230469,0.1373291016,1.9073486328
1.0799729824,-0.7348632812,0.0512695312,0.0581054688,-0.2136230469,-0.0152587891,1.6632080078
1.0825390816,-0.7348632812,0.0512695312,0.0581054688,-0.2136230469,-0.0152587891,1.6632080078
1.0850989819,-0.7348632812,0.0512695312,0.0581054688,-0.0152587891,0.2136230469,1.7089843750
1.0877299309,-0.7285156250,0.0698242188,0.0512695312,-0.0152587891,0.2136230469,1.7089843750
1.0902960300,-0.7285156250,0.0698242188,0.0512695312,-0.0152587891,-0.1220703125,1.7852783203
1.0928599834,-0.7285156250,0.0698242188,0.0512695312,0.3356933594,-0.1220703125,1.7852783203
1.0954229832,-0.7285156250,0.0698242188,0.0512695312,0.3356933594,-0.1220703125,2.0751953125
1.0980119705,-0.7265625000,0.0703125000,0.0517578125,0.5645751953,-0.1220703125,2.0751953125
1.1005740166,-0.7265625000,0.0703125000,0.0517578125,0.5645751953,-0.1220703125,2.0751953125
1.1031389236,-0.7265625000,0.0703125000,0.0517578125,0.5340576172,0.0152587891,1.9989013672
1.1057050228,-0.7265625000,0.0703125000,0.0517578125,0.5340576172,0.0152587891,1.9989013672
1.1082899570,-0.7290039062,0.0703125000,0.0639648438,0.5340576172,0.3967285156,1.6632080078
1.1108601093,-0.7290039062,0.0703125000,0.0639648438,0.5340576172,0.3967285156,1.6632080078
1.1134181023,-0.7290039062,0.0703125000,0.0639648438,-0.0610351562,0.9002685547,1.2969970703
1.1159799099,-0.7290039062,0.0703125000,0.0566406250,-0.0610351562,0.9002685547,1.2969970703
1.1185979843,-0.7275390625,0.0703125000,0.0566406250,0.5645751953,0.7019042969,1.4648437500
1.1211609840,-0.7275390625,0.0703125000,0.0566406250,0.5645751953,0.7019042969,1.4648437500
1.1237421036,-0.7275390625,0.0703125000,0.0566406250,1.2969970703,0.5798339844,1.4648437500
1.1263589859,-0.7275390625,0.0703125000,0.0488281250,1.2969970703,0.5798339844,1.4648437500
1.1292440891,-0.7309570312,0.0791015625,0.0488281250,1.4648437500,0.3814697266,1.2054443359
1.1319410801,-0.7309570312,0.0791015625,0.0488281250,1.4648437500,0.3814697266,1.2054443359
1.1347451210,-0.7309570312,0.0791015625,0.0488281250,1.2664794922,0.5798339844,0.7781982422
1.1374440193,-0.7265625000,0.0761718750,0.0512695312,1.2664794922,0.5798339844,0.7781982422
1.1401879787,-0.7265625000,0.0761718750,0.0512695312,1.1138916016,0.8087158203,0.7476806641
1.1428849697,-0.7265625000,0.0761718750,0.0512695312,1.1138916016,0.8087158203,0.7476806641
1.1455860138,-0.7265625000,0.0761718750,0.0512695312,1.4190673828,0.5493164062,0.5950927734
1.1482880116,-0.7333984375,0.0747070312,0.0439453125,1.4190673828,0.5493164062,0.5950927734
1.1509859562,-0.7333984375,0.0747070312,0.0439453125,1.7547607422,0.7476806641,0.8239746094
1.1536860466,-0.7333984375,0.0747070312,0.0439453125,1.7547607422,0.7476806641,0.8239746094
1.1563830376,-0.7333984375,0.0747070312,0.0488281250,1.7852783203,0.8850097656,1.0833740234
1.1590321064,-0.7294921875,0.0605468750,0.0488281250,1.7852783203,0.8850097656,1.0833740234
1.1615929604,-0.7294921875,0.0605468750,0.0488281250,1.4495849609,1.0681152344,0.8239746094
1.1641569138,-0.7294921875,0.0605468750,0.0488281250,1.4495849609,1.0681152344,0.8239746094
1.1667220592,-0.7294921875,0.0605468750,0.0434570312,2.0599365234,1.3122558594,1.1138916016
1.1693370342,-0.7280273438,0.0712890625,0.0434570312,2.0599365234,1.3122558594,1.1138916016
1.1718978882,-0.7280273438,0.0712890625,0.0434570312,2.0599365234,1.0833740234,1.2664794922
1.1744658947,-0.7280273438,0.0712890625,0.0434570312,2.4261474609,1.0833740234,1.2664794922
1.1770339012,-0.7280273438,0.0722656250,0.0351562500,2.4261474609,1.0833740234,1.3885498047
1.1796500683,-0.7319335938,0.0722656250,0.0351562500,2.7923583984,1.4038085938,1.3885498047
1.1822199821,-0.7319335938,0.0722656250,0.0351562500,2.7923583984,1.4038085938,1.3885498047
1.1847889423,-0.7319335938,0.0722656250,0.0351562500,2.8839111328,1.2054443359,1.6326904297
1.1873540878,-0.7319335938,0.0717773438,0.0439453125,2.8839111328,1.2054443359,1.6326904297
1.1901180744,-0.7231445312,0.0717773438,0.0439453125,3.0212402344,1.4495849609,1.7852783203
1.1928129196,-0.7231445312,0.0717773438,0.0439453125,3.0212402344,1.4495849609,1.7852783203
1.1955039501,-0.7231445312,0.0717773438,0.0439453125,3.4179687500,1.8310546875,1.9073486328
1.1983149052,-0.7280273438,0.0756835938,0.0361328125,3.4179687500,1.8310546875,1.9073486328
1.2010118961,-0.7280273438,0.0756835938,0.0361328125,3.8146972656,1.8768310547,2.0904541016
1.2037100792,-0.7280273438,0.0756835938,0.0361328125,3.8146972656,1.8768310547,2.0904541016
1.2065050602,-0.7280273438,0.0756835938,0.0361328125,4.4708251953,2.1820068359,1.8157958984
1.2091851234,-0.7348632812,0.0747070312,0.0395507812,4.4708251953,2.1820068359,1.8157958984
1.2118411064,-0.7348632812,0.0747070312,0.0395507812,5.2795410156,2.0446777344,1.9989013672
1.2145049572,-0.7348632812,0.0747070312,0.0395507812,5.2795410156,2.0446777344,1.9989013672
1.2172849178,-0.7348632812,0.0747070312,0.0205078125,5.3863525391,1.6937255859,2.7770996094
1.2198770046,-0.7358398438,0.0512695312,0.0205078125,5.3863525391,1.6937255859,2.7770996094
1.2224419117,-0.7358398438,0.0512695312,0.0205078125,3.3874511719,0.7324218750,3.6926269531
1.2250070572,-0.7358398438,0.0512695312,0.0205078125,3.3874511719,0.7324218750,3.6926269531
1.2277159691,-0.7358398438,-0.0102539062,0.0385742188,1.4190673828,0.2593994141,3.4484863281
1.2303729057,-0.7504882812,-0.0102539062,0.0385742188,1.4190673828,0.2593994141,3.4484863281
1.2330329418,-0.7504882812,-0.0102539062,0.0385742188,0.9918212891,0.6256103516,2.8686523438
1.2357649803,-0.7504882812,-0.0102539062,0.0385742188,0.9918212891,0.6256103516,2.8686523438
1.2384650707,-0.7558593750,0.0820312500,0.0390625000,-1.0070800781,1.1444091797,2.9296875000
1.2411251068,-0.7558593750,0.0820312500,0.0390625000,-1.0070800781,1.1444091797,2.9296875000
1.2438440323,-0.7558593750,0.0820312500,0.0390625000,-2.0141601562,1.1749267578,3.6621093750
1.2467589378,-0.7558593750,0.0820312500,0.0390625000,-2.0141601562,1.1749267578,3.6621093750
1.2497050762,-0.7329101562,0.0917968750,0.0454101562,-2.5329589844,0.9002685547,3.6010742188
1.2524030209,-0.7329101562,0.0917968750,0.0454101562,-2.5329589844,0.9002685547,3.6010742188
1.2551031113,-0.7329101562,0.0917968750,0.0454101562,-1.8463134766,1.0681152344,2.8686523438
1.2578129768,-0.7329101562,0.0786132812,0.0454101562,-1.8463134766,1.0681152344,2.8686523438
1.2603769302,-0.7436523438,0.0786132812,0.0454101562,-0.5798339844,1.0833740234,1.9378662109
1.2630469799,-0.7436523438,0.0786132812,0.0454101562,-0.5798339844,1.0833740234,1.9378662109
1.2656180859,-0.7436523438,0.0786132812,0.0454101562,0.6866455078,1.0681152344,1.4495849609
1.2682349682,-0.7436523438,0.0854492188,0.0581054688,0.6866455078,1.0681152344,1.4495849609
1.2709319592,-0.7250976562,0.0854492188,0.0581054688,0.9918212891,1.3122558594,1.0681152344
1.2736320496,-0.7250976562,0.0854492188,0.0581054688,0.9918212891,1.3122558594,1.0681152344
1.2763309479,-0.7250976562,0.0854492188,0.0581054688,1.5106201172,1.5106201172,1.3427734375
1.2789809704,-0.7211914062,0.0820312500,0.0605468750,1.5106201172,1.5106201172,1.3427734375
1.2815420628,-0.7211914062,0.0820312500,0.0605468750,1.4038085938,1.2664794922,1.4495849609
1.2841079235,-0.7211914062,0.0820312500,0.0605468750,1.4038085938,1.2664794922,1.4495849609
1.2866771221,-0.7211914062,0.0820312500,0.0605468750,1.2207031250,1.6632080078,0.9918212891
1.2893059254,-0.7221679688,0.0810546875,0.0546875000,1.2207031250,1.6632080078,0.9918212891
1.2918701172,-0.7221679688,0.0810546875,0.0546875000,1.2207031250,2.1057128906,0.5950927734
1.2944359779,-0.7221679688,0.0810546875,0.0546875000,1.0528564453,2.1057128906,0.5950927734
1.2970039845,-0.7221679688,0.0810546875,0.0546875000,1.0528564453,2.3803710938,0.2593994141
1.2996969223,-0.7177734375,0.0883789062,0.0478515625,1.7700195312,2.3803710938,0.2593994141
1.3022620678,-0.7177734375,0.0883789062,0.0478515625,1.7700195312,2.3803710938,-0.0152587891
1.3048319817,-0.7177734375,0.0883789062,0.0478515625,2.4871826172,1.9683837891,-0.0152587891
1.3073990345,-0.7177734375,0.0883789062,0.0478515625,2.4871826172,1.9683837891,-0.2746582031
1.3100640774,-0.7231445312,0.0898437500,0.0444335938,2.8839111328,1.9378662109,-0.2746582031
1.3126330376,-0.7231445312,0.0898437500,0.0444335938,2.8839111328,1.9378662109,-0.2746582031
1.3151979446,-0.7231445312,0.0898437500,0.0444335938,3.1738281250,2.1667480469,-0.5035400391
1.3177719116,-0.7231445312,0.0898437500,0.0444335938,3.1738281250,2.1667480469,-0.5035400391
1.3204751015,-0.7260742188,0.0903320312,0.0361328125,3.5095214844,2.2277832031,-0.8239746094
1.3231720924,-0.7260742188,0.0903320312,0.0361328125,3.5095214844,2.2277832031,-0.8239746094
1.3259739876,-0.7260742188,0.0903320312,0.0361328125,4.7149658203,2.3040771484,-0.9307861328
1.3286840916,-0.7260742188,0.0786132812,0.0361328125,4.7149658203,2.3040771484,-0.9307861328
1.3313779831,-0.7368164062,0.0786132812,0.0361328125,4.7607421875,2.3040771484,-0.7934570312
1.3340721130,-0.7368164062,0.0786132812,0.0361328125,4.7607421875,2.3040771484,-0.7934570312
1.3367719650,-0.7368164062,0.0786132812,0.0361328125,4.7912597656,2.2888183594,-0.6561279297
1.3393990993,-0.7348632812,0.0659179688,0.0419921875,4.7912597656,2.2888183594,-0.6561279297
1.3419640064,-0.7348632812,0.0659179688,0.0419921875,5.1879882812,2.4871826172,-0.6408691406
1.3445289135,-0.7348632812,0.0659179688,0.0419921875,5.1879882812,2.4871826172,-0.6408691406
1.3470940590,-0.7348632812,0.0659179688,0.0419921875,4.5318603516,2.7770996094,-0.6866455078
1.3497219086,-0.7348632812,0.0581054688,0.0478515625,4.5318603516,2.7770996094,-0.6866455078
1.3522839546,-0.7348632812,0.0581054688,0.0478515625,3.9062500000,3.1890869141,-0.4730224609
1.3548519611,-0.7348632812,0.0581054688,0.0478515625,3.9062500000,3.1890869141,-0.4730224609
1.3574190140,-0.7348632812,0.0581054688,0.0478515625,3.7689208984,2.7465820312,-0.2441406250
1.3601140976,-0.7324218750,0.0585937500,0.0366210938,3.7689208984,2.7465820312,-0.2441406250
1.3628129959,-0.7324218750,0.0585937500,0.0366210938,3.8452148438,2.7008056641,0.0000000000
1.3656589985,-0.7324218750,0.0585937500,0.0366210938,3.8452148438,2.7008056641,0.0000000000
1.3687810898,-0.7324218750,0.0585937500,0.0390625000,3.1127929688,2.7770996094,0.2593994141
1.3714840412,-0.7358398438,0.0595703125,0.0390625000,3.1127929688,2.7770996094,0.2593994141
1.3741800785,-0.7358398438,0.0595703125,0.0390625000,2.9754638672,3.1433105469,0.1068115234
1.3768811226,-0.7358398438,0.0595703125,0.0390625000,2.9754638672,3.1433105469,0.1068115234
1.3795919418,-0.7319335938,0.0629882812,0.0434570312,3.2348632812,2.9296875000,0.5035400391
1.3822901249,-0.7319335938,0.0629882812,0.0434570312,3.2348632812,2.9296875000,0.5035400391
1.3849821091,-0.7319335938,0.0629882812,0.0434570312,2.7313232422,3.1127929688,1.0375976562
1.3876891136,-0.7319335938,0.0629882812,0.0434570312,2.7313232422,3.1127929688,1.0375976562
1.3904891014,-0.7363281250,0.0639648438,0.0307617188,2.7770996094,2.5482177734,1.2359619141
1.3931789398,-0.7363281250,0.0639648438,0.0307617188,2.7770996094,2.5482177734,1.2359619141
1.3958721161,-0.7363281250,0.0639648438,0.0307617188,3.3264160156,2.3651123047,1.7395019531
1.3985350132,-0.7363281250,0.0639648438,0.0307617188,3.3264160156,2.3651123047,1.7395019531
1.4010949135,-0.7382812500,0.0546875000,0.0317382812,2.8533935547,2.3651123047,2.0599365234
1.4036529064,-0.7382812500,0.0546875000,0.0317382812,2.8533935547,2.3651123047,2.0599365234
1.4062130451,-0.7382812500,0.0546875000,0.0317382812,2.8533935547,2.5634765625,2.3040771484
1.4087839127,-0.7382812500,0.0546875000,0.0361328125,2.7160644531,2.5634765625,2.3040771484
1.4119689465,-0.7319335938,0.0761718750,0.0361328125,2.9602050781,2.5177001953,2.4871826172
1.4145328999,-0.7319335938,0.0761718750,0.0361328125,2.9602050781,2.5177001953,2.4871826172
1.4170899391,-0.7319335938,0.0761718750,0.0361328125,2.9449462891,2.7465820312,2.7313232422
1.4197320938,-0.7319335938,0.0815429688,0.0302734375,2.9449462891,2.7465820312,2.7313232422
1.4222919941,-0.7353515625,0.0815429688,0.0302734375,2.9449462891,3.1738281250,2.9907226562
1.4248509407,-0.7353515625,0.0815429688,0.0302734375,3.6010742188,3.1738281250,2.9907226562
1.4274189472,-0.7353515625,0.0815429688,0.0302734375,3.6010742188,3.1738281250,3.2806396484
1.4299840927,-0.7353515625,0.0766601562,0.0332031250,4.1809082031,3.0212402344,3.2806396484
1.4325559139,-0.7353515625,0.0766601562,0.0332031250,4.1809082031,3.0212402344,3.2806396484
1.4351179600,-0.7353515625,0.0766601562,0.0332031250,4.3334960938,3.0212402344,3.0822753906
1.4377069473,-0.7353515625,0.0766601562,0.0332031250,4.3334960938,3.0212402344,3.0822753906
1.4402770996,-0.7280273438,0.0751953125,0.0341796875,4.6234130859,3.3264160156,3.1738281250
1.4428350925,-0.7280273438,0.0751953125,0.0341796875,4.6234130859,3.3264160156,3.1738281250
1.4453930855,-0.7280273438,0.0751953125,0.0341796875,5.2642822266,3.2806396484,3.2653808594
1.4479970932,-0.7280273438,0.0751953125,0.0341796875,5.2642822266,3.2806396484,3.2653808594
1.4505569935,-0.7324218750,0.0883789062,0.0307617188,5.5236816406,3.3416748047,3.2806396484
1.4532439709,-0.7324218750,0.0883789062,0.0307617188,5.5236816406,3.3416748047,3.2806396484
1.4558010101,-0.7324218750,0.0883789062,0.0307617188,6.5002441406,3.2348632812,3.3416748047
1.4585111141,-0.7324218750,0.0883789062,0.0307617188,6.5002441406,3.2348632812,3.3416748047
1.4610810280,-0.7187500000,0.0874023438,0.0224609375,6.1035156250,3.1585693359,3.4942626953
1.4636449814,-0.7187500000,0.0874023438,0.0224609375,6.1035156250,3.1585693359,3.4942626953
1.4662079811,-0.7187500000,0.0874023438,0.0224609375,6.3934326172,3.2043457031,3.5247802734
1.4689269066,-0.7187500000,0.0874023438,0.0224609375,6.3934326172,3.2043457031,3.5247802734
1.4716188908,-0.7202148438,0.0869140625,0.0136718750,6.8511962891,2.8533935547,3.8757324219
1.4743220806,-0.7202148438,0.0869140625,0.0136718750,6.8511962891,2.8533935547,3.8757324219
1.4770140648,-0.7202148438,0.0869140625,0.0136718750,7.5073242188,2.5939941406,4.1046142578
1.4797170162,-0.7202148438,0.0869140625,-0.0122070312,7.5073242188,2.5939941406,4.1046142578
1.4824171066,-0.7382812500,0.1030273438,-0.0122070312,6.9732666016,2.6855468750,4.3487548828
1.4851109982,-0.7382812500,0.1030273438,-0.0122070312,6.9732666016,2.6855468750,4.3487548828
1.4878199100,-0.7382812500,0.1030273438,-0.0122070312,5.9967041016,2.9296875000,4.4097900391
1.4905240536,-0.7480468750,0.0917968750,0.0034179688,5.9967041016,2.9296875000,4.4097900391
1.4932270050,-0.7480468750,0.0917968750,0.0034179688,5.9967041016,2.7008056641,4.9591064453
1.4959321022,-0.7480468750,0.0917968750,0.0034179688,4.6386718750,2.7008056641,4.9591064453
1.4986019135,-0.7480468750,0.0917968750,0.0034179688,4.6386718750,3.1738281250,5.5541992188
1.5011649132,-0.7412109375,0.0649414062,0.0200195312,3.9215087891,3.1738281250,5.5541992188
1.5037329197,-0.7412109375,0.0649414062,0.0200195312,3.9215087891,3.1738281250,6.1187744141
1.5062940121,-0.7412109375,0.0649414062,0.0200195312,2.9907226562,3.1585693359,6.1187744141
1.5089700222,-0.7412109375,0.0649414062,0.0200195312,2.9907226562,3.1585693359,6.1950683594
1.5116670132,-0.7446289062,0.0375976562,0.0268554688,1.2817382812,3.1280517578,6.1950683594
1.5144309998,-0.7446289062,0.0375976562,0.0268554688,1.2817382812,3.1280517578,6.9274902344
1.5172309875,-0.7446289062,0.0375976562,0.0268554688,0.9155273438,3.7078857422,6.9274902344
1.5199730396,-0.7446289062,0.0375976562,0.0468750000,0.9155273438,7.6141357422,7.4310302734
1.5226700306,-0.7480468750,0.0327148438,0.0468750000,-0.4272460938,4.0588378906,7.4310302734
1.5254149437,-0.7480468750,0.0327148438,0.0468750000,-0.4272460938,4.0588378906,7.5531005859
1.5296609402,-0.7480468750,0.0327148438,0.0468750000,-1.6784667969,4.0740966797,7.5531005859
1.5322270393,-0.7475585938,0.0336914062,0.0688476562,-1.1444091797,4.4097900391,6.9274902344
1.5347878933,-0.7475585938,0.0336914062,0.0688476562,-1.1444091797,4.4097900391,6.9274902344
1.5373520851,-0.7475585938,0.0336914062,0.0688476562,-1.9836425781,5.3253173828,6.5460205078
1.5400218964,-0.7475585938,0.0336914062,0.0688476562,-1.9836425781,5.3253173828,6.5460205078
1.5425860882,-0.7446289062,0.0976562500,0.0590820312,-1.9378662109,5.4168701172,7.1563720703
1.5451469421,-0.7446289062,0.0976562500,0.0590820312,-1.9378662109,5.4168701172,7.1563720703
1.5477221012,-0.7446289062,0.0976562500,0.0590820312,-1.9378662109,5.6610107422,7.5378417969
1.5502839088,-0.7446289062,0.0976562500,0.0571289062,-1.0375976562,5.6610107422,7.5378417969
1.5528490543,-0.7416992188,0.1137695312,0.0571289062,-1.0375976562,5.6610107422,7.1105957031
1.5554130077,-0.7416992188,0.1137695312,0.0571289062,-0.0610351562,6.2713623047,7.1105957031
1.5580039024,-0.7416992188,0.1137695312,0.0571289062,-0.0610351562,6.2713623047,6.5155029297
1.5605659485,-0.7416992188,0.1137695312,0.0576171875,1.5411376953,6.3934326172,6.5155029297
1.5631220341,-0.7348632812,0.1103515625,0.0576171875,1.5411376953,6.3934326172,6.5155029297
1.5656790733,-0.7348632812,0.1103515625,0.0576171875,3.6163330078,6.2103271484,5.8898925781
1.5682430267,-0.7348632812,0.1103515625,0.0576171875,3.6163330078,6.2103271484,5.8898925781
1.5708079338,-0.7348632812,0.1093750000,0.0493164062,5.2795410156,6.5155029297,5.5541992188
1.5733671188,-0.7338867188,0.1093750000,0.0493164062,5.2795410156,6.5155029297,5.5541992188
1.5759260654,-0.7338867188,0.1093750000,0.0493164062,6.8054199219,7.4005126953,5.4473876953
1.5786709785,-0.7338867188,0.1093750000,0.0493164062,6.8054199219,7.4005126953,5.4473876953
1.5813438892,-0.7431640625,0.1162109375,0.0419921875,7.9193115234,7.1563720703,5.1574707031
1.5839118958,-0.7431640625,0.1162109375,0.0419921875,7.9193115234,7.1563720703,5.1574707031
1.5864779949,-0.7431640625,0.1162109375,0.0419921875,8.2244873047,7.1105957031,4.8065185547
1.5892770290,-0.7431640625,0.1162109375,0.0419921875,8.2244873047,7.1105957031,4.8065185547
1.5919799805,-0.7485351562,0.0986328125,0.0327148438,8.9111328125,6.8206787109,4.5471191406
1.5946760178,-0.7485351562,0.0986328125,0.0327148438,8.9111328125,6.8206787109,4.5471191406
1.5973689556,-0.7485351562,0.0986328125,0.0327148438,9.7656250000,7.7209472656,4.3487548828
1.6000809669,-0.7485351562,0.0986328125,0.0327148438,9.7656250000,7.7209472656,4.3487548828
1.6027851105,-0.7421875000,0.0854492188,0.0297851562,10.0555419922,7.7362060547,4.4860839844
1.6054890156,-0.7421875000,0.0854492188,0.0297851562,10.0555419922,7.7362060547,4.4860839844
1.6082029343,-0.7421875000,0.0854492188,0.0297851562,10.6201171875,8.1329345703,4.6386718750
1.6109070778,-0.7421875000,0.0854492188,0.0273437500,10.6201171875,8.1329345703,4.6386718750
1.6136100292,-0.7451171875,0.0698242188,0.0273437500,10.4370117188,8.4075927734,5.1574707031
1.6163780689,-0.7451171875,0.0698242188,0.0273437500,10.4370117188,8.4075927734,5.1574707031
1.6191370487,-0.7451171875,0.0698242188,0.0273437500,9.8419189453,8.3160400391,5.7678222656
1.6218059063,-0.7382812500,0.0717773438,0.0224609375,9.8419189453,8.3160400391,5.7678222656
1.6249020100,-0.7382812500,0.0717773438,0.0224609375,8.9569091797,8.3160400391,6.4849853516
1.6274650097,-0.7382812500,0.0717773438,0.0224609375,8.9569091797,8.3160400391,6.4849853516
1.6300930977,-0.7382812500,0.0717773438,0.0224609375,8.4075927734,8.5144042969,7.1105957031
1.6326539516,-0.7358398438,0.0732421875,0.0322265625,8.4075927734,8.5144042969,7.1105957031
1.6352169514,-0.7358398438,0.0732421875,0.0322265625,8.8195800781,8.7432861328,7.9193115234
1.6377758980,-0.7358398438,0.0732421875,0.0322265625,8.8195800781,8.7432861328,7.9193115234
1.6403450966,-0.7358398438,0.0732421875,0.0322265625,8.8043212891,8.8500976562,8.6975097656
1.6429109573,-0.7368164062,0.0659179688,0.0141601562,8.8043212891,8.8500976562,8.6975097656
1.6455841064,-0.7368164062,0.0659179688,0.0141601562,8.8043212891,8.9111328125,8.9263916016
1.6481959820,-0.7368164062,0.0659179688,0.0141601562,8.2244873047,8.9111328125,8.9263916016
1.6507561207,-0.7368164062,0.0659179688,0.0141601562,8.2244873047,8.9111328125,9.6435546875
1.6533150673,-0.7392578125,0.0644531250,0.0283203125,8.6669921875,9.4299316406,9.6435546875
1.6558809280,-0.7392578125,0.0644531250,0.0283203125,8.6669921875,9.4299316406,10.6353759766
1.6584520340,-0.7392578125,0.0644531250,0.0283203125,9.0637207031,9.7808837891,10.6353759766
1.6610200405,-0.7392578125,0.0644531250,0.0283203125,9.0637207031,9.7808837891,10.6353759766
1.6635849476,-0.7421875000,0.0644531250,0.0205078125,8.3618164062,9.3841552734,11.7492675781
1.6661550999,-0.7421875000,0.0644531250,0.0205078125,8.3618164062,9.3841552734,11.7492675781
1.6689119339,-0.7421875000,0.0644531250,0.0205078125,6.7596435547,8.6517333984,12.8936767578
1.6714839935,-0.7421875000,0.0644531250,0.0175781250,6.7596435547,8.6517333984,12.8936767578
1.6740510464,-0.7573242188,0.0209960938,0.0175781250,6.4086914062,8.7432861328,13.4735107422
1.6766281128,-0.7573242188,0.0209960938,0.0175781250,6.4086914062,8.7432861328,13.4735107422
1.6803491116,-0.7573242188,0.0209960938,0.0175781250,6.0424804688,9.2926025391,13.9160156250
1.6840291023,-0.7709960938,0.0659179688,0.0117187500,5.0048828125,9.7045898438,14.8468017578
1.6876180172,-0.7709960938,0.0659179688,0.0117187500,5.0048828125,9.7045898438,14.8468017578
1.6903140545,-0.7709960938,0.0659179688,0.0117187500,4.1046142578,9.2163085938,15.8233642578
1.6929960251,-0.7749023438,0.0854492188,0.0068359375,4.1046142578,9.2163085938,15.8233642578
1.6956799030,-0.7749023438,0.0854492188,0.0068359375,4.3334960938,9.2163085938,16.3269042969
1.6983768940,-0.7749023438,0.0854492188,0.0068359375,4.3334960938,9.2163085938,16.3269042969
1.7010641098,-0.7749023438,0.0854492188,0.0068359375,5.3558349609,9.0179443359,16.5252685547
1.7037510872,-0.7666015625,0.0888671875,0.0039062500,5.3558349609,9.0179443359,16.5252685547
1.7064330578,-0.7666015625,0.0888671875,0.0039062500,7.0495605469,8.6822509766,17.4713134766
1.7091660500,-0.7666015625,0.0888671875,0.0039062500,7.0495605469,8.6822509766,17.4713134766
1.7119929790,-0.7666015625,0.0888671875,0.0053710938,7.9498291016,8.6669921875,17.7917480469
1.7146790028,-0.7592773438,0.0737304688,0.0053710938,7.9498291016,8.6669921875,17.7917480469
1.7173690796,-0.7592773438,0.0737304688,0.0053710938,8.0108642578,9.0026855469,18.7072753906
1.7200629711,-0.7592773438,0.0737304688,0.0053710938,8.0108642578,9.0026855469,18.7072753906
1.7227470875,-0.7441406250,0.0698242188,-0.0029296875,7.7362060547,8.6669921875,19.3786621094
1.7254281044,-0.7441406250,0.0698242188,-0.0029296875,7.7362060547,8.6669921875,19.3786621094
1.7281219959,-0.7441406250,0.0698242188,-0.0029296875,7.3089599609,8.6364746094,20.4620361328
1.7308220863,-0.7441406250,0.0698242188,-0.0029296875,7.3089599609,8.6364746094,20.4620361328
1.7335250378,-0.7416992188,0.0703125000,0.0073242188,6.2255859375,8.5601806641,21.6674804688
1.7363240719,-0.7416992188,0.0703125000,0.0073242188,6.2255859375,8.5601806641,21.6674804688
1.7393538952,-0.7416992188,0.0703125000,0.0073242188,5.2795410156,8.3160400391,22.5830078125
1.7420599461,-0.7416992188,0.0703125000,0.0048828125,5.2795410156,8.3160400391,22.5830078125
1.7447619438,-0.7338867188,0.0874023438,0.0048828125,4.3334960938,8.1024169922,23.2849121094
1.7474589348,-0.7338867188,0.0874023438,0.0048828125,4.3334960938,8.1024169922,23.2849121094
1.7501709461,-0.7338867188,0.0874023438,0.0048828125,4.7607421875,8.0566406250,24.0936279297
1.7528738976,-0.7338867188,0.0971679688,0.0122070312,4.7607421875,8.0566406250,24.0936279297
1.7555689812,-0.7343750000,0.0971679688,0.0122070312,4.3945312500,8.1176757812,24.9328613281
1.7582890987,-0.7343750000,0.0971679688,0.0122070312,4.3945312500,8.1176757812,24.9328613281
1.7609920502,-0.7343750000,0.0971679688,0.0122070312,4.1961669922,7.9650878906,25.6958007812
1.7636930943,-0.7182617188,0.0991210938,0.0063476562,4.1961669922,7.9650878906,25.6958007812
1.7663960457,-0.7182617188,0.0991210938,0.0063476562,3.9978027344,8.2702636719,26.7028808594
1.7690329552,-0.7182617188,0.0991210938,0.0063476562,3.9978027344,8.2702636719,26.7028808594
1.7716069221,-0.7182617188,0.0991210938,0.0063476562,3.8299560547,8.1634521484,27.9235839844
1.7741730213,-0.7172851562,0.1132812500,0.0180664062,3.8299560547,8.1634521484,27.9235839844
1.7767419815,-0.7172851562,0.1132812500,0.0180664062,4.3334960938,8.0413818359,28.8238525391
1.7794609070,-0.7172851562,0.1132812500,0.0180664062,4.3334960938,8.0413818359,28.8238525391
1.7820370197,-0.7172851562,0.1132812500,0.0180664062,5.0201416016,8.2702636719,29.6173095703
1.7846050262,-0.7187500000,0.1303710938,0.0078125000,5.0201416016,8.2702636719,29.6173095703
1.7871770859,-0.7187500000,0.1303710938,0.0078125000,5.4168701172,7.8735351562,30.4412841797
1.7898659706,-0.7187500000,0.1303710938,0.0078125000,5.4168701172,7.8735351562,30.4412841797
1.7924361229,-0.7187500000,0.1303710938,-0.1171875000,5.4168701172,7.2021484375,31.6162109375
1.7950088978,-0.7202148438,0.1406250000,-0.0078125000,6.4849853516,7.2021484375,31.6162109375
1.7975790501,-0.7202148438,0.1406250000,-0.0078125000,6.4849853516,7.2021484375,32.3028564453
1.8003840446,-0.7202148438,0.1406250000,-0.0078125000,7.9498291016,6.4239501953,32.3028564453
1.8030860424,-0.7202148438,0.1264648438,-0.0185546875,7.9498291016,6.4239501953,33.1115722656
1.8057839870,-0.7177734375,0.1264648438,-0.0185546875,8.8958740234,5.6610107422,33.1115722656
1.8084940910,-0.7177734375,0.1264648438,-0.0185546875,8.8958740234,5.6610107422,34.3475341797
1.8111920357,-0.7177734375,0.1264648438,-0.0185546875,8.8653564453,4.6691894531,34.3475341797
1.8138959408,-0.7338867188,0.0957031250,-0.0229492188,8.8653564453,4.6691894531,35.1715087891
1.8165929317,-0.7338867188,0.0957031250,-0.0229492188,8.6975097656,4.0588378906,35.1715087891
1.8192191124,-0.7338867188,0.0957031250,-0.0229492188,8.6975097656,4.0588378906,36.4837646484
1.8217840195,-0.7338867188,0.0957031250,-0.0229492188,7.5073242188,3.8604736328,36.4837646484
1.8243529797,-0.7495117188,0.0815429688,-0.0585937500,7.5073242188,3.8604736328,36.4837646484
1.8269200325,-0.7495117188,0.0815429688,-0.0585937500,5.5236816406,4.0435791016,38.6962890625
1.8295309544,-0.7495117188,0.0815429688,-0.0585937500,5.5236816406,4.0435791016,38.6962890625
1.8320949078,-0.7495117188,0.0815429688,-0.0585937500,3.3721923828,4.3945312500,40.3594970703
1.8346660137,-0.7680664062,0.0595703125,-0.0590820312,3.3721923828,4.3945312500,40.3594970703
1.8372349739,-0.7680664062,0.0595703125,-0.0590820312,0.4577636719,4.8217773438,41.9464111328
1.8399219513,-0.7680664062,0.0595703125,-0.0590820312,0.4577636719,4.8217773438,41.9464111328
1.8427350521,-0.7680664062,0.0595703125,-0.0590820312,-2.1209716797,5.3100585938,43.9758300781
1.8454360962,-0.7739257812,0.0625000000,-0.0595703125,-2.1209716797,5.3100585938,43.9758300781
1.8481750488,-0.7739257812,0.0625000000,-0.0595703125,-5.2185058594,4.7149658203,45.9136962891
1.8508760929,-0.7739257812,0.0625000000,-0.0595703125,-5.2185058594,4.7149658203,45.9136962891
1.8535730839,-0.7739257812,0.0834960938,-0.0551757812,-7.5683593750,4.4250488281,47.9888916016
1.8564329147,-0.7924804688,0.0834960938,-0.0551757812,-7.5683593750,4.4250488281,47.9888916016
1.8595740795,-0.7924804688,0.0834960938,-0.0551757812,-9.8114013672,4.4250488281,49.6826171875
1.8622770309,-0.7924804688,0.0834960938,-0.0551757812,-9.8114013672,4.4250488281,49.6826171875
1.8649799824,-0.8085937500,0.1044921875,-0.0366210938,-11.0321044922,4.2724609375,51.1932373047
1.8676970005,-0.8085937500,0.1044921875,-0.0366210938,-11.0321044922,4.2724609375,51.1932373047
1.8702690601,-0.8085937500,0.1044921875,-0.0366210938,-11.4593505859,3.8909912109,52.5054931641
1.8728449345,-0.8085937500,0.1044921875,-0.0366210938,-11.4593505859,3.8909912109,52.5054931641
1.8754239082,-0.8203125000,0.1264648438,-0.0341796875,-12.0544433594,3.7689208984,53.4515380859
1.8780369759,-0.8203125000,0.1264648438,-0.0341796875,-12.0544433594,3.7689208984,53.4515380859
1.8807430267,-0.8203125000,0.1264648438,-0.0341796875,-12.5427246094,3.5858154297,54.1229248047
1.8834490776,-0.8203125000,0.1264648438,-0.0258789062,-12.5427246094,3.5858154297,54.1229248047
1.8861570358,-0.8198242188,0.1445312500,-0.0258789062,-12.3596191406,3.4484863281,54.8706054688
1.8888289928,-0.8198242188,0.1445312500,-0.0258789062,-12.3596191406,3.4484863281,54.8706054688
1.8914000988,-0.8198242188,0.1445312500,-0.0258789062,-11.7492675781,3.1738281250,55.3894042969
1.8939690590,-0.8198242188,0.1723632812,-0.0097656250,-11.7492675781,3.1738281250,55.3894042969
1.8965480328,-0.8139648438,0.1723632812,-0.0097656250,-11.3677978516,2.5024414062,55.3283691406
1.8991730213,-0.8139648438,0.1723632812,-0.0097656250,-11.3677978516,2.5024414062,55.3283691406
1.9017450809,-0.8139648438,0.1723632812,-0.0097656250,-11.6577148438,2.2430419922,54.5806884766
1.9043219090,-0.8139648438,0.1850585938,0.0058593750,-11.6577148438,2.2430419922,54.5806884766
1.9070091248,-0.8183593750,0.1850585938,0.0058593750,-11.0473632812,2.1362304688,54.1229248047
1.9096889496,-0.8183593750,0.1850585938,0.0058593750,-11.0473632812,2.1362304688,54.1229248047
1.9122660160,-0.8183593750,0.1850585938,0.0058593750,-11.0473632812,2.0751953125,53.9855957031
1.9148399830,-0.8007812500,0.1997070312,0.0131835938,-10.2081298828,2.0751953125,53.9855957031
1.9174139500,-0.8007812500,0.1997070312,0.0131835938,-10.2081298828,2.0751953125,53.6346435547
1.9200229645,-0.8007812500,0.1997070312,0.0131835938,-9.5062255859,1.7547607422,53.6346435547
1.9225859642,-0.8007812500,0.1997070312,0.0131835938,-9.5062255859,1.7547607422,53.0090332031
1.9251530170,-0.7939453125,0.2236328125,0.0234375000,-8.8500976562,1.6784667969,53.0090332031
1.9277150631,-0.7939453125,0.2236328125,0.0234375000,-8.8500976562,1.6784667969,53.0090332031
1.9304139614,-0.7939453125,0.2236328125,0.0234375000,-9.1094970703,1.5106201172,51.5441894531
1.9331159592,-0.7939453125,0.2236328125,0.0234375000,-9.1094970703,1.5106201172,47.6379394531
1.9358160496,-0.7919921875,0.2241210938,0.0151367188,-9.6740722656,1.6632080078,50.1861572266
1.9385650158,-0.7919921875,0.2241210938,0.0151367188,-9.6740722656,1.6632080078,50.1861572266
1.9412701130,-0.7919921875,0.2241210938,0.0151367188,-8.5754394531,1.9836425781,48.5992431641
1.9439721107,-0.7919921875,0.2241210938,0.0312500000,-8.5754394531,1.9836425781,48.5992431641
1.9466750622,-0.7500000000,0.2597656250,0.0312500000,-6.8359375000,1.8768310547,47.9888916016
1.9493100643,-0.7500000000,0.2597656250,0.0312500000,-6.8359375000,1.8768310547,47.9888916016
1.9518840313,-0.7500000000,0.2597656250,0.0312500000,-4.7302246094,1.4648437500,47.7294921875
1.9544589520,-0.7500000000,0.2597656250,0.0449218750,-4.7302246094,1.4648437500,47.7294921875
1.9570240974,-0.7187500000,0.2739257812,0.0449218750,-2.5634765625,1.4801025391,46.7071533203
1.9597010612,-0.7187500000,0.2739257812,0.0449218750,-2.5634765625,1.4801025391,46.7071533203
1.9622740746,-0.7187500000,0.2739257812,0.0449218750,0.1678466797,0.9613037109,44.8608398438
1.9648430347,-0.7187500000,0.2880859375,0.0356445312,0.1678466797,0.9613037109,44.8608398438
1.9674110413,-0.7026367188,0.2880859375,0.0356445312,3.3721923828,0.1068115234,42.7551269531
1.9702980518,-0.7026367188,0.2880859375,0.0356445312,3.3721923828,0.1068115234,42.7551269531
1.9729769230,-0.7026367188,0.2880859375,0.0356445312,7.5683593750,0.4119873047,39.7949218750
1.9758601189,-0.6914062500,0.2275390625,0.0317382812,7.5683593750,0.4119873047,39.7949218750
1.9789531231,-0.6914062500,0.2275390625,0.0317382812,11.0321044922,0.7019042969,35.7360839844
1.9816660881,-0.6914062500,0.2275390625,0.0317382812,11.0321044922,0.7019042969,35.7360839844
1.9843709469,-0.6914062500,0.2275390625,0.0234375000,14.4653320312,1.5869140625,31.2042236328
1.9870719910,-0.6748046875,0.1577148438,0.0234375000,14.4653320312,1.5869140625,31.2042236328
1.9897899628,-0.6748046875,0.1577148438,0.0234375000,17.3339843750,2.0141601562,26.6113281250
1.9924941063,-0.6748046875,0.1577148438,0.0234375000,17.3339843750,2.0141601562,26.6113281250
1.9951980114,-0.6748046875,0.0922851562,0.0322265625,18.9361572266,2.1972656250,22.3388671875
1.9979560375,-0.6782226562,0.0922851562,0.0322265625,18.9361572266,2.1972656250,22.3388671875
2.0006608963,-0.6782226562,0.0922851562,0.0322265625,20.1416015625,1.8768310547,19.0124511719
2.0033659935,-0.6782226562,0.0922851562,0.0322265625,20.1416015625,1.8768310547,19.0124511719
2.0060739517,-0.7099609375,0.0063476562,0.0478515625,18.8903808594,1.4038085938,16.0675048828
2.0087420940,-0.7099609375,0.0063476562,0.0478515625,18.8903808594,1.4038085938,16.0675048828
2.0113139153,-0.7099609375,0.0063476562,0.0478515625,16.1437988281,1.4343261719,13.3514404297
2.0138869286,-0.7099609375,0.0063476562,0.0478515625,16.1437988281,1.4343261719,13.3514404297
2.0164599419,-0.7182617188,-0.0815429688,0.0429687500,12.1917724609,0.6561279297,11.1846923828
2.0190429688,-0.7182617188,-0.0815429688,0.0429687500,12.1917724609,0.6561279297,11.1846923828
2.0216100216,-0.7182617188,-0.0815429688,0.0429687500,7.5225830078,0.3662109375,9.4909667969
2.0241730213,-0.7182617188,-0.0815429688,0.0429687500,7.5225830078,0.3662109375,9.4909667969
2.0267410278,-0.7290039062,-0.1196289062,0.0185546875,2.2125244141,0.6408691406,8.4075927734
2.0294499397,-0.7290039062,-0.1196289062,0.0185546875,2.2125244141,0.6408691406,8.4075927734
2.0320179462,-0.7290039062,-0.1196289062,0.0185546875,-5.5999755859,-0.8697509766,7.3547363281
2.0346879959,-0.7290039062,-0.1196289062,0.0185546875,-4.7454833984,-0.8697509766,7.3547363281
2.0372560024,-0.6997070312,-0.1704101562,0.0200195312,-12.5579833984,-3.3416748047,4.5471191406
2.0401029587,-0.6997070312,-0.1704101562,0.0200195312,-12.5885009766,-3.3416748047,4.5471191406
2.0427629948,-0.6997070312,-0.1704101562,0.0200195312,-12.5885009766,-5.3253173828,-0.4730224609
2.0454258919,-0.6997070312,-0.2109375000,0.0068359375,-18.9819335938,-5.3253173828,-0.4730224609
2.0481059551,-0.6684570312,-0.2109375000,0.0068359375,-18.9819335938,-7.5988769531,-7.2937011719
2.0508069992,-0.6684570312,-0.2109375000,0.0068359375,-23.8189697266,-7.5988769531,-7.2937011719
2.0535159111,-0.6684570312,-0.2109375000,0.0068359375,-23.8189697266,-9.4451904297,-14.1906738281
2.0562269688,-0.6528320312,-0.1655273438,-0.0166015625,-26.0467529297,-9.4451904297,-14.1906738281
2.0589210987,-0.6528320312,-0.1655273438,-0.0166015625,-26.0467529297,-9.4451904297,-21.5911865234
2.0614950657,-0.6528320312,-0.1655273438,-0.0166015625,-26.4739990234,-10.8337402344,-21.5911865234
2.0640718937,-0.6528320312,-0.1655273438,-0.0166015625,-26.4739990234,-10.8337402344,-29.3731689453
2.0666460991,-0.6206054688,-0.1772460938,-0.0371093750,-26.3214111328,-12.4511718750,-29.3731689453
2.0693099499,-0.6206054688,-0.1772460938,-0.0371093750,-26.3214111328,-12.4511718750,-37.1856689453
2.0720210075,-0.6206054688,-0.1772460938,-0.0371093750,-26.5350341797,-14.4805908203,-36.6058349609
2.0747330189,-0.6206054688,-0.1772460938,-0.0371093750,-26.5350341797,-14.4805908203,-44.4183349609
2.0774440765,-0.6142578125,-0.2250976562,-0.0419921875,-27.4658203125,-16.8151855469,-44.6929931641
2.0801949501,-0.6142578125,-0.2250976562,-0.0419921875,-27.4658203125,-16.8151855469,-52.5054931641
2.0829010010,-0.6142578125,-0.2250976562,-0.0419921875,-29.1595458984,-18.2189941406,-52.2766113281
2.0856120586,-0.6142578125,-0.2250976562,-0.0537109375,-29.1595458984,-18.2189941406,-60.0891113281
2.0883240700,-0.6191406250,-0.2055664062,-0.0537109375,-30.9295654297,-18.5546875000,-60.1654052734
2.0910348892,-0.6191406250,-0.2055664062,-0.0537109375,-30.9295654297,-18.5546875000,-67.9779052734
2.0938160419,-0.6191406250,-0.2055664062,-0.0537109375,-30.3955078125,-18.5241699219,-68.2067871094
2.0967299938,-0.6562500000,-0.1401367188,-0.0654296875,-30.3955078125,-17.2424316406,-75.8514404297
2.0999670029,-0.6562500000,-0.1401367188,-0.0654296875,-28.0456542969,-17.2424316406,-75.8514404297
2.1026771069,-0.6562500000,-0.1401367188,-0.0654296875,-24.1394042969,-15.0756835938,-83.8165283203
2.1053800583,-0.6562500000,-0.1401367188,-0.0654296875,-24.0631103516,-15.0756835938,-83.8165283203
2.1080811024,-0.6928710938,-0.1064453125,-0.0664062500,-24.0631103516,-11.7187500000,-90.8355712891
2.1106591225,-0.6928710938,-0.1064453125,-0.0664062500,-17.9748535156,-11.7187500000,-90.8355712891
2.1132380962,-0.6928710938,-0.1064453125,-0.0664062500,-17.9748535156,-11.7187500000,-97.3205566406
2.1158161163,-0.6928710938,-0.1064453125,-0.0668945312,-11.6424560547,-9.1247558594,-97.3205566406
2.1184310913,-0.7246093750,-0.1181640625,-0.0668945312,-11.6424560547,-9.1247558594,-102.8137207031
2.1210019588,-0.7246093750,-0.1181640625,-0.0668945312,-5.7525634766,-6.7901611328,-102.8137207031
2.1235671043,-0.7246093750,-0.1181640625,-0.0668945312,-5.7525634766,-6.7901611328,-102.8137207031
2.1261301041,-0.7246093750,-0.2431640625,-0.0454101562,-1.7852783203,-4.5928955078,-107.1777343750
2.1298620701,-0.7661132812,-0.1372070312,-0.0454101562,-1.7852783203,-3.0364990234,-110.9466552734
2.1324329376,-0.7661132812,-0.1372070312,-0.0454101562,1.1749267578,-3.0364990234,-110.9466552734
2.1349999905,-0.7661132812,-0.1372070312,-0.0454101562,1.1749267578,-3.0364990234,-114.4409179688
2.1375648975,-0.7802734375,-0.0942382812,-0.0117187500,4.3029785156,-2.0446777344,-114.4409179688
2.1401419640,-0.7802734375,-0.0942382812,-0.0117187500,4.3029785156,-2.0446777344,-118.3471679688
2.1427080631,-0.7802734375,-0.0942382812,-0.0117187500,7.7972412109,-1.5106201172,-117.5994873047
2.1452720165,-0.7802734375,-0.0942382812,-0.0117187500,7.7972412109,-1.5106201172,-117.5994873047
2.1479299068,-0.7841796875,-0.0322265625,0.0009765625,12.3748779297,-1.0681152344,-120.8190917969
2.1505029202,-0.7841796875,-0.0322265625,0.0009765625,12.3748779297,-1.0681152344,-120.8190917969
2.1530721188,-0.7841796875,-0.0322265625,0.0009765625,17.4713134766,-1.6174316406,-123.0621337891
2.1556420326,-0.7841796875,-0.0322265625,0.0009765625,17.4713134766,-1.6174316406,-123.0621337891
2.1582169533,-0.7939453125,0.0092773438,0.0209960938,23.1475830078,-2.6245117188,-125.5340576172
2.1607880592,-0.7939453125,0.0092773438,0.0209960938,23.1475830078,-2.6245117188,-125.5340576172
2.1634690762,-0.7939453125,0.0092773438,0.0209960938,29.0069580078,-3.5247802734,-128.2653808594
2.1660399437,-0.7939453125,0.0092773438,0.0209960938,29.0069580078,-3.5247802734,-128.2653808594
2.1686239243,-0.8071289062,0.0273437500,0.0292968750,34.0576171875,-5.1269531250,-130.4779052734
2.1711990833,-0.8071289062,0.0273437500,0.0292968750,34.0576171875,-5.1269531250,-130.4779052734
2.1737730503,-0.8071289062,0.0273437500,0.0292968750,39.1082763672,-6.4697265625,-132.8430175781
2.1763451099,-0.8071289062,0.0273437500,0.0341796875,39.1082763672,-6.4697265625,-132.8430175781
2.1790790558,-0.8442382812,0.0200195312,0.0341796875,43.0145263672,-7.3699951172,-134.3994140625
2.1816520691,-0.8442382812,0.0200195312,0.0341796875,43.7011718750,-7.3699951172,-134.3994140625
2.1842288971,-0.8442382812,0.0200195312,0.0341796875,43.7011718750,-8.2550048828,-135.8337402344
2.1868031025,-0.8442382812,0.0419921875,0.0205078125,47.0275878906,-8.2550048828,-135.8337402344
2.1895489693,-0.8637695312,0.0419921875,0.0205078125,47.0275878906,-8.2550048828,-136.3983154297
2.1922569275,-0.8637695312,0.0419921875,0.0205078125,49.3927001953,-8.1329345703,-136.3983154297
2.1949629784,-0.8637695312,0.0419921875,0.0205078125,49.3927001953,-8.1329345703,-135.5285644531
2.1976780891,-0.8779296875,0.0820312500,-0.0048828125,51.7883300781,-8.0871582031,-135.5285644531
2.2003800869,-0.8779296875,0.0820312500,-0.0048828125,51.7883300781,-8.0871582031,-133.3923339844
2.2030880451,-0.8779296875,0.0820312500,-0.0048828125,53.1158447266,-8.5754394531,-133.3923339844
2.2057979107,-0.8779296875,0.0820312500,-0.0048828125,53.1158447266,-8.5754394531,-130.7525634766
2.2084739208,-0.8750000000,0.1171875000,0.0000000000,52.2003173828,-8.8806152344,-130.7525634766
2.2110469341,-0.8750000000,0.1171875000,0.0000000000,52.2003173828,-8.8806152344,-127.5329589844
2.2136199474,-0.8750000000,0.1171875000,0.0000000000,51.4831542969,-9.5062255859,-127.5329589844
2.2161951065,-0.8750000000,0.1171875000,0.0000000000,51.4831542969,-9.5062255859,-123.6267089844
2.2188279629,-0.8525390625,0.1132812500,0.0180664062,51.0711669922,-10.4370117188,-124.6337890625
2.2215399742,-0.8525390625,0.1132812500,0.0180664062,51.0711669922,-10.4370117188,-124.6337890625
2.2242510319,-0.8525390625,0.1132812500,0.0180664062,50.2929687500,-12.3291015625,-121.9787597656
2.2270729542,-0.8525390625,0.1132812500,0.0498046875,50.2929687500,-12.3291015625,-118.0725097656
2.2298779488,-0.8212890625,0.0883789062,0.0498046875,50.0793457031,-14.1448974609,-119.2932128906
2.2325880527,-0.8212890625,0.0883789062,0.0498046875,50.0793457031,-14.1448974609,-119.2932128906
2.2352991104,-0.8212890625,0.0883789062,0.0498046875,49.7741699219,-15.8538818359,-117.3400878906
2.2380249500,-0.8149414062,0.0253906250,0.0371093750,49.7741699219,-15.8538818359,-113.4338378906
2.2407310009,-0.8149414062,0.0253906250,0.0371093750,49.5605468750,-16.6473388672,-116.1499023438
2.2434461117,-0.8149414062,0.0253906250,0.0371093750,49.5605468750,-16.6473388672,-113.7695312500
2.2462739944,-0.8149414062,0.0253906250,0.0371093750,48.9959716797,-16.6015625000,-113.7695312500
2.2491641045,-0.8256835938,-0.0068359375,0.0166015625,48.9959716797,-16.6015625000,-111.2365722656
2.2517540455,-0.8256835938,-0.0068359375,0.0166015625,47.8668212891,-15.9149169922,-111.2365722656
2.2543299198,-0.8256835938,-0.0068359375,0.0166015625,47.8668212891,-15.9149169922,-107.3303222656
2.2569069862,-0.8256835938,-0.0068359375,0.0166015625,45.9899902344,-15.7775878906,-108.9782714844
2.2595539093,-0.8276367188,-0.0019531250,0.0009765625,45.9899902344,-15.7775878906,-108.9782714844
2.2621259689,-0.8276367188,-0.0019531250,0.0009765625,43.4417724609,-14.7247314453,-106.0791015625
2.2646989822,-0.8276367188,-0.0019531250,0.0009765625,43.4417724609,-14.7247314453,-106.0791015625
2.2672669888,-0.8276367188,-0.0019531250,0.0117187500,41.3055419922,-14.8468017578,-103.2714843750
2.2698988914,-0.8237304688,0.0166015625,0.0117187500,41.3055419922,-14.8468017578,-103.2714843750
2.2724719048,-0.8237304688,0.0166015625,0.0117187500,38.7268066406,-14.6026611328,-99.4720458984
2.2750439644,-0.8237304688,0.0166015625,0.0117187500,38.7268066406,-14.6026611328,-99.4720458984
2.2776191235,-0.8237304688,0.0166015625,0.0068359375,35.1104736328,-14.5111083984,-95.6726074219
2.2801918983,-0.8100585938,0.0273437500,0.0068359375,35.1104736328,-14.5111083984,-95.6726074219
2.2827639580,-0.8100585938,0.0273437500,0.0068359375,30.3649902344,-14.0075683594,-91.8884277344
2.2853391171,-0.8100585938,0.0273437500,0.0068359375,30.3649902344,-14.0075683594,-91.8884277344
2.2879679203,-0.8100585938,0.0268554688,0.0029296875,26.4892578125,-13.4887695312,-88.5009765625
2.2906489372,-0.7836914062,0.0268554688,0.0029296875,26.4892578125,-13.4887695312,-88.5009765625
2.2932190895,-0.7836914062,0.0268554688,0.0029296875,22.5830078125,-12.9852294922,-84.4573974609
2.2957921028,-0.7836914062,0.0268554688,0.0029296875,21.4996337891,-12.9852294922,-84.4573974609
2.2985200882,-0.7724609375,0.0361328125,-0.0126953125,21.4996337891,-12.9852294922,-79.9407958984
2.3010981083,-0.7724609375,0.0361328125,-0.0126953125,16.5405273438,-12.3291015625,-79.9407958984
2.3036749363,-0.7724609375,0.0361328125,-0.0126953125,16.5405273438,-12.3291015625,-76.0650634766
2.3062551022,-0.7724609375,0.0361328125,-0.0126953125,11.0931396484,-11.5509033203,-76.0650634766
2.3089349270,-0.7705078125,0.0439453125,-0.0141601562,11.0931396484,-11.5509033203,-71.9451904297
2.3115088940,-0.7705078125,0.0439453125,-0.0141601562,5.8898925781,-10.6658935547,-71.9451904297
2.3140819073,-0.7705078125,0.0439453125,-0.0141601562,5.8898925781,-10.6658935547,-71.9451904297
2.3166549206,-0.7705078125,0.0439453125,-0.0141601562,0.1983642578,-9.8114013672,-68.2983398438
2.3193109035,-0.7495117188,0.0625000000,-0.0288085938,0.1983642578,-9.8114013672,-68.2983398438
2.3220140934,-0.7495117188,0.0625000000,-0.0288085938,-5.2337646484,-9.4757080078,-63.9648437500
2.3247199059,-0.7495117188,0.0625000000,-0.0288085938,-5.2337646484,-9.4757080078,-63.9648437500
2.3274230957,-0.7495117188,0.0625000000,-0.0288085938,-10.4064941406,-9.5214843750,-59.8144531250
2.3300499916,-0.7270507812,0.0854492188,-0.0292968750,-10.4064941406,-9.5214843750,-59.8144531250
2.3326210976,-0.7270507812,0.0854492188,-0.0292968750,-14.7552490234,-9.2468261719,-56.2286376953
2.3351969719,-0.7270507812,0.0854492188,-0.0292968750,-14.7552490234,-9.2468261719,-56.2286376953
2.3377709389,-0.7270507812,0.0854492188,-0.0292968750,-18.9971923828,-9.2620849609,-53.2379150391
2.3403499126,-0.7070312500,0.1064453125,-0.0439453125,-18.9971923828,-9.2620849609,-53.2379150391
2.3429210186,-0.7070312500,0.1064453125,-0.0439453125,-22.7966308594,-9.1400146484,-50.3845214844
2.3454859257,-0.7070312500,0.1064453125,-0.0439453125,-22.7966308594,-9.1400146484,-50.3845214844
2.3481690884,-0.7070312500,0.1064453125,-0.0385742188,-27.0538330078,-8.4991455078,-47.3785400391
2.3507618904,-0.6923828125,0.1245117188,-0.0385742188,-27.0538330078,-8.4991455078,-47.3785400391
2.3534359932,-0.6923828125,0.1245117188,-0.0385742188,-31.4636230469,-7.8277587891,-44.6929931641
2.3560039997,-0.6923828125,0.1245117188,-0.0385742188,-31.4636230469,-7.8277587891,-44.6929931641
2.3586020470,-0.6923828125,0.1250000000,-0.0317382812,-35.3698730469,-7.0037841797,-42.4194335938
2.3611741066,-0.6894531250,0.1250000000,-0.0317382812,-35.4766845703,-7.0037841797,-42.4194335938
2.3638639450,-0.6894531250,0.1250000000,-0.0317382812,-35.4766845703,-5.6152343750,-40.3594970703
2.3665339947,-0.6894531250,0.1250000000,-0.0317382812,-40.7562255859,-5.6152343750,-40.3594970703
2.3695390224,-0.6865234375,0.1250000000,-0.0180664062,-48.5687255859,-4.4097900391,-37.7960205078
2.3721070290,-0.6865234375,0.1250000000,-0.0180664062,-47.4243164062,-4.4097900391,-37.7960205078
2.3746778965,-0.6865234375,0.1250000000,-0.0180664062,-47.4243164062,-0.5035400391,-34.7747802734
2.3772459030,-0.6865234375,0.1250000000,-0.0180664062,-54.5959472656,-3.4332275391,-34.7747802734
2.3798799515,-0.6767578125,0.1396484375,0.0136718750,-54.5959472656,-3.4332275391,-31.1737060547
2.3824470043,-0.6767578125,0.1396484375,0.0136718750,-60.6842041016,-2.8381347656,-31.1737060547
2.3850169182,-0.6767578125,0.1396484375,0.0136718750,-60.6842041016,-2.8381347656,-31.1737060547
2.3875861168,-0.6767578125,0.1396484375,0.0136718750,-65.6280517578,-2.7618408203,-27.7404785156
2.3901600838,-0.6640625000,0.1689453125,0.0449218750,-65.6280517578,-2.7618408203,-27.7404785156
2.3927249908,-0.6640625000,0.1689453125,0.0449218750,-69.5343017578,-2.9754638672,-24.6276855469
2.3952949047,-0.6640625000,0.1689453125,0.0449218750,-69.5343017578,-2.9754638672,-24.6276855469
2.3979139328,-0.6640625000,0.1689453125,0.0449218750,-72.0214843750,-3.6926269531,-21.1334228516
2.4004859924,-0.6572265625,0.2080078125,0.0673828125,-72.0214843750,-3.6926269531,-21.1334228516
2.4030530453,-0.6572265625,0.2080078125,0.0673828125,-73.7762451172,-4.2114257812,-17.8833007812
2.4056229591,-0.6572265625,0.2080078125,0.0673828125,-73.7762451172,-4.2114257812,-17.8833007812
2.4082090855,-0.6572265625,0.2080078125,0.0673828125,-74.0814208984,-4.6844482422,-14.7399902344
2.4107820988,-0.6708984375,0.2314453125,0.0922851562,-74.0814208984,-4.6844482422,-14.7399902344
2.4133539200,-0.6708984375,0.2314453125,0.0922851562,-72.6776123047,-5.6762695312,-11.5966796875
2.4160211086,-0.6708984375,0.2314453125,0.0922851562,-72.6776123047,-5.6762695312,-11.5966796875
2.4186930656,-0.6708984375,0.2314453125,0.1220703125,-70.0225830078,-6.6528320312,-9.0026855469
2.4212639332,-0.6689453125,0.2592773438,0.1220703125,-70.0225830078,-6.6528320312,-9.0026855469
2.4238319397,-0.6689453125,0.2592773438,0.1220703125,-70.0225830078,-7.5683593750,-6.2866210938
2.4263989925,-0.6689453125,0.2592773438,0.1220703125,-66.8640136719,-7.5683593750,-6.2866210938
2.4291169643,-0.6689453125,0.2763671875,0.1293945312,-66.8640136719,-7.9803466797,-3.4332275391
2.4318180084,-0.6547851562,0.2763671875,0.1293945312,-63.0340576172,-7.9803466797,-3.4332275391
2.4345130920,-0.6547851562,0.2763671875,0.1293945312,-63.0340576172,-9.7503662109,-0.9155273438
2.4373290539,-0.6547851562,0.2763671875,0.1293945312,-57.4951171875,-9.7503662109,-0.9155273438
2.4401230812,-0.6523437500,0.2666015625,0.1474609375,-53.5888671875,-11.5203857422,1.6937255859
2.4427978992,-0.6523437500,0.2666015625,0.1474609375,-51.9256591797,-11.5203857422,1.6937255859
2.4456140995,-0.6523437500,0.2666015625,0.1474609375,-44.1131591797,-12.6953125000,4.4403076172
2.4482300282,-0.6523437500,0.2666015625,0.1474609375,-46.4935302734,-12.6953125000,4.4403076172
2.4507989883,-0.6572265625,0.2534179688,0.1611328125,-46.4935302734,-12.6953125000,7.7056884766
2.4533689022,-0.6572265625,0.2534179688,0.1611328125,-41.0766601562,-14.6636962891,7.7056884766
2.4559390545,-0.6572265625,0.2534179688,0.1611328125,-41.0766601562,-14.6636962891,10.4827880859
2.4585630894,-0.6572265625,0.2534179688,0.1611328125,-36.2396240234,-17.2424316406,10.4827880859
2.4611339569,-0.6484375000,0.2416992188,0.1621093750,-36.2396240234,-17.2424316406,14.3890380859
2.4637079239,-0.6484375000,0.2416992188,0.1621093750,-32.0281982422,-18.5852050781,12.8784179688
2.4662809372,-0.6484375000,0.2416992188,0.1621093750,-32.0281982422,-18.5852050781,12.8784179688
2.4688611031,-0.6484375000,0.2416992188,0.1621093750,-27.9998779297,-20.4620361328,16.3116455078
2.4714379311,-0.6542968750,0.2363281250,0.1499023438,-27.9998779297,-20.4620361328,16.3116455078
2.4740130901,-0.6542968750,0.2363281250,0.1499023438,-25.0091552734,-22.6135253906,20.2636718750
2.4765839577,-0.6542968750,0.2363281250,0.1499023438,-25.0091552734,-22.6135253906,20.2636718750
2.4791688919,-0.6542968750,0.2363281250,0.1904296875,-25.0701904297,-26.5960693359,22.2167968750
2.4818561077,-0.7055664062,0.1259765625,0.1904296875,-25.0701904297,-26.5960693359,22.2167968750
2.4844350815,-0.7055664062,0.1259765625,0.1904296875,-25.8789062500,-28.0456542969,23.0712890625
2.4870140553,-0.7055664062,0.1259765625,0.1904296875,-25.8789062500,-28.0456542969,23.0712890625
2.4896669388,-0.7055664062,0.1259765625,-0.0185546875,-17.8833007812,-23.3306884766,27.9998779297
2.4922499657,-0.8344726562,0.1489257812,-0.0185546875,-17.8833007812,-23.3306884766,27.9998779297
2.4948348999,-0.8344726562,0.1489257812,-0.0185546875,-18.3410644531,-19.3481445312,35.3088378906
2.4974129200,-0.8344726562,0.1489257812,-0.0185546875,-18.3410644531,-19.3481445312,35.3088378906
2.5002129078,-0.9594726562,-0.0346679688,-0.1284179688,-31.2500000000,-12.1002197266,39.9627685547
2.5029139519,-0.8808593750,-0.0346679688,-0.1284179688,-31.2500000000,-12.1002197266,39.9627685547
2.5056231022,-0.8808593750,-0.0346679688,-0.1284179688,-39.7491455078,-2.5482177734,38.9709472656
2.5083498955,-0.8808593750,-0.0346679688,-0.1284179688,-39.7491455078,-2.5482177734,38.9709472656
2.5109291077,-0.8916015625,-0.5219726562,-0.3378906250,-43.6553955078,1.4953613281,35.4766845703
2.5135049820,-0.8916015625,-0.5219726562,-0.3378906250,-46.4477539062,1.4953613281,35.4766845703
2.5160748959,-0.8916015625,-0.5219726562,-0.3378906250,-46.4477539062,1.4953613281,32.5012207031
2.5186550617,-0.8916015625,-0.5219726562,-0.3378906250,-57.1746826172,0.5035400391,32.5012207031
2.5212280750,-0.8383789062,-0.6562500000,-0.2827148438,-57.1746826172,0.5035400391,31.7687988281
2.5237979889,-0.8383789062,-0.6562500000,-0.2827148438,-73.7304687500,-2.5939941406,31.7687988281
2.5263628960,-0.8383789062,-0.6562500000,-0.2827148438,-73.7304687500,-2.5939941406,31.7687988281
2.5289969444,-0.8383789062,-0.6562500000,-0.2827148438,-90.4083251953,-3.2348632812,30.7617187500
2.5315649509,-0.8750000000,-0.5136718750,-0.2802734375,-90.4083251953,-3.2348632812,30.7617187500
2.5341351032,-0.8750000000,-0.5136718750,-0.2802734375,-100.4486083984,0.0305175781,31.5551757812
2.5367069244,-0.8750000000,-0.5136718750,-0.2802734375,-100.4486083984,0.0305175781,31.5551757812
2.5394859314,-0.8750000000,-0.5136718750,-0.2802734375,-111.5264892578,-0.1983642578,36.4379882812
2.5420598984,-0.8100585938,-0.0922851562,-0.1547851562,-111.5264892578,-0.1983642578,40.3442382812
2.5456140041,-0.8100585938,-0.0922851562,-0.1547851562,-122.4212646484,-4.7912597656,41.7480468750
2.5482249260,-0.8100585938,-0.0922851562,-0.1547851562,-122.4212646484,-4.7912597656,45.6542968750
2.5508019924,-0.8071289062,0.1767578125,0.0092773438,-127.7770996094,-11.2609863281,46.4324951172
2.5533790588,-0.8071289062,0.1767578125,0.0092773438,-127.7770996094,-11.2609863281,46.4324951172
2.5559539795,-0.8071289062,0.1767578125,0.0092773438,-126.6937255859,-17.3950195312,51.6357421875
2.5585761070,-0.8071289062,0.1767578125,0.0092773438,-126.6937255859,-17.3950195312,51.6357421875
2.5611538887,-0.8583984375,0.2617187500,0.0571289062,-120.0408935547,-21.7437744141,56.8847656250
2.5637269020,-0.8583984375,0.2617187500,0.0571289062,-120.0408935547,-21.7437744141,56.8847656250
2.5663020611,-0.8583984375,0.2617187500,0.0571289062,-108.6578369141,-25.4211425781,59.9670410156
2.5689620972,-0.8583984375,0.2617187500,0.0571289062,-108.6578369141,-25.4211425781,59.9670410156
2.5715379715,-0.8715820312,0.1948242188,0.0385742188,-92.2241210938,-27.9235839844,59.5245361328
2.5741150379,-0.8715820312,0.1948242188,0.0385742188,-92.2241210938,-27.9235839844,59.5245361328
2.5766930580,-0.8715820312,0.1948242188,0.0385742188,-72.5860595703,-29.1137695312,58.5784912109
2.5793180466,-0.8715820312,0.1948242188,0.0385742188,-72.5860595703,-29.1137695312,58.5784912109
2.5818939209,-0.8535156250,0.1484375000,0.0029296875,-53.6346435547,-29.9835205078,56.4422607422
2.5844750404,-0.8535156250,0.1484375000,0.0029296875,-53.6346435547,-29.9835205078,56.4422607422
2.5870499611,-0.8535156250,0.1484375000,0.0029296875,-53.6346435547,-29.5867919922,54.3670654297
2.5896759033,-0.8535156250,0.1484375000,0.0029296875,-35.9191894531,-29.5867919922,54.3670654297
2.5922489166,-0.8198242188,0.1059570312,-0.0390625000,-35.9191894531,-29.5867919922,53.2073974609
2.5948200226,-0.8198242188,0.1059570312,-0.0390625000,-22.3846435547,-28.5797119141,53.2073974609
2.5973970890,-0.8198242188,0.1059570312,-0.0390625000,-22.3846435547,-28.5797119141,53.0548095703
2.6000530720,-0.8198242188,0.1059570312,-0.0390625000,-13.9465332031,-26.5655517578,53.0548095703
2.6026289463,-0.8017578125,0.0898437500,-0.0249023438,-13.9465332031,-26.5655517578,53.0548095703
2.6051969528,-0.8017578125,0.0898437500,-0.0249023438,-9.6893310547,-24.9328613281,53.9245605469
2.6079571247,-0.8017578125,0.0898437500,-0.0249023438,-9.6893310547,-24.9328613281,53.9245605469
2.6106669903,-0.8017578125,0.0898437500,0.0327148438,-7.6904296875,-23.8800048828,54.7180175781
2.6133720875,-0.7534179688,0.0659179688,0.0327148438,-7.6904296875,-23.8800048828,54.7180175781
2.6160728931,-0.7534179688,0.0659179688,0.0327148438,-5.1422119141,-23.2238769531,55.4656982422
2.6187870502,-0.7534179688,0.0659179688,0.0327148438,-5.1422119141,-23.2238769531,55.4656982422
2.6214890480,-0.7177734375,0.0527343750,0.0766601562,-2.6397705078,-23.1323242188,55.7098388672
2.6241910458,-0.7177734375,0.0527343750,0.0766601562,-2.6397705078,-23.1323242188,55.7098388672
2.6268999577,-0.7177734375,0.0527343750,0.0766601562,0.6103515625,-23.3612060547,55.2673339844
2.6296129227,-0.7177734375,0.0527343750,0.0766601562,0.6103515625,-23.3612060547,55.2673339844
2.6323180199,-0.6850585938,0.0302734375,0.0639648438,4.6386718750,-23.3154296875,53.7719726562
2.6350240707,-0.6850585938,0.0302734375,0.0639648438,4.6386718750,-23.3154296875,53.7719726562
2.6377379894,-0.6850585938,0.0302734375,0.0639648438,8.0261230469,-23.0560302734,51.3763427734
2.6403939724,-0.6850585938,0.0302734375,0.0639648438,8.0261230469,-23.0560302734,51.3763427734
2.6429650784,-0.6557617188,0.0541992188,0.0595703125,8.9263916016,-23.5900878906,50.2014160156
2.6455419064,-0.6557617188,0.0541992188,0.0595703125,8.9263916016,-23.5900878906,50.2014160156
2.6481800079,-0.6557617188,0.0541992188,0.0595703125,2.7313232422,-26.1230468750,50.8117675781
2.6508860588,-0.6557617188,0.0541992188,0.1225585938,2.7313232422,-26.1230468750,50.8117675781
2.6536240578,-0.6816406250,0.0751953125,0.1225585938,-4.9133300781,-28.5797119141,50.2624511719
2.6565129757,-0.6816406250,0.0751953125,0.1225585938,-4.9133300781,-28.5797119141,48.8739013672
2.6600749493,-0.6816406250,0.0751953125,0.1225585938,-10.0402832031,-30.1208496094,48.8739013672
2.6626479626,-0.7011718750,0.0190429688,0.1381835938,-10.0402832031,-30.1208496094,48.8739013672
2.6652250290,-0.7011718750,0.0190429688,0.1381835938,-14.9841308594,-30.4260253906,47.6226806641
2.6677989960,-0.7011718750,0.0190429688,0.1381835938,-14.9841308594,-30.4260253906,47.6226806641
2.6703760624,-0.7011718750,0.0190429688,0.1381835938,-20.4010009766,-30.1208496094,45.7000732422
2.6730639935,-0.6884765625,0.0288085938,0.1372070312,-20.4010009766,-30.1208496094,45.7000732422
2.6756360531,-0.6884765625,0.0288085938,0.1372070312,-24.0783691406,-29.8767089844,43.5791015625
2.6782150269,-0.6884765625,0.0288085938,0.1372070312,-24.0783691406,-29.8767089844,43.5791015625
2.6807909012,-0.6884765625,0.0288085938,0.1372070312,-25.5889892578,-29.3579101562,42.2668457031
2.6833660603,-0.7094726562,0.0942382812,0.1069335938,-25.5889892578,-29.3579101562,42.2668457031
2.6859381199,-0.7094726562,0.0942382812,0.1069335938,-24.0478515625,-28.8696289062,40.8172607422
2.6885859966,-0.7094726562,0.0942382812,0.1069335938,-24.0478515625,-28.8696289062,40.8172607422
2.6911580563,-0.7094726562,0.0942382812,0.1069335938,-21.1334228516,-27.9846191406,39.3066406250
2.6937320232,-0.7446289062,0.1528320312,0.0908203125,-21.1334228516,-27.9846191406,39.3066406250
2.6963078976,-0.7446289062,0.1528320312,0.0908203125,-17.2729492188,-28.0303955078,37.2619628906
2.6989510059,-0.7446289062,0.1528320312,0.0908203125,-17.2729492188,-28.0303955078,37.2619628906
2.7015230656,-0.7446289062,0.1528320312,0.0507812500,-9.4604492188,-28.4576416016,34.6069335938
2.7040979862,-0.7558593750,0.1601562500,0.0507812500,-10.7421875000,-28.4576416016,34.6069335938
2.7066729069,-0.7558593750,0.1601562500,0.0507812500,-10.7421875000,-28.4576416016,32.2113037109
2.7092840672,-0.7558593750,0.1601562500,0.0507812500,-1.5411376953,-27.9693603516,32.2113037109
2.7118520737,-0.7558593750,0.1967773438,0.0117187500,-1.5411376953,-27.9693603516,30.5480957031
2.7144229412,-0.7670898438,0.1967773438,0.0117187500,8.4533691406,-26.8707275391,30.5480957031
2.7169880867,-0.7670898438,0.1967773438,0.0117187500,8.4533691406,-26.8707275391,30.5480957031
2.7196729183,-0.7670898438,0.1967773438,0.0117187500,18.2800292969,-27.1759033203,28.5644531250
2.7222459316,-0.7670898438,0.1591796875,-0.0039062500,18.2800292969,-27.1759033203,28.5644531250
2.7248198986,-0.7915039062,0.1591796875,-0.0039062500,25.8331298828,-27.6184082031,26.9012451172
2.7273941040,-0.7915039062,0.1591796875,-0.0039062500,25.8331298828,-27.6184082031,26.9012451172
2.7299740314,-0.7915039062,0.1591796875,-0.0039062500,30.6701660156,-27.4963378906,25.5432128906
2.7325479984,-0.8193359375,0.0708007812,0.0175781250,30.6701660156,-27.4963378906,25.5432128906
2.7352409363,-0.8193359375,0.0708007812,0.0175781250,32.0739746094,-27.7252197266,25.1464843750
2.7378220558,-0.8193359375,0.0708007812,0.0175781250,32.0739746094,-27.7252197266,25.1464843750
2.7405309677,-0.8193359375,0.0708007812,0.0175781250,29.9835205078,-27.5726318359,25.0854492188
2.7432420254,-0.7817382812,0.0278320312,0.0375976562,29.9835205078,-27.5726318359,25.0854492188
2.7459459305,-0.7817382812,0.0278320312,0.0375976562,25.4669189453,-27.4658203125,25.1922607422
2.7486619949,-0.7817382812,0.0278320312,0.0375976562,25.4669189453,-27.4658203125,25.1922607422
2.7513699532,-0.7817382812,0.0278320312,0.0375976562,19.5617675781,-27.3437500000,25.0244140625
2.7540760040,-0.7490234375,0.0288085938,0.0913085938,19.5617675781,-27.3437500000,25.0244140625
2.7567830086,-0.7490234375,0.0288085938,0.0913085938,13.4124755859,-27.0996093750,25.1007080078
2.7594969273,-0.7490234375,0.0288085938,0.0913085938,13.4124755859,-27.0996093750,25.1007080078
2.7622070312,-0.7490234375,0.0288085938,0.1171875000,9.4146728516,-27.0843505859,24.5666503906
2.7649159431,-0.7236328125,0.0332031250,0.1171875000,9.4146728516,-27.0843505859,24.5666503906
2.7676229477,-0.7236328125,0.0332031250,0.1171875000,6.9122314453,-26.5197753906,23.4527587891
2.7702519894,-0.7236328125,0.0332031250,0.1171875000,6.9122314453,-26.5197753906,23.4527587891
2.7728219032,-0.7236328125,0.0820312500,0.1503906250,6.8206787109,-25.3753662109,22.9339599609
2.7756230831,-0.7250976562,0.0820312500,0.1503906250,6.8206787109,-25.3753662109,22.9339599609
2.7784509659,-0.7250976562,0.0820312500,0.1503906250,9.4909667969,-23.5290527344,21.6522216797
2.7811651230,-0.7250976562,0.0820312500,0.1503906250,9.4909667969,-23.5290527344,21.6522216797
2.7838759422,-0.7451171875,0.1625976562,0.1215820312,15.4418945312,-21.3012695312,20.3247070312
2.7865829468,-0.7451171875,0.1625976562,0.1215820312,15.4418945312,-21.3012695312,20.3247070312
2.7893040180,-0.7451171875,0.1625976562,0.1215820312,21.6217041016,-20.4162597656,19.2260742188
2.7920119762,-0.7451171875,0.1625976562,0.1215820312,21.6217041016,-20.4162597656,19.2260742188
2.7947180271,-0.7680664062,0.1469726562,0.1054687500,27.0996093750,-20.3247070312,17.3492431641
2.7974269390,-0.7680664062,0.1469726562,0.1054687500,27.0996093750,-20.3247070312,17.3492431641
2.8002929688,-0.7680664062,0.1469726562,0.1054687500,31.1584472656,-20.5993652344,15.7470703125
2.8030068874,-0.7680664062,0.0659179688,0.1035156250,31.1584472656,-20.5993652344,15.7470703125
2.8057169914,-0.7602539062,0.0659179688,0.1035156250,34.7595214844,-20.2941894531,14.5568847656
2.8084099293,-0.7602539062,0.0659179688,0.1035156250,34.7595214844,-20.2941894531,14.5568847656
2.8109869957,-0.7602539062,0.0659179688,0.1035156250,36.5905761719,-18.7683105469,13.5803222656
2.8135600090,-0.7519531250,0.0468750000,0.1166992188,36.5905761719,-18.7683105469,13.5803222656
2.8161408901,-0.7519531250,0.0468750000,0.1166992188,36.3769531250,-17.6849365234,13.7634277344
2.8187611103,-0.7519531250,0.0468750000,0.1166992188,36.3769531250,-17.6849365234,13.7634277344
2.8213410378,-0.7519531250,0.0468750000,0.1166992188,32.4707031250,-17.7154541016,14.1601562500
2.8239209652,-0.7426757812,0.0371093750,0.1103515625,33.4167480469,-17.7154541016,14.1601562500
2.8264980316,-0.7426757812,0.0371093750,0.1103515625,29.5104980469,-17.9138183594,14.1296386719
2.8292510509,-0.7426757812,0.0371093750,0.1103515625,29.9835205078,-17.9138183594,14.1296386719
2.8318281174,-0.7426757812,0.0371093750,0.1103515625,29.9835205078,-17.9138183594,13.5498046875
2.8344070911,-0.7407226562,0.0439453125,0.1098632812,28.3508300781,-16.9525146484,13.5498046875
2.8369820118,-0.7407226562,0.0439453125,0.1098632812,28.3508300781,-16.9525146484,12.4359130859
2.8397629261,-0.7407226562,0.0439453125,0.1098632812,30.2581787109,-15.6860351562,12.4359130859
2.8424570560,-0.7407226562,0.0439453125,0.1098632812,30.2581787109,-15.6860351562,11.7797851562
2.8451449871,-0.7607421875,0.1083984375,0.0737304688,33.0963134766,-14.9383544922,11.7797851562
2.8478360176,-0.7607421875,0.1083984375,0.0737304688,33.0963134766,-14.9383544922,11.1236572266
2.8505239487,-0.7607421875,0.1083984375,0.0737304688,34.5306396484,-15.9454345703,11.1236572266
2.8532190323,-0.7607421875,0.0717773438,0.0527343750,34.5306396484,-15.9454345703,9.8724365234
2.8559110165,-0.7558593750,0.0717773438,0.0527343750,35.2478027344,-16.4489746094,9.8724365234
2.8586089611,-0.7558593750,0.0717773438,0.0527343750,35.2478027344,-16.4489746094,9.2315673828
2.8612940311,-0.7558593750,0.0717773438,0.0527343750,35.4156494141,-16.2963867188,9.2315673828
2.8640940189,-0.7490234375,0.0488281250,0.0844726562,35.4156494141,-16.2963867188,9.6588134766
2.8667840958,-0.7490234375,0.0488281250,0.0844726562,34.0270996094,-15.8081054688,9.6588134766
2.8694839478,-0.7490234375,0.0488281250,0.0844726562,34.0270996094,-15.8081054688,9.8724365234
2.8721721172,-0.7490234375,0.0488281250,0.0844726562,31.7535400391,-15.6250000000,9.8724365234
2.8748579025,-0.7231445312,0.0644531250,0.1118164062,31.7535400391,-15.6250000000,9.8724365234
2.8775460720,-0.7231445312,0.0644531250,0.1118164062,30.1818847656,-15.1824951172,9.6893310547
2.8802530766,-0.7231445312,0.0644531250,0.1118164062,30.1818847656,-15.1824951172,9.6893310547
2.8829391003,-0.7231445312,0.0644531250,0.2368164062,29.7698974609,-14.9230957031,9.3688964844
2.8856270313,-0.7143554688,0.0878906250,0.1425781250,29.7698974609,-14.9230957031,9.3688964844
2.8883631229,-0.7143554688,0.0878906250,0.1425781250,30.0445556641,-14.3280029297,8.9263916016
2.8910520077,-0.7143554688,0.0878906250,0.1425781250,30.0445556641,-14.3280029297,8.9263916016
2.8937709332,-0.7143554688,0.0781250000,0.1669921875,31.4788818359,-13.6718750000,8.2092285156
2.8966650963,-0.7006835938,0.0781250000,0.1669921875,31.4788818359,-13.6718750000,7.6599121094
2.8995199203,-0.7006835938,0.0781250000,0.1669921875,34.0118408203,-13.1988525391,7.6599121094
2.9022099972,-0.7006835938,0.0781250000,0.1669921875,34.0118408203,-13.1988525391,7.2784423828
2.9048969746,-0.7099609375,0.0317382812,0.1523437500,35.5834960938,-12.2528076172,7.2784423828
2.9075889587,-0.7099609375,0.0317382812,0.1523437500,35.5834960938,-12.2528076172,7.3852539062
2.9102809429,-0.7099609375,0.0317382812,0.1523437500,36.3464355469,-11.9018554688,7.3852539062
2.9129710197,-0.7099609375,0.0317382812,0.1523437500,36.3464355469,-11.9018554688,11.2915039062
2.9156661034,-0.7021484375,0.0029296875,0.1528320312,35.7971191406,-12.1002197266,8.4686279297
2.9183650017,-0.7021484375,0.0029296875,0.1528320312,35.7971191406,-12.1002197266,9.0179443359
2.9211649895,-0.7021484375,0.0029296875,0.1528320312,33.9050292969,-11.9018554688,9.0179443359
2.9237411022,-0.7021484375,0.0029296875,0.1635742188,33.9050292969,-11.9018554688,9.0179443359
2.9263150692,-0.7026367188,0.0024414062,0.1635742188,31.9519042969,-10.9863281250,9.2010498047
2.9290530682,-0.7026367188,0.0024414062,0.1635742188,31.9519042969,-10.9863281250,9.2010498047
2.9316248894,-0.7026367188,0.0024414062,0.1635742188,30.1055908203,-10.1776123047,9.9639892578
2.9342050552,-0.7026367188,0.0258789062,0.1650390625,30.1055908203,-10.1776123047,9.9639892578
2.9367790222,-0.6948242188,0.0258789062,0.1650390625,27.9541015625,-9.7198486328,11.2457275391
2.9393570423,-0.6948242188,0.0258789062,0.1650390625,27.9541015625,-9.7198486328,11.2457275391
2.9419369698,-0.6948242188,0.0258789062,0.1650390625,26.0009765625,-9.7045898438,11.9628906250
2.9445140362,-0.6948242188,0.0351562500,0.1567382812,26.0009765625,-9.7045898438,11.9628906250
2.9471850395,-0.6992187500,0.0351562500,0.1567382812,24.5666503906,-9.2468261719,12.1917724609
2.9501841068,-0.6992187500,0.0351562500,0.1567382812,24.5666503906,-9.2468261719,12.1917724609
2.9527540207,-0.6992187500,0.0351562500,0.1567382812,23.4375000000,-8.8195800781,12.3291015625
2.9553270340,-0.7026367188,0.0512695312,0.1445312500,23.4375000000,-8.8195800781,12.3291015625
2.9579629898,-0.7026367188,0.0512695312,0.1445312500,23.0102539062,-8.5601806641,13.3361816406
2.9605369568,-0.7026367188,0.0512695312,0.1445312500,23.0102539062,-8.5601806641,13.3361816406
2.9631080627,-0.7026367188,0.0512695312,0.1445312500,22.5067138672,-8.3160400391,13.9160156250
2.9656789303,-0.7055664062,0.0625000000,0.1503906250,22.5067138672,-8.3160400391,13.9160156250
2.9682569504,-0.7055664062,0.0625000000,0.1503906250,22.5067138672,-7.5378417969,13.9923095703
2.9708249569,-0.7055664062,0.0625000000,0.1503906250,21.3623046875,-7.5378417969,13.9923095703
2.9733989239,-0.7055664062,0.0625000000,0.1503906250,21.3623046875,-7.5378417969,14.5111083984
2.9759728909,-0.7192382812,0.0478515625,0.1284179688,20.5078125000,-7.4462890625,14.5111083984
2.9785900116,-0.7192382812,0.0478515625,0.1284179688,20.5078125000,-7.4462890625,15.8081054688
2.9811670780,-0.7192382812,0.0478515625,0.1284179688,19.5007324219,-6.8359375000,15.8081054688
2.9837419987,-0.7192382812,0.0478515625,0.1284179688,19.5007324219,-6.8359375000,15.8081054688
2.9863080978,-0.7265625000,0.0463867188,0.1201171875,18.5089111328,-7.1716308594,17.0135498047
2.9889400005,-0.7265625000,0.0463867188,0.1201171875,18.5089111328,-7.1716308594,17.0135498047
2.9916229248,-0.7265625000,0.0463867188,0.1201171875,17.6239013672,-7.8125000000,17.2424316406
2.9941980839,-0.7265625000,0.0463867188,0.1210937500,17.6239013672,-7.8125000000,17.2424316406
2.9967699051,-0.7241210938,0.0498046875,0.1210937500,17.1356201172,-7.4157714844,17.3034667969
2.9995219707,-0.7241210938,0.0498046875,0.1210937500,17.1356201172,-7.4157714844,17.3034667969
3.0021030903,-0.7241210938,0.0498046875,0.1210937500,16.4794921875,-6.8969726562,17.8833007812
3.0046749115,-0.7241210938,0.0732421875,0.1162109375,16.4794921875,-6.8969726562,17.8833007812
3.0072479248,-0.7211914062,0.0732421875,0.1162109375,15.9149169922,-6.6070556641,19.0124511719
3.0101048946,-0.7211914062,0.0732421875,0.1162109375,15.9149169922,-6.6070556641,19.0124511719
3.0128149986,-0.7211914062,0.0732421875,0.1162109375,15.5181884766,-6.0577392578,19.2871093750
3.0155169964,-0.7294921875,0.0942382812,0.1284179688,15.5181884766,-6.0577392578,19.2871093750
3.0182189941,-0.7294921875,0.0942382812,0.1284179688,15.2587890625,-5.8746337891,19.3939208984
3.0207970142,-0.7294921875,0.0942382812,0.1284179688,15.2587890625,-5.8746337891,19.3939208984
3.0233800411,-0.7294921875,0.0942382812,0.1284179688,14.4805908203,-5.5999755859,19.4396972656
3.0259509087,-0.7148437500,0.1020507812,0.1132812500,14.4805908203,-5.5999755859,19.4396972656
3.0286021233,-0.7148437500,0.1020507812,0.1132812500,13.9007568359,-5.3405761719,19.3634033203
3.0312969685,-0.7148437500,0.1020507812,0.1132812500,13.9007568359,-5.3405761719,19.3634033203
3.0339798927,-0.7148437500,0.1020507812,0.1132812500,14.5416259766,-4.8828125000,19.1192626953
3.0366690159,-0.7333984375,0.1127929688,0.1181640625,14.5416259766,-4.8828125000,19.1192626953
3.0393600464,-0.7333984375,0.1127929688,0.1181640625,14.8925781250,-4.2572021484,18.7530517578
3.0420300961,-0.7333984375,0.1127929688,0.1181640625,14.8925781250,-4.2572021484,18.7530517578
3.0446999073,-0.7333984375,0.1127929688,0.1132812500,15.1062011719,-3.7689208984,18.3105468750
3.0473699570,-0.7231445312,0.1323242188,0.1132812500,15.1062011719,-3.7689208984,18.3105468750
3.0500850677,-0.7231445312,0.1323242188,0.1132812500,15.8691406250,-4.0283203125,18.4783935547
3.0527939796,-0.7231445312,0.1323242188,0.1132812500,15.8691406250,-4.0283203125,18.4783935547
3.0555989742,-0.7231445312,0.1293945312,0.1215820312,16.6625976562,-4.2419433594,18.3563232422
3.0583178997,-0.7216796875,0.1293945312,0.1215820312,16.6625976562,-4.2419433594,18.3563232422
3.0610339642,-0.7216796875,0.1293945312,0.1215820312,17.5933837891,-3.8604736328,18.3868408203
3.0637559891,-0.7216796875,0.1293945312,0.1215820312,17.5933837891,-3.8604736328,18.3868408203
3.0665309429,-0.7177734375,0.1127929688,0.1235351562,18.4173583984,-3.9062500000,17.8375244141
3.0694849491,-0.7177734375,0.1127929688,0.1235351562,18.4173583984,-3.9062500000,17.8375244141
3.0720610619,-0.7177734375,0.1127929688,0.1235351562,19.2260742188,-3.9520263672,17.7917480469
3.0746340752,-0.7177734375,0.1127929688,0.1235351562,19.2260742188,-3.9520263672,17.7917480469
3.0772099495,-0.7265625000,0.1025390625,0.1230468750,19.6228027344,-4.2877197266,18.2495117188
3.0799050331,-0.7265625000,0.1025390625,0.1230468750,19.6228027344,-4.2877197266,18.2495117188
3.0826129913,-0.7265625000,0.1025390625,0.1230468750,19.4244384766,-4.4860839844,18.5546875000
3.0853199959,-0.7265625000,0.1025390625,0.1171875000,19.4244384766,-4.4860839844,18.5546875000
3.0880389214,-0.7148437500,0.0688476562,0.1171875000,19.4549560547,-3.8909912109,19.5465087891
3.0907449722,-0.7148437500,0.0688476562,0.1171875000,19.4549560547,-3.8909912109,19.5465087891
3.0934541225,-0.7148437500,0.0688476562,0.1171875000,18.5089111328,-3.3111572266,20.4315185547
3.0961689949,-0.7192382812,0.0678710938,0.1396484375,18.5089111328,-3.3111572266,20.4315185547
3.0988368988,-0.7192382812,0.0678710938,0.1396484375,18.5089111328,-3.3264160156,21.1181640625
3.1014211178,-0.7192382812,0.0678710938,0.1396484375,17.4255371094,-3.3264160156,21.1181640625
3.1039910316,-0.7192382812,0.0678710938,0.1396484375,17.4255371094,-3.3264160156,22.2625732422
3.1065618992,-0.7104492188,0.0810546875,0.1201171875,16.2963867188,-3.1585693359,22.2625732422
3.1091630459,-0.7104492188,0.0810546875,0.1201171875,16.2963867188,-3.1585693359,23.3306884766
3.1117379665,-0.7104492188,0.0810546875,0.1201171875,15.6402587891,-2.9296875000,23.3306884766
3.1143109798,-0.7104492188,0.0810546875,0.1201171875,15.6402587891,-2.9296875000,27.2369384766
3.1168880463,-0.7163085938,0.0815429688,0.1303710938,15.3198242188,-2.6550292969,24.5513916016
3.1197299957,-0.7163085938,0.0815429688,0.1303710938,15.3198242188,-2.6550292969,24.5513916016
3.1223149300,-0.7163085938,0.0815429688,0.1303710938,14.1754150391,-2.3803710938,25.6195068359
3.1248919964,-0.7163085938,0.0815429688,0.1303710938,14.1754150391,-2.3803710938,25.6195068359
3.1274640560,-0.7026367188,0.0966796875,0.1333007812,14.0228271484,-2.3345947266,26.2603759766
3.1303110123,-0.7026367188,0.0966796875,0.1333007812,14.0228271484,-2.3345947266,26.2603759766
3.1330211163,-0.7026367188,0.0966796875,0.1333007812,13.5040283203,-2.7618408203,27.2369384766
3.1357290745,-0.7026367188,0.0966796875,0.1323242188,13.5040283203,-2.7618408203,27.2369384766
3.1384499073,-0.7158203125,0.1137695312,0.1323242188,13.5650634766,-2.5787353516,28.4423828125
3.1411559582,-0.7158203125,0.1137695312,0.1323242188,13.5650634766,-2.5787353516,28.4423828125
3.1438660622,-0.7158203125,0.1137695312,0.1323242188,13.7481689453,-2.8381347656,29.5257568359
3.1465699673,-0.7055664062,0.1191406250,0.1206054688,13.7481689453,-2.8381347656,29.5257568359
3.1492819786,-0.7055664062,0.1191406250,0.1206054688,13.1225585938,-2.3803710938,30.4260253906
3.1519930363,-0.7055664062,0.1191406250,0.1206054688,13.1225585938,-2.3803710938,30.4260253906
3.1547000408,-0.7055664062,0.1191406250,0.1206054688,12.4359130859,-2.7313232422,31.1737060547
3.1574060917,-0.7099609375,0.1098632812,0.1206054688,12.4359130859,-2.7313232422,31.1737060547
3.1601219177,-0.7099609375,0.1098632812,0.1206054688,11.6729736328,-2.8839111328,31.7077636719
3.1628310680,-0.7099609375,0.1098632812,0.1206054688,11.6729736328,-2.8839111328,31.7077636719
3.1655440331,-0.7099609375,0.1098632812,0.1206054688,11.4593505859,-2.7618408203,32.9132080078
3.1682460308,-0.7143554688,0.0952148438,0.1240234375,11.4593505859,-2.7618408203,32.9132080078
3.1708199978,-0.7143554688,0.0952148438,0.1240234375,10.4522705078,-2.1820068359,34.4848632812
3.1733989716,-0.7143554688,0.0952148438,0.1240234375,10.4522705078,-2.1820068359,34.4848632812
3.1759729385,-0.7143554688,0.0952148438,0.1328125000,8.6059570312,-2.0599365234,35.6445312500
3.1785759926,-0.7119140625,0.0966796875,0.1328125000,8.6059570312,-2.0599365234,35.6445312500
3.1811499596,-0.7119140625,0.0966796875,0.1328125000,6.7138671875,-2.7008056641,36.0107421875
3.1837420464,-0.7119140625,0.0966796875,0.1328125000,6.7138671875,-2.7008056641,36.0107421875
3.1865460873,-0.7119140625,0.1162109375,0.1342773438,5.2032470703,-3.0212402344,36.6516113281
3.1894171238,-0.7094726562,0.1162109375,0.1342773438,5.2032470703,-3.0212402344,36.6516113281
3.1921200752,-0.7094726562,0.1162109375,0.1342773438,3.5858154297,-3.0212402344,37.4755859375
3.1948180199,-0.7094726562,0.1162109375,0.1342773438,3.5858154297,-3.0212402344,37.4755859375
3.1975181103,-0.6982421875,0.1284179688,0.1401367188,1.2817382812,-3.1280517578,37.5213623047
3.2002339363,-0.6982421875,0.1284179688,0.1401367188,1.2817382812,-3.1280517578,37.5213623047
3.2029359341,-0.6982421875,0.1284179688,0.1401367188,-0.0762939453,-3.3569335938,37.7349853516
3.2056350708,-0.6982421875,0.1284179688,0.1401367188,-0.0762939453,-3.3569335938,37.7349853516
3.2083880901,-0.7075195312,0.1796875000,0.1435546875,-0.3662109375,-2.7770996094,38.1622314453
3.2110810280,-0.7075195312,0.1796875000,0.1435546875,-0.3662109375,-2.7770996094,38.1622314453
3.2137861252,-0.7075195312,0.1796875000,0.1435546875,0.5340576172,-2.1667480469,37.7349853516
3.2164881229,-0.7075195312,0.1796875000,0.1245117188,0.5340576172,-2.1667480469,37.7349853516
3.2191329002,-0.7109375000,0.2260742188,0.1245117188,3.1433105469,-2.6550292969,37.0483398438
3.2217090130,-0.7109375000,0.2260742188,0.1245117188,3.1433105469,-2.6550292969,37.0483398438
3.2242801189,-0.7109375000,0.2260742188,0.1245117188,5.8593750000,-3.6315917969,36.2243652344
3.2268450260,-0.7109375000,0.2294921875,0.1093750000,5.8593750000,-3.6315917969,36.2243652344
3.2294259071,-0.7255859375,0.2294921875,0.1093750000,9.7656250000,-4.2724609375,35.4766845703
3.2319929600,-0.7255859375,0.2294921875,0.1093750000,8.2550048828,-4.2724609375,35.4766845703
3.2345631123,-0.7255859375,0.2294921875,0.1093750000,8.2550048828,-4.2724609375,34.9273681641
3.2371330261,-0.7255859375,0.2104492188,0.0903320312,9.3688964844,-4.1046142578,34.9273681641
3.2398390770,-0.7382812500,0.2104492188,0.0903320312,9.3688964844,-4.1046142578,34.8663330078
3.2424099445,-0.7382812500,0.2104492188,0.0903320312,10.2844238281,-4.0740966797,34.8663330078
3.2449789047,-0.7382812500,0.2104492188,0.0903320312,10.2844238281,-4.0740966797,38.7725830078
3.2475550175,-0.7338867188,0.1987304688,0.0751953125,10.8642578125,-4.2114257812,35.2020263672
3.2505040169,-0.7338867188,0.1987304688,0.0751953125,10.8642578125,-4.2114257812,35.4309082031
3.2532069683,-0.7338867188,0.1987304688,0.0751953125,10.6964111328,-4.5471191406,35.4309082031
3.2559149265,-0.7338867188,0.1987304688,0.0751953125,10.6964111328,-4.5471191406,35.5682373047
3.2586319447,-0.7397460938,0.1918945312,0.0781250000,11.0931396484,-3.6010742188,35.5682373047
3.2613339424,-0.7397460938,0.1918945312,0.0781250000,11.0931396484,-3.6010742188,36.0412597656
3.2640440464,-0.7397460938,0.1918945312,0.0781250000,11.8408203125,-3.0212402344,36.0412597656
3.2667469978,-0.7397460938,0.1918945312,0.0781250000,11.8408203125,-3.0212402344,36.8041992188
3.2694599628,-0.7333984375,0.1748046875,0.1015625000,12.1002197266,-2.2583007812,36.8041992188
3.2721669674,-0.7333984375,0.1748046875,0.1015625000,12.1002197266,-2.2583007812,36.8041992188
3.2748720646,-0.7333984375,0.1748046875,0.1015625000,12.1917724609,-1.7089843750,37.5518798828
3.2775819302,-0.7333984375,0.1655273438,0.1127929688,12.1917724609,-1.7089843750,37.5518798828
3.2801721096,-0.7036132812,0.1655273438,0.1127929688,12.0391845703,-2.2430419922,38.4674072266
3.2827389240,-0.7036132812,0.1655273438,0.1127929688,12.0391845703,-2.2430419922,38.4674072266
3.2853190899,-0.7036132812,0.1655273438,0.1127929688,12.1002197266,-2.3040771484,39.8406982422
3.2879559994,-0.7153320312,0.1718750000,0.1586914062,12.1002197266,-2.3040771484,39.8406982422
3.2906548977,-0.7153320312,0.1718750000,0.1586914062,12.9394531250,-1.8157958984,41.1529541016
3.2933659554,-0.7153320312,0.1718750000,0.1586914062,12.9394531250,-1.8157958984,41.1529541016
3.2960679531,-0.7153320312,0.1718750000,0.1586914062,13.9007568359,-0.9002685547,42.0074462891
3.2987909317,-0.7099609375,0.1635742188,0.1933593750,13.9007568359,-0.9002685547,42.0074462891
3.3014910221,-0.7099609375,0.1635742188,0.1933593750,14.8925781250,-0.7934570312,42.9992675781
3.3042809963,-0.7099609375,0.1635742188,0.1933593750,14.8925781250,-0.7934570312,42.9992675781
3.3069949150,-0.7099609375,0.1635742188,0.1933593750,15.2740478516,-1.7700195312,43.9300537109
3.3097040653,-0.7114257812,0.1601562500,0.1997070312,15.2740478516,-1.7700195312,43.9300537109
3.3124101162,-0.7114257812,0.1601562500,0.1997070312,15.3961181641,-2.5787353516,44.9066162109
3.3152239323,-0.7114257812,0.1601562500,0.1997070312,15.3961181641,-2.5787353516,44.9066162109
3.3179678917,-0.7114257812,0.1669921875,0.1850585938,15.3656005859,-3.7078857422,45.8679199219
3.3205370903,-0.7158203125,0.1669921875,0.1850585938,15.3656005859,-3.7078857422,45.8679199219
3.3231079578,-0.7158203125,0.1669921875,0.1850585938,14.7857666016,-4.7912597656,46.7987060547
3.3257169724,-0.7158203125,0.1669921875,0.1850585938,14.7857666016,-4.7912597656,46.7987060547
3.3283729553,-0.7490234375,0.1562500000,0.1713867188,14.9078369141,-5.0811767578,48.0499267578
3.3310849667,-0.7490234375,0.1562500000,0.1713867188,14.9078369141,-5.0811767578,48.0499267578
3.3337841034,-0.7490234375,0.1562500000,0.1713867188,14.7705078125,-5.4473876953,49.7436523438
3.3364920616,-0.7490234375,0.1562500000,0.1713867188,14.7705078125,-5.4473876953,49.7436523438
3.3391361237,-0.7558593750,0.1337890625,0.1699218750,13.3972167969,-5.6304931641,52.2308349609
3.3417088985,-0.7558593750,0.1337890625,0.1699218750,13.3972167969,-5.6304931641,52.2308349609
3.3442790508,-0.7558593750,0.1337890625,0.1699218750,11.7950439453,-6.0119628906,54.5196533203
3.3468520641,-0.7558593750,0.1337890625,0.1699218750,11.7950439453,-6.0119628906,54.5196533203
3.3494510651,-0.7875976562,0.1127929688,0.1748046875,9.3383789062,-6.1950683594,56.5795898438
3.3520231247,-0.7875976562,0.1127929688,0.1748046875,9.3383789062,-6.1950683594,56.5795898438
3.3545970917,-0.7875976562,0.1127929688,0.1748046875,5.4321289062,-5.7067871094,59.1888427734
3.3572540283,-0.7875976562,0.1127929688,0.1748046875,7.3394775391,-5.7067871094,59.1888427734
