# time_stamp before, Acceleration x, Acceleration y, Acceleration z, Gyro x, Gyro y, Gyro z
0.0000000000,-0.7221679688,0.0683593750,0.0737304688,4.8980712891,-1.0528564453,-2.8076171875
0.0025599003,-0.7221679688,0.0683593750,0.0737304688,3.4027099609,-0.8544921875,-2.8076171875
0.0051209927,-0.7221679688,0.0683593750,0.0737304688,3.4027099609,-0.8544921875,-2.8076171875
0.0077428818,-0.7304687500,0.0751953125,0.0712890625,2.6550292969,-0.7171630859,-2.6245117188
0.0103919506,-0.7304687500,0.0751953125,0.0712890625,2.6550292969,-0.7171630859,-2.6245117188
0.0129508972,-0.7304687500,0.0751953125,0.0712890625,3.0059814453,-0.5645751953,-2.2888183594
0.0155107975,-0.7304687500,0.0751953125,0.0712890625,3.0059814453,-0.5645751953,-2.2888183594
0.0182018280,-0.7231445312,0.0600585938,0.0747070312,3.0670166016,-0.6256103516,-1.6326904297
0.0207829475,-0.7231445312,0.0600585938,0.0747070312,3.0670166016,-0.6256103516,-1.6326904297
0.0233378410,-0.7231445312,0.0600585938,0.0747070312,3.2043457031,-0.6256103516,-1.1901855469
0.0258929729,-0.7231445312,0.0600585938,0.0747070312,3.2043457031,-0.6256103516,-1.1901855469
0.0286598206,-0.7416992188,0.0483398438,0.0747070312,3.8452148438,-0.5645751953,-0.2593994141
0.0312268734,-0.7416992188,0.0483398438,0.0747070312,3.8452148438,-0.5645751953,-0.2593994141
0.0337779522,-0.7416992188,0.0483398438,0.0747070312,4.1046142578,0.1525878906,0.5645751953
0.0363509655,-0.7416992188,0.0483398438,0.0747070312,4.1046142578,0.1525878906,0.5645751953
0.0390188694,-0.7500000000,0.0283203125,0.0732421875,3.1585693359,0.2441406250,0.9002685547
0.0415878296,-0.7500000000,0.0283203125,0.0732421875,3.1585693359,0.2441406250,0.9002685547
0.0441489220,-0.7500000000,0.0283203125,0.0732421875,3.1585693359,0.4425048828,1.9226074219
0.0467069149,-0.7500000000,0.0283203125,0.0732421875,3.2501220703,0.4425048828,1.9226074219
0.0492968559,-0.7534179688,0.0502929688,0.0727539062,3.2501220703,0.4425048828,2.3651123047
0.0520238876,-0.7534179688,0.0502929688,0.0727539062,3.4637451172,1.2207031250,2.3651123047
0.0545859337,-0.7534179688,0.0502929688,0.0727539062,3.4637451172,1.2207031250,1.6784667969
0.0571539402,-0.7534179688,0.0502929688,0.0688476562,3.7231445312,1.8005371094,1.6784667969
0.0598278046,-0.7685546875,0.0751953125,0.0688476562,3.7231445312,1.8005371094,1.4190673828
0.0625128746,-0.7685546875,0.0751953125,0.0688476562,5.9967041016,2.2277832031,1.4190673828
0.0651888847,-0.7685546875,0.0751953125,0.0688476562,5.9967041016,2.2277832031,0.8697509766
0.0679118633,-0.6435546875,0.1147460938,0.0473632812,8.0566406250,1.6784667969,0.8697509766
0.0705788136,-0.7490234375,0.1147460938,0.0473632812,8.0566406250,1.6784667969,0.2441406250
0.0732889175,-0.7490234375,0.1147460938,0.0473632812,10.2691650391,0.9918212891,0.2441406250
0.0759708881,-0.7490234375,0.1147460938,0.0473632812,10.2691650391,0.9918212891,-0.3051757812
0.0787019730,-0.7436523438,0.1103515625,0.0493164062,11.9476318359,0.5798339844,-0.3051757812
0.0813829899,-0.7436523438,0.1103515625,0.0493164062,11.9476318359,0.5798339844,-0.3051757812
0.0840709209,-0.7436523438,0.1103515625,0.0493164062,13.9312744141,0.1220703125,-0.2899169922
0.0867559910,-0.7436523438,0.1103515625,0.0493164062,13.9312744141,0.1220703125,-0.2899169922
0.0894608498,-0.7290039062,0.1054687500,0.0688476562,15.8081054688,-0.1678466797,-0.4425048828
0.0921738148,-0.7290039062,0.1054687500,0.0688476562,15.8081054688,-0.1678466797,-0.4425048828
0.0948739052,-0.7290039062,0.1054687500,0.0688476562,15.3045654297,-0.2746582031,-0.5187988281
0.0975739956,-0.7290039062,0.1054687500,0.0615234375,15.3045654297,-0.2746582031,-0.5187988281
0.1002810001,-0.7338867188,0.0727539062,0.0615234375,14.7705078125,-0.2136230469,-0.6256103516
0.1029829979,-0.7338867188,0.0727539062,0.0615234375,14.7705078125,-0.2136230469,-0.6256103516
0.1056900024,-0.7338867188,0.0727539062,0.0615234375,14.1906738281,-0.5340576172,-0.6408691406
0.1084017754,-0.7329101562,0.0727539062,0.0556640625,14.1906738281,-0.5340576172,-0.6408691406
0.1111028194,-0.7329101562,0.0727539062,0.0556640625,14.0228271484,-0.2593994141,-0.5340576172
0.1138088703,-0.7329101562,0.0727539062,0.0556640625,14.0228271484,-0.2593994141,-0.5340576172
0.1166257858,-0.7329101562,0.0727539062,0.0556640625,13.7023925781,-0.9307861328,-0.2746582031
0.1193408966,-0.7182617188,0.0957031250,0.0571289062,13.7023925781,-0.9307861328,-0.2746582031
0.1220469475,-0.7182617188,0.0957031250,0.0571289062,15.1214599609,-1.1749267578,-1.0528564453
0.1247479916,-0.7182617188,0.0957031250,0.0571289062,15.1214599609,-1.1749267578,-1.0528564453
0.1274609566,-0.7182617188,0.0957031250,0.0571289062,15.7775878906,-0.9307861328,-1.7852783203
0.1300327778,-0.7392578125,0.0903320312,0.0605468750,15.7775878906,-0.9307861328,-1.7852783203
0.1326048374,-0.7392578125,0.0903320312,0.0605468750,15.1824951172,-0.0915527344,-1.1749267578
0.1351809502,-0.7392578125,0.0903320312,0.0605468750,15.1824951172,-0.0915527344,-1.1749267578
0.1377577782,-0.7392578125,0.0903320312,0.0673828125,13.8549804688,0.0000000000,-0.6256103516
0.1404128075,-0.7333984375,0.0712890625,0.0673828125,13.8549804688,0.0000000000,-0.6256103516
0.1430838108,-0.7333984375,0.0712890625,0.0673828125,12.4206542969,0.1983642578,-0.4882812500
0.1457448006,-0.7333984375,0.0712890625,0.0673828125,12.4206542969,0.1983642578,-0.4882812500
0.1484298706,-0.7333984375,0.0566406250,0.0761718750,10.7421875000,0.7019042969,-0.2136230469
0.1511349678,-0.7324218750,0.0566406250,0.0761718750,10.7421875000,0.7019042969,-0.2136230469
0.1538419724,-0.7324218750,0.0566406250,0.0761718750,8.5754394531,0.5493164062,-0.0152587891
0.1565399170,-0.7324218750,0.0566406250,0.0761718750,8.5754394531,0.5493164062,-0.0152587891
0.1592359543,-0.7363281250,0.0888671875,0.0693359375,7.6599121094,0.7019042969,-0.1678466797
0.1619338989,-0.7363281250,0.0888671875,0.0693359375,7.6599121094,0.7019042969,-0.1678466797
0.1646339893,-0.7363281250,0.0888671875,0.0693359375,7.8277587891,0.6561279297,-0.2288818359
0.1673309803,-0.7363281250,0.0888671875,0.0693359375,7.8277587891,0.6561279297,-0.2288818359
0.1700329781,-0.7333984375,0.1025390625,0.0742187500,9.3383789062,0.3662109375,-0.3509521484
0.1727299690,-0.7333984375,0.1025390625,0.0742187500,9.3383789062,0.3662109375,-0.3509521484
0.1754269600,-0.7333984375,0.1025390625,0.0742187500,10.1318359375,0.1525878906,-0.5645751953
0.1781167984,-0.7333984375,0.1025390625,0.0742187500,10.1318359375,0.1525878906,-0.5645751953
0.1807949543,-0.7280273438,0.1127929688,0.0688476562,11.1694335938,0.1373291016,-0.6256103516
0.1833717823,-0.7280273438,0.1127929688,0.0688476562,11.1694335938,0.1373291016,-0.6256103516
0.1859459877,-0.7280273438,0.1127929688,0.0688476562,11.2609863281,-0.0305175781,-1.0681152344
0.1885848045,-0.7280273438,0.1127929688,0.0659179688,11.2609863281,-0.0305175781,-1.0681152344
0.1912930012,-0.7045898438,0.1005859375,0.0659179688,11.3983154297,-0.4577636719,-1.7242431641
0.1939969063,-0.7045898438,0.1005859375,0.0659179688,11.3983154297,-0.4577636719,-1.7242431641
0.1966948509,-0.7045898438,0.1005859375,0.0659179688,11.0168457031,-0.7324218750,-2.5177001953
0.1994178295,-0.6982421875,0.1137695312,0.0649414062,11.0168457031,-0.7324218750,-2.5177001953
0.2021129131,-0.6982421875,0.1137695312,0.0649414062,10.7574462891,-0.9918212891,-3.1433105469
0.2048130035,-0.6982421875,0.1137695312,0.0649414062,10.7574462891,-0.9918212891,-3.1433105469
0.2075238228,-0.6982421875,0.1137695312,0.0649414062,9.8571777344,-0.5493164062,-3.2501220703
0.2102220058,-0.7089843750,0.1064453125,0.0698242188,9.8571777344,-0.5493164062,-3.2501220703
0.2129259109,-0.7089843750,0.1064453125,0.0698242188,9.8571777344,-0.4119873047,-3.4179687500
0.2156248093,-0.7089843750,0.1064453125,0.0698242188,9.2926025391,-0.4119873047,-3.4179687500
0.2183330059,-0.7089843750,0.1064453125,0.0698242188,9.2926025391,-0.2899169922,-4.1046142578
0.2210309505,-0.7070312500,0.1083984375,0.0795898438,8.8043212891,-0.2899169922,-4.1046142578
0.2237339020,-0.7070312500,0.1083984375,0.0795898438,8.8043212891,-0.1525878906,-5.4473876953
0.2264349461,-0.7070312500,0.1083984375,0.0795898438,8.1024169922,-0.1525878906,-5.4473876953
0.2290728092,-0.7070312500,0.1083984375,0.0747070312,8.1024169922,-0.2288818359,-5.9509277344
0.2316398621,-0.7163085938,0.1083984375,0.0747070312,7.7819824219,-0.2288818359,-5.9509277344
0.2342119217,-0.7163085938,0.1083984375,0.0747070312,7.7819824219,-0.2288818359,-6.6223144531
0.2367818356,-0.7163085938,0.1083984375,0.0747070312,7.9193115234,-0.5493164062,-6.6223144531
0.2394518852,-0.7163085938,0.0888671875,0.0717773438,7.9193115234,-0.5493164062,-7.3547363281
0.2421569824,-0.7202148438,0.0888671875,0.0717773438,7.6751708984,-0.3662109375,-7.3547363281
0.2449629307,-0.7202148438,0.0888671875,0.0717773438,7.6751708984,-0.3662109375,-7.6751708984
0.2477049828,-0.7202148438,0.0888671875,0.0717773438,6.9122314453,0.2136230469,-7.6751708984
0.2504029274,-0.7397460938,0.0834960938,0.0712890625,6.9122314453,0.2136230469,-8.0413818359
0.2530968189,-0.7397460938,0.0834960938,0.0712890625,5.9356689453,0.5187988281,-8.0413818359
0.2557959557,-0.7397460938,0.0834960938,0.0712890625,5.9356689453,0.5187988281,-7.7056884766
0.2585089207,-0.7397460938,0.0834960938,0.0712890625,5.5389404297,0.9307861328,-7.7056884766
0.2612028122,-0.7265625000,0.0800781250,0.0717773438,5.5389404297,0.9307861328,-7.6446533203
0.2638998032,-0.7265625000,0.0800781250,0.0717773438,4.7149658203,0.9460449219,-7.6446533203
0.2665917873,-0.7265625000,0.0800781250,0.0717773438,4.7149658203,0.9460449219,-7.4157714844
0.2693259716,-0.7265625000,0.0800781250,0.0639648438,3.7689208984,0.5645751953,-7.4157714844
0.2720308304,-0.7324218750,0.0766601562,0.0639648438,3.7689208984,0.5645751953,-7.3089599609
0.2747259140,-0.7324218750,0.0766601562,0.0639648438,4.0740966797,0.6866455078,-7.3089599609
0.2774307728,-0.7324218750,0.0766601562,0.0639648438,4.0740966797,0.6866455078,-7.3089599609
0.2799928188,-0.7324218750,0.0888671875,0.0532226562,4.2419433594,0.4425048828,-7.1105957031
0.2825570107,-0.7172851562,0.0888671875,0.0532226562,4.2419433594,0.4425048828,-7.1105957031
0.2851269245,-0.7172851562,0.0888671875,0.0532226562,4.6539306641,0.2288818359,-7.2174072266
0.2877399921,-0.7172851562,0.0888671875,0.0532226562,4.6539306641,0.2288818359,-7.2174072266
0.2904379368,-0.7099609375,0.0908203125,0.0488281250,4.6234130859,-0.0457763672,-7.2937011719
0.2931399345,-0.7099609375,0.0908203125,0.0488281250,4.6234130859,-0.0457763672,-7.2937011719
0.2958319187,-0.7099609375,0.0908203125,0.0488281250,5.2185058594,-0.3814697266,-7.6141357422
0.2985467911,-0.7099609375,0.0908203125,0.0488281250,5.2185058594,-0.3814697266,-7.6141357422
0.3012409210,-0.7089843750,0.0908203125,0.0654296875,5.2185058594,-0.4882812500,-8.0413818359
0.3039388657,-0.7089843750,0.0908203125,0.0654296875,5.2185058594,-0.4882812500,-8.0413818359
0.3066368103,-0.7089843750,0.0908203125,0.0654296875,4.8522949219,-0.5798339844,-8.3007812500
0.3094489574,-0.7089843750,0.0908203125,0.0571289062,4.8522949219,-0.5798339844,-8.3007812500
0.3121428490,-0.7089843750,0.0976562500,0.0571289062,4.6234130859,-0.8697509766,-8.1787109375
0.3148438931,-0.7089843750,0.0976562500,0.0571289062,4.6234130859,-0.8697509766,-8.1787109375
0.3175468445,-0.7089843750,0.0976562500,0.0571289062,4.6691894531,-0.7629394531,-8.1787109375
0.3202488422,-0.7089843750,0.0927734375,0.0878906250,4.6691894531,-0.7629394531,-8.1787109375
0.3229458332,-0.7045898438,0.0927734375,0.0878906250,4.8675537109,-0.8697509766,-8.4381103516
0.3256409168,-0.7045898438,0.0927734375,0.0878906250,4.8675537109,-0.8697509766,-8.4381103516
0.3283178806,-0.7045898438,0.0927734375,0.0878906250,5.8135986328,-1.0528564453,-8.9111328125
0.3308789730,-0.7041015625,0.0898437500,0.0917968750,5.8135986328,-1.0528564453,-8.9111328125
0.3334419727,-0.7041015625,0.0898437500,0.0917968750,6.7596435547,-0.9918212891,-8.9111328125
0.3360137939,-0.7041015625,0.0898437500,0.0917968750,6.7596435547,-0.9918212891,-8.9111328125
0.3386409283,-0.7041015625,0.0898437500,0.0917968750,7.6293945312,-0.8087158203,-9.2468261719
0.3413448334,-0.7026367188,0.0644531250,0.0898437500,7.6293945312,-0.8087158203,-9.2468261719
0.3440449238,-0.7026367188,0.0644531250,0.0898437500,7.1868896484,-0.4577636719,-9.5825195312
0.3467428684,-0.7026367188,0.0644531250,0.0898437500,7.1868896484,-0.4577636719,-9.5825195312
0.3494439125,-0.7026367188,0.0644531250,0.0898437500,6.4239501953,-0.0457763672,-8.8958740234
0.3521389961,-0.7153320312,0.0493164062,0.0966796875,6.4239501953,-0.0457763672,-8.8958740234
0.3548338413,-0.7153320312,0.0493164062,0.0966796875,5.3253173828,0.0000000000,-8.5906982422
0.3575429916,-0.7153320312,0.0493164062,0.0966796875,5.3253173828,0.0000000000,-8.5906982422
0.3602428436,-0.7153320312,0.0493164062,0.0864257812,4.5776367188,0.2136230469,-8.5449218750
0.3629469872,-0.7221679688,0.0615234375,0.0864257812,4.5776367188,0.2136230469,-8.5449218750
0.3656468391,-0.7221679688,0.0615234375,0.0864257812,4.0435791016,0.3814697266,-8.3160400391
0.3683569431,-0.7221679688,0.0615234375,0.0864257812,4.0435791016,0.3814697266,-8.3160400391
0.3710589409,-0.7304687500,0.0644531250,0.0756835938,2.9907226562,0.9155273438,-8.1176757812
0.3738548756,-0.7304687500,0.0644531250,0.0756835938,2.9907226562,0.9155273438,-8.1176757812
0.3765537739,-0.7304687500,0.0644531250,0.0756835938,2.3498535156,0.9307861328,-8.2855224609
0.3791699409,-0.7304687500,0.0644531250,0.0756835938,2.3498535156,0.9307861328,-8.2855224609
0.3817348480,-0.7246093750,0.0815429688,0.0507812500,2.3498535156,0.5950927734,-8.6059570312
0.3843028545,-0.7246093750,0.0815429688,0.0507812500,2.2888183594,0.5950927734,-8.6059570312
0.3868708611,-0.7246093750,0.0815429688,0.0507812500,2.2888183594,0.4425048828,-8.3618164062
0.3895628452,-0.7246093750,0.0815429688,0.0507812500,2.0904541016,0.4425048828,-8.3618164062
0.3922619820,-0.7207031250,0.0810546875,0.0380859375,2.0904541016,0.4425048828,-8.2244873047
0.3949568272,-0.7207031250,0.0810546875,0.0380859375,2.7160644531,0.2288818359,-8.2244873047
0.3976979256,-0.7207031250,0.0810546875,0.0380859375,2.7160644531,0.2288818359,-7.8125000000
0.4004008770,-0.7207031250,0.0810546875,0.0458984375,2.6550292969,0.2288818359,-7.8125000000
0.4030969143,-0.7338867188,0.0678710938,0.0458984375,2.6550292969,0.2288818359,-7.6141357422
0.4057939053,-0.7338867188,0.0678710938,0.0458984375,2.6855468750,0.2899169922,-7.6141357422
0.4085049629,-0.7338867188,0.0678710938,0.0458984375,2.6855468750,0.2899169922,-7.7362060547
0.4112029076,-0.7338867188,0.0688476562,0.0629882812,2.7618408203,0.0000000000,-7.7362060547
0.4139029980,-0.7324218750,0.0688476562,0.0629882812,2.7618408203,0.0000000000,-7.4768066406
0.4165968895,-0.7324218750,0.0688476562,0.0629882812,2.9754638672,0.1068115234,-7.4768066406
0.4193339348,-0.7324218750,0.0688476562,0.0629882812,2.9754638672,0.1068115234,-7.1105957031
0.4220378399,-0.7436523438,0.0664062500,0.0673828125,2.7770996094,0.4577636719,-7.1105957031
0.4247338772,-0.7436523438,0.0664062500,0.0673828125,2.7770996094,0.4577636719,-7.2631835938
0.4274458885,-0.7436523438,0.0664062500,0.0673828125,2.2583007812,0.5950927734,-7.2631835938
0.4300088882,-0.7436523438,0.0664062500,0.0673828125,2.2583007812,0.5950927734,-6.8511962891
0.4325718880,-0.7324218750,0.0541992188,0.0581054688,2.3345947266,0.9918212891,-6.8511962891
0.4351358414,-0.7324218750,0.0541992188,0.0581054688,2.3345947266,0.9918212891,-6.8511962891
0.4377648830,-0.7324218750,0.0541992188,0.0581054688,2.5329589844,1.0070800781,-6.2103271484
0.4405620098,-0.7324218750,0.0541992188,0.0581054688,2.5329589844,1.0070800781,-6.2103271484
0.4432609081,-0.7373046875,0.0410156250,0.0771484375,2.5939941406,1.0070800781,-5.6762695312
0.4459569454,-0.7373046875,0.0410156250,0.0771484375,2.5939941406,1.0070800781,-5.6762695312
0.4486939907,-0.7373046875,0.0410156250,0.0771484375,2.9907226562,1.3122558594,-5.2795410156
0.4513909817,-0.7373046875,0.0444335938,0.0693359375,2.9907226562,1.3122558594,-5.2795410156
0.4540879726,-0.7421875000,0.0444335938,0.0693359375,2.5787353516,1.2054443359,-4.7302246094
0.4567868710,-0.7421875000,0.0444335938,0.0693359375,2.5787353516,1.2054443359,-4.7302246094
0.4595279694,-0.7421875000,0.0444335938,0.0693359375,2.5024414062,1.6326904297,-4.5318603516
0.4622168541,-0.7436523438,0.0507812500,0.0776367188,2.5024414062,1.6326904297,-4.5318603516
0.4649128914,-0.7436523438,0.0507812500,0.0776367188,2.4566650391,1.8615722656,-4.6691894531
0.4676609039,-0.7436523438,0.0507812500,0.0776367188,2.4566650391,1.8615722656,-4.6691894531
0.4703669548,-0.7436523438,0.0507812500,0.0776367188,2.3498535156,2.0599365234,-4.7607421875
0.4730589390,-0.7485351562,0.0712890625,0.0639648438,2.3498535156,2.0599365234,-4.7607421875
0.4757518768,-0.7485351562,0.0712890625,0.0639648438,2.7008056641,2.2888183594,-4.7760009766
0.4784507751,-0.7485351562,0.0712890625,0.0639648438,2.7008056641,2.2888183594,-4.7760009766
0.4810137749,-0.7485351562,0.0712890625,0.0639648438,3.4484863281,2.1972656250,-4.8065185547
0.4835748672,-0.7387695312,0.0703125000,0.0615234375,3.4484863281,2.1972656250,-4.8065185547
0.4861459732,-0.7387695312,0.0703125000,0.0615234375,3.7536621094,2.1362304688,-4.6081542969
0.4887969494,-0.7387695312,0.0703125000,0.0615234375,3.7536621094,2.1362304688,-4.6081542969
0.4915049076,-0.7387695312,0.0703125000,0.0620117188,4.1046142578,2.0904541016,-4.8828125000
0.4941918850,-0.7211914062,0.0751953125,0.0620117188,4.1046142578,2.0904541016,-4.8828125000
0.4968829155,-0.7211914062,0.0751953125,0.0620117188,4.6691894531,2.1057128906,-5.6610107422
0.4995899200,-0.7211914062,0.0751953125,0.0620117188,4.6691894531,2.1057128906,-5.6610107422
0.5022828579,-0.7211914062,0.0610351562,0.0698242188,5.3863525391,2.4261474609,-5.1422119141
0.5050828457,-0.7304687500,0.0610351562,0.0698242188,5.3863525391,2.4261474609,-5.1422119141
0.5077939034,-0.7304687500,0.0610351562,0.0698242188,5.7983398438,2.3498535156,-4.8370361328
0.5104839802,-0.7304687500,0.0610351562,0.0698242188,5.7983398438,2.3498535156,-4.8370361328
0.5131819248,-0.7202148438,0.0590820312,0.0595703125,5.8135986328,2.1972656250,-4.7302246094
0.5158770084,-0.7202148438,0.0590820312,0.0595703125,5.8135986328,2.1972656250,-4.7302246094
0.5185828209,-0.7202148438,0.0590820312,0.0595703125,5.2795410156,1.8920898438,-4.5776367188
0.5212798119,-0.7202148438,0.0590820312,0.0595703125,5.2795410156,1.8920898438,-4.5776367188
0.5239729881,-0.7231445312,0.0639648438,0.0634765625,5.5084228516,1.8463134766,-4.7302246094
0.5266649723,-0.7231445312,0.0639648438,0.0634765625,5.5084228516,1.8463134766,-4.7302246094
0.5292878151,-0.7231445312,0.0639648438,0.0634765625,6.1645507812,1.8920898438,-4.6386718750
0.5318508148,-0.7231445312,0.0639648438,0.0585937500,6.1645507812,1.8920898438,-4.6386718750
0.5344197750,-0.7255859375,0.0537109375,0.0585937500,6.4239501953,1.8005371094,-4.9285888672
0.5369858742,-0.7255859375,0.0537109375,0.0585937500,6.4239501953,1.8005371094,-4.9285888672
0.5397047997,-0.7255859375,0.0537109375,0.0585937500,5.9204101562,1.9226074219,-4.6691894531
0.5424017906,-0.7255859375,0.0566406250,0.0546875000,5.9204101562,1.9226074219,-4.6691894531
0.5450909138,-0.7304687500,0.0566406250,0.0546875000,5.5389404297,2.3498535156,-4.2419433594
0.5477948189,-0.7304687500,0.0566406250,0.0546875000,5.5389404297,2.3498535156,-4.2419433594
0.5505008698,-0.7304687500,0.0566406250,0.0546875000,5.2642822266,2.1667480469,-3.9367675781
0.5532009602,-0.7333984375,0.0517578125,0.0561523438,5.2642822266,2.1667480469,-3.9367675781
0.5558969975,-0.7333984375,0.0517578125,0.0561523438,5.2642822266,2.2277832031,-3.8604736328
0.5586040020,-0.7333984375,0.0517578125,0.0561523438,5.4168701172,2.2277832031,-3.8604736328
0.5612988472,-0.7333984375,0.0517578125,0.0561523438,5.4168701172,2.0446777344,-4.1351318359
0.5639958382,-0.7363281250,0.0468750000,0.0712890625,5.7525634766,2.0446777344,-4.1351318359
0.5666887760,-0.7363281250,0.0468750000,0.0712890625,5.7525634766,2.0294189453,-3.8909912109
0.5694038868,-0.7363281250,0.0468750000,0.0712890625,5.7983398438,2.0294189453,-3.8909912109
0.5719769001,-0.7363281250,0.0468750000,0.0712890625,5.7983398438,2.0294189453,-4.0130615234
0.5745379925,-0.7368164062,0.0522460938,0.0664062500,6.2255859375,1.8463134766,-4.0130615234
0.5771069527,-0.7368164062,0.0522460938,0.0664062500,6.2255859375,1.8463134766,-4.1198730469
0.5798029900,-0.7368164062,0.0522460938,0.0664062500,6.1798095703,2.0294189453,-4.1198730469
0.5824959278,-0.7368164062,0.0522460938,0.0639648438,6.1798095703,2.0294189453,-4.6234130859
0.5851929188,-0.7226562500,0.0629882812,0.0639648438,5.4473876953,2.2430419922,-4.6234130859
0.5879290104,-0.7226562500,0.0629882812,0.0639648438,5.4473876953,2.2430419922,-4.8522949219
0.5906248093,-0.7226562500,0.0629882812,0.0639648438,5.3710937500,2.7770996094,-4.8522949219
0.5933299065,-0.7231445312,0.0693359375,0.0463867188,5.3710937500,2.7770996094,-4.9743652344
0.5960268974,-0.7231445312,0.0693359375,0.0463867188,5.4016113281,2.7160644531,-4.9743652344
0.5987379551,-0.7231445312,0.0693359375,0.0463867188,5.4016113281,2.7160644531,-5.1727294922
0.6014318466,-0.7231445312,0.0693359375,0.0463867188,5.6762695312,2.6245117188,-5.1727294922
0.6041347980,-0.7231445312,0.0722656250,0.0556640625,5.6762695312,2.6245117188,-5.3100585938
0.6068408489,-0.7231445312,0.0722656250,0.0556640625,5.4779052734,2.5177001953,-5.3100585938
0.6095449924,-0.7231445312,0.0722656250,0.0556640625,5.4779052734,2.5177001953,-4.8370361328
0.6122398376,-0.7231445312,0.0722656250,0.0556640625,5.4016113281,2.7160644531,-4.8370361328
0.6149427891,-0.7216796875,0.0634765625,0.0556640625,5.4016113281,2.7160644531,-4.8370361328
0.6176798344,-0.7216796875,0.0634765625,0.0556640625,5.0964355469,2.9602050781,-4.2419433594
0.6202509403,-0.7216796875,0.0634765625,0.0556640625,5.0964355469,2.9602050781,-4.2419433594
0.6228189468,-0.7216796875,0.0634765625,0.0761718750,4.3182373047,3.2806396484,-3.9520263672
0.6253869534,-0.7163085938,0.0249023438,0.0761718750,4.3182373047,3.2806396484,-3.9520263672
0.6279678345,-0.7163085938,0.0249023438,0.0761718750,3.8452148438,3.2348632812,-4.0893554688
0.6305329800,-0.7163085938,0.0249023438,0.0761718750,3.8452148438,3.2348632812,-4.0893554688
0.6331968307,-0.7163085938,0.0566406250,0.0869140625,3.5705566406,3.4179687500,-3.9215087891
0.6357638836,-0.7294921875,0.0566406250,0.0869140625,3.5705566406,3.4179687500,-3.9215087891
0.6385278702,-0.7294921875,0.0566406250,0.0869140625,3.6773681641,3.5552978516,-4.0588378906
0.6410918236,-0.7294921875,0.0566406250,0.0869140625,3.6773681641,3.5552978516,-4.0588378906
0.6436519623,-0.7294921875,0.0585937500,0.0688476562,4.4860839844,4.0130615234,-4.2877197266
0.6462140083,-0.7314453125,0.0585937500,0.0688476562,4.4860839844,4.0130615234,-4.2877197266
0.6487839222,-0.7314453125,0.0585937500,0.0688476562,4.4860839844,3.9215087891,-4.3487548828
0.6513438225,-0.7314453125,0.0585937500,0.0688476562,4.4860839844,3.9215087891,-4.3487548828
0.6539099216,-0.7324218750,0.0419921875,0.0668945312,4.4860839844,3.7384033203,-4.0435791016
0.6564719677,-0.7324218750,0.0419921875,0.0668945312,4.7912597656,3.7384033203,-4.0435791016
0.6590709686,-0.7324218750,0.0419921875,0.0668945312,4.7912597656,7.6446533203,-3.8909912109
0.6616299152,-0.7324218750,0.0419921875,0.0668945312,4.5013427734,4.0740966797,-3.8909912109
0.6641919613,-0.7285156250,0.0532226562,0.0571289062,4.5013427734,4.0740966797,-4.0130615234
0.6667478085,-0.7285156250,0.0532226562,0.0571289062,4.3792724609,4.0283203125,-4.0130615234
0.6693189144,-0.7285156250,0.0532226562,0.0571289062,4.3792724609,4.0283203125,-4.0130615234
0.6718769073,-0.7285156250,0.0532226562,0.0571289062,4.4250488281,3.9367675781,-4.1351318359
0.6744379997,-0.7285156250,0.0634765625,0.0493164062,4.4250488281,3.9367675781,-4.1351318359
0.6770029068,-0.7285156250,0.0634765625,0.0493164062,4.5166015625,4.4403076172,-4.2266845703
0.6797327995,-0.7285156250,0.0634765625,0.0493164062,4.5166015625,4.4403076172,-4.2266845703
0.6824319363,-0.7285156250,0.0634765625,0.0493164062,4.0893554688,4.0740966797,-4.2724609375
0.6851258278,-0.7197265625,0.0581054688,0.0371093750,4.0893554688,4.0740966797,-4.2724609375
0.6878237724,-0.7197265625,0.0581054688,0.0371093750,4.3182373047,4.0893554688,-4.5471191406
0.6905260086,-0.7197265625,0.0581054688,0.0371093750,4.3182373047,4.0893554688,-4.5471191406
0.6932239532,-0.7197265625,0.0581054688,0.0371093750,4.2877197266,3.8146972656,-4.4708251953
0.6960229874,-0.7241210938,0.0639648438,0.0444335938,4.2877197266,3.8146972656,-4.4708251953
0.6987369061,-0.7241210938,0.0639648438,0.0444335938,3.7994384766,3.7384033203,-4.4250488281
0.7014338970,-0.7241210938,0.0639648438,0.0444335938,3.7994384766,3.7384033203,-4.4250488281
0.7041318417,-0.7241210938,0.0600585938,0.0439453125,3.6621093750,3.5095214844,-4.2266845703
0.7068247795,-0.7270507812,0.0600585938,0.0439453125,3.6621093750,3.5095214844,-4.2266845703
0.7095339298,-0.7270507812,0.0600585938,0.0439453125,3.8604736328,3.1280517578,-4.4860839844
0.7122378349,-0.7270507812,0.0600585938,0.0439453125,3.8604736328,3.1280517578,-4.4860839844
0.7149288654,-0.7182617188,0.0751953125,0.0483398438,3.7994384766,2.7923583984,-4.5928955078
0.7176678181,-0.7182617188,0.0751953125,0.0483398438,3.7994384766,2.7923583984,-4.5928955078
0.7202379704,-0.7182617188,0.0751953125,0.0483398438,3.5552978516,3.4027099609,-5.3863525391
0.7228047848,-0.7182617188,0.0751953125,0.0483398438,3.5552978516,3.4027099609,-5.3863525391
0.7253708839,-0.7236328125,0.0600585938,0.0537109375,3.7689208984,2.8381347656,-5.7067871094
0.7279779911,-0.7236328125,0.0600585938,0.0537109375,3.7689208984,2.8381347656,-5.7067871094
0.7306709290,-0.7236328125,0.0600585938,0.0537109375,3.9062500000,3.1738281250,-5.6610107422
0.7333698273,-0.7236328125,0.0600585938,0.0537109375,3.9062500000,3.1738281250,-5.6610107422
0.7360618114,-0.7373046875,0.0473632812,0.0654296875,3.0822753906,3.8299560547,-5.1727294922
0.7387628555,-0.7373046875,0.0473632812,0.0654296875,3.0822753906,3.8299560547,-5.1727294922
0.7414658070,-0.7373046875,0.0473632812,0.0654296875,2.3193359375,3.2958984375,-5.1116943359
0.7441618443,-0.7373046875,0.0473632812,0.0712890625,2.3193359375,3.2958984375,-5.1116943359
0.7468619347,-0.7246093750,0.0268554688,0.0712890625,1.1749267578,3.5705566406,-5.2947998047
0.7495629787,-0.7246093750,0.0268554688,0.0712890625,1.1749267578,3.5705566406,-5.2947998047
0.7522568703,-0.7246093750,0.0268554688,0.0712890625,-0.1220703125,4.5318603516,-5.1574707031
0.7549598217,-0.7397460938,0.0146484375,0.0473632812,-0.1220703125,4.5318603516,-5.1574707031
0.7576987743,-0.7397460938,0.0146484375,0.0473632812,-1.5106201172,4.6386718750,-4.6539306641
0.7604949474,-0.7397460938,0.0146484375,0.0473632812,-1.5106201172,4.6386718750,-4.6539306641
0.7631969452,-0.7397460938,0.0146484375,0.0473632812,-2.5634765625,4.4403076172,-4.9438476562
0.7658908367,-0.7392578125,0.0751953125,0.0449218750,-2.5634765625,4.4403076172,-4.9438476562
0.7685539722,-0.7392578125,0.0751953125,0.0449218750,-2.8533935547,4.1809082031,-5.9051513672
0.7711148262,-0.7392578125,0.0751953125,0.0449218750,-2.8533935547,4.1809082031,-5.9051513672
0.7736759186,-0.7392578125,0.0751953125,0.0449218750,-2.8533935547,4.3792724609,-7.2937011719
0.7762429714,-0.7275390625,0.0771484375,0.0278320312,-2.8076171875,4.3792724609,-7.2937011719
0.7789218426,-0.7275390625,0.0771484375,0.0278320312,-2.8076171875,4.6691894531,-8.1634521484
0.7816188335,-0.7275390625,0.0771484375,0.0278320312,-3.0670166016,4.6691894531,-8.1634521484
0.7843198776,-0.7275390625,0.0771484375,0.0371093750,-3.0670166016,4.5928955078,-8.8195800781
0.7870099545,-0.7294921875,0.0703125000,0.0371093750,-3.8452148438,4.5928955078,-8.8195800781
0.7897219658,-0.7294921875,0.0703125000,0.0371093750,-3.8452148438,4.3029785156,-9.3231201172
0.7924218178,-0.7294921875,0.0703125000,0.0371093750,-4.2266845703,4.3029785156,-9.3231201172
0.7951118946,-0.7294921875,0.0756835938,0.0292968750,-4.2266845703,4.3029785156,-10.4827880859
0.7978258133,-0.7285156250,0.0756835938,0.0292968750,-4.6539306641,4.2572021484,-10.4827880859
0.8005299568,-0.7285156250,0.0756835938,0.0292968750,-4.6539306641,4.2572021484,-11.5051269531
0.8032379150,-0.7285156250,0.0756835938,0.0292968750,-4.3182373047,3.9672851562,-11.5051269531
0.8059408665,-0.7338867188,0.0834960938,0.0375976562,-4.3182373047,0.0610351562,-12.1459960938
0.8085918427,-0.7338867188,0.0834960938,0.0375976562,-3.1738281250,3.8146972656,-12.1459960938
0.8111658096,-0.7338867188,0.0834960938,0.0375976562,-3.1738281250,3.8146972656,-13.6108398438
0.8137369156,-0.7338867188,0.0834960938,0.0375976562,-0.8239746094,3.7231445312,-13.6108398438
0.8163089752,-0.7280273438,0.0898437500,0.0419921875,-0.8239746094,3.7231445312,-13.6108398438
0.8189687729,-0.7280273438,0.0898437500,0.0419921875,0.3662109375,2.7008056641,-14.7399902344
0.8216738701,-0.7280273438,0.0898437500,0.0419921875,0.3662109375,2.7008056641,-18.6462402344
0.8244819641,-0.7280273438,0.0898437500,0.0419921875,1.6021728516,1.6632080078,-15.6402587891
0.8271918297,-0.7167968750,0.0932617188,0.0214843750,1.6021728516,1.6632080078,-15.6402587891
0.8299329281,-0.7167968750,0.0932617188,0.0214843750,2.9449462891,1.4953613281,-16.6168212891
0.8325588703,-0.7167968750,0.0932617188,0.0214843750,2.9449462891,1.4953613281,-16.6168212891
0.8351287842,-0.7167968750,0.0932617188,0.0278320312,3.7384033203,1.5563964844,-17.4713134766
0.8378889561,-0.7099609375,0.0825195312,0.0278320312,3.7384033203,1.5563964844,-17.4713134766
0.8405518532,-0.7099609375,0.0825195312,0.0278320312,3.9215087891,1.4495849609,-18.3868408203
0.8433330059,-0.7099609375,0.0825195312,0.0278320312,3.9215087891,1.4495849609,-18.3868408203
0.8460137844,-0.7280273438,0.0649414062,0.0405273438,3.1585693359,1.4190673828,-19.1345214844
0.8498909473,-0.7280273438,0.0649414062,0.0405273438,3.1585693359,1.5563964844,-19.8364257812
0.8524589539,-0.7280273438,0.0649414062,0.0405273438,2.3193359375,1.5563964844,-19.8364257812
0.8550357819,-0.7280273438,0.0649414062,0.0498046875,2.3193359375,1.5563964844,-20.2484130859
0.8576838970,-0.7260742188,0.0371093750,0.0498046875,0.0915527344,1.6479492188,-20.2484130859
0.8602588177,-0.7260742188,0.0371093750,0.0498046875,0.0915527344,1.6479492188,-21.3928222656
0.8628268242,-0.7260742188,0.0371093750,0.0498046875,-1.2054443359,2.0904541016,-21.3928222656
0.8653969765,-0.7260742188,0.0371093750,0.0625000000,-1.2054443359,2.0904541016,-21.3928222656
0.8679749966,-0.7363281250,0.0341796875,0.0625000000,-2.8533935547,2.4261474609,-22.1862792969
0.8705399036,-0.7363281250,0.0341796875,0.0625000000,-2.8533935547,2.4261474609,-22.1862792969
0.8731079102,-0.7363281250,0.0341796875,0.0625000000,-5.2947998047,2.4261474609,-22.7813720703
0.8756837845,-0.7363281250,0.0244140625,0.0620117188,-5.2947998047,2.4261474609,-22.7813720703
0.8782968521,-0.7255859375,0.0244140625,0.0620117188,-8.2092285156,2.1820068359,-22.7508544922
0.8808698654,-0.7255859375,0.0244140625,0.0620117188,-8.2092285156,2.1820068359,-22.7508544922
0.8834388256,-0.7255859375,0.0244140625,0.0620117188,-10.7421875000,2.6092529297,-23.1475830078
0.8860049248,-0.7255859375,0.0048828125,0.0732421875,-10.7421875000,2.6092529297,-23.1475830078
0.8886928558,-0.7382812500,0.0048828125,0.0732421875,-13.5040283203,3.5247802734,-23.0865478516
0.8912689686,-0.7382812500,0.0048828125,0.0732421875,-13.5040283203,3.5247802734,-23.0865478516
0.8938369751,-0.7382812500,0.0048828125,0.0732421875,-14.9078369141,3.7384033203,-22.6745605469
0.8964128494,-0.7421875000,0.0292968750,0.0664062500,-14.9078369141,3.7384033203,-22.6745605469
0.8991777897,-0.7421875000,0.0292968750,0.0664062500,-12.3291015625,3.8146972656,-23.1781005859
0.9017620087,-0.7421875000,0.0292968750,0.0664062500,-12.3291015625,3.8146972656,-23.1781005859
0.9043359756,-0.7421875000,0.0292968750,0.0664062500,-8.4228515625,4.2419433594,-24.2309570312
0.9069058895,-0.7666015625,0.0229492188,0.0307617188,-8.2244873047,4.2419433594,-24.2309570312
0.9096188545,-0.7666015625,0.0229492188,0.0307617188,-8.2244873047,3.8299560547,-24.6887207031
0.9121909142,-0.7666015625,0.0229492188,0.0307617188,-5.0048828125,3.8299560547,-24.6887207031
0.9147558212,-0.7666015625,0.0229492188,0.0307617188,-5.0048828125,3.8299560547,-24.9786376953
0.9173319340,-0.7700195312,0.0263671875,0.0146484375,-2.2888183594,3.6010742188,-24.9786376953
0.9200367928,-0.7700195312,0.0263671875,0.0146484375,-2.2888183594,3.6010742188,-24.9328613281
0.9227378368,-0.7700195312,0.0263671875,0.0146484375,-0.0915527344,3.5095214844,-24.9328613281
0.9254357815,-0.7700195312,0.0263671875,0.0146484375,-0.0915527344,3.5095214844,-24.8413085938
0.9281527996,-0.7607421875,0.0244140625,0.0454101562,1.2969970703,3.2501220703,-24.8413085938
0.9308559895,-0.7607421875,0.0244140625,0.0454101562,1.2969970703,3.2501220703,-25.3448486328
0.9335508347,-0.7607421875,0.0244140625,0.0454101562,2.3956298828,2.5634765625,-25.3448486328
0.9362459183,-0.7607421875,0.0039062500,0.0234375000,2.3956298828,2.5634765625,-25.0701904297
0.9389629364,-0.7412109375,0.0039062500,0.0234375000,3.0975341797,2.8076171875,-25.0701904297
0.9416627884,-0.7412109375,0.0039062500,0.0234375000,3.0975341797,2.8076171875,-25.0244140625
0.9443669319,-0.7412109375,0.0039062500,0.0234375000,2.2125244141,3.0975341797,-25.0244140625
0.9470667839,-0.7436523438,-0.0234375000,0.0229492188,2.2125244141,3.0975341797,-24.5971679688
0.9497809410,-0.7436523438,-0.0234375000,0.0229492188,0.0000000000,3.6010742188,-24.5971679688
0.9526009560,-0.7436523438,-0.0234375000,0.0229492188,0.0000000000,3.6010742188,-23.5595703125
0.9553048611,-0.7436523438,-0.0234375000,0.0229492188,-2.4261474609,4.5623779297,-23.5595703125
0.9579958916,-0.7524414062,-0.0405273438,0.0483398438,-2.4261474609,4.5623779297,-23.5595703125
0.9605658054,-0.7524414062,-0.0405273438,0.0483398438,-4.1809082031,4.5471191406,-23.5595703125
0.9631359577,-0.7524414062,-0.0405273438,0.0483398438,-4.1809082031,4.5471191406,-23.5595703125
0.9657938480,-0.7524414062,-0.0405273438,0.0483398438,-5.8593750000,4.7760009766,-23.3154296875
0.9684219360,-0.7592773438,-0.0205078125,0.0595703125,-5.8593750000,4.7760009766,-23.3154296875
0.9711267948,-0.7592773438,-0.0205078125,0.0595703125,-7.6751708984,5.2795410156,-22.9949951172
0.9738249779,-0.7592773438,-0.0205078125,0.0595703125,-7.6751708984,5.2795410156,-22.9949951172
0.9765257835,-0.7592773438,-0.0205078125,0.0722656250,-8.7585449219,5.5236816406,-22.9492187500
0.9792358875,-0.7612304688,-0.0087890625,0.0722656250,-8.7585449219,5.5236816406,-22.9492187500
0.9819428921,-0.7612304688,-0.0087890625,0.0722656250,-9.6130371094,5.8135986328,-23.1018066406
0.9846448898,-0.7612304688,-0.0087890625,0.0722656250,-9.6130371094,5.8135986328,-23.1018066406
0.9873478413,-0.7338867188,-0.0029296875,0.0708007812,-10.6048583984,6.4239501953,-23.1628417969
0.9900538921,-0.7338867188,-0.0029296875,0.0708007812,-10.6048583984,6.4239501953,-23.1628417969
0.9927568436,-0.7338867188,-0.0029296875,0.0708007812,-12.0391845703,6.9274902344,-23.3306884766
0.9954628944,-0.7338867188,-0.0029296875,0.0708007812,-12.0391845703,6.9274902344,-23.3306884766
0.9981579781,-0.7324218750,0.0009765625,0.0737304688,-13.2293701172,6.9122314453,-22.9339599609
1.0007348061,-0.7324218750,0.0009765625,0.0737304688,-13.2293701172,6.9122314453,-22.9339599609
1.0033109188,-0.7324218750,0.0009765625,0.0737304688,-14.0991210938,7.2784423828,-23.6511230469
1.0058839321,-0.7324218750,0.0009765625,0.0737304688,-14.0991210938,7.2784423828,-23.6511230469
1.0086038113,-0.7358398438,0.0219726562,0.0629882812,-12.6190185547,7.7362060547,-25.2685546875
1.0111749172,-0.7358398438,0.0219726562,0.0629882812,-12.6190185547,7.7362060547,-25.2685546875
1.0137457848,-0.7358398438,0.0219726562,0.0629882812,-10.4675292969,8.7127685547,-26.4434814453
1.0164268017,-0.7358398438,0.0219726562,0.0629882812,-10.4675292969,8.7127685547,-26.4434814453
1.0192389488,-0.7558593750,0.0566406250,0.0234375000,-8.1329345703,9.2163085938,-27.5421142578
1.0219278336,-0.7558593750,0.0566406250,0.0234375000,-8.1329345703,9.2163085938,-27.5421142578
1.0246109962,-0.7558593750,0.0566406250,0.0234375000,-6.0272216797,9.5977783203,-29.6325683594
1.0272989273,-0.7558593750,0.0625000000,0.0141601562,-6.0272216797,9.5977783203,-29.6325683594
1.0299949646,-0.7612304688,0.0625000000,0.0141601562,-4.0283203125,9.6282958984,-31.4636230469
1.0326848030,-0.7612304688,0.0625000000,0.0141601562,-4.0283203125,9.6282958984,-31.4636230469
1.0353739262,-0.7612304688,0.0625000000,0.0141601562,-0.3814697266,9.6588134766,-32.7148437500
1.0381669998,-0.7534179688,0.0532226562,0.0190429688,-0.3814697266,9.6588134766,-32.7148437500
1.0408349037,-0.7534179688,0.0532226562,0.0190429688,3.5095214844,9.4451904297,-34.0118408203
1.0434968472,-0.7534179688,0.0532226562,0.0190429688,3.5095214844,9.4451904297,-34.0118408203
1.0461637974,-0.7534179688,0.0532226562,0.0190429688,6.7901611328,9.5520019531,-35.1409912109
1.0487909317,-0.7646484375,0.0336914062,0.0058593750,6.7901611328,9.5520019531,-35.1409912109
1.0513617992,-0.7646484375,0.0336914062,0.0058593750,10.6964111328,9.9639892578,-35.6445312500
1.0539379120,-0.7646484375,0.0336914062,0.0058593750,8.6517333984,9.9639892578,-35.6445312500
1.0565078259,-0.7646484375,0.0336914062,0.0058593750,8.6517333984,9.9182128906,-35.5529785156
1.0591738224,-0.7470703125,0.0170898438,0.0131835938,10.1470947266,9.9182128906,-35.5529785156
1.0618767738,-0.7470703125,0.0170898438,0.0131835938,10.1470947266,9.9182128906,-35.0189208984
1.0645799637,-0.7470703125,0.0170898438,0.0131835938,12.1612548828,9.7045898438,-35.0189208984
1.0672898293,-0.7470703125,-0.1079101562,0.0131835938,12.1612548828,9.7045898438,-35.0494384766
1.0700058937,-0.7578125000,-0.0053710938,0.0131835938,13.1225585938,9.9182128906,-35.0494384766
1.0727069378,-0.7578125000,-0.0053710938,0.0131835938,13.1225585938,9.9182128906,-34.6221923828
1.0754098892,-0.7578125000,-0.0053710938,0.0131835938,13.3819580078,9.4757080078,-34.6221923828
1.0781288147,-0.7773437500,-0.0146484375,0.0112304688,13.3819580078,9.4757080078,-34.0576171875
1.0809309483,-0.7773437500,-0.0146484375,0.0112304688,12.0697021484,9.5367431641,-34.0576171875
1.0836338997,-0.7773437500,-0.0146484375,0.0112304688,12.0697021484,9.5367431641,-33.2183837891
1.0863368511,-0.7773437500,-0.0146484375,0.0112304688,9.6588134766,9.1552734375,-33.2183837891
1.0890438557,-0.7636718750,-0.0009765625,0.0112304688,9.6588134766,9.1552734375,-31.8298339844
1.0917439461,-0.7636718750,-0.0009765625,0.0112304688,7.1563720703,8.8348388672,-31.8298339844
1.0944468975,-0.7636718750,-0.0009765625,0.0112304688,7.1563720703,8.8348388672,-29.8614501953
1.0971448421,-0.7636718750,-0.0009765625,0.0112304688,4.5166015625,8.8195800781,-29.8614501953
1.0997278690,-0.7802734375,-0.0029296875,0.0297851562,4.5166015625,8.8195800781,-28.3813476562
1.1022977829,-0.7802734375,-0.0029296875,0.0297851562,3.7536621094,8.8500976562,-28.3813476562
1.1048688889,-0.7802734375,-0.0029296875,0.0297851562,3.7536621094,8.8500976562,-24.4750976562
1.1074547768,-0.7802734375,-0.0029296875,0.0385742188,2.8076171875,8.9721679688,-27.2827148438
1.1101598740,-0.7822265625,-0.0195312500,0.0385742188,2.8076171875,8.9721679688,-27.2827148438
1.1128590107,-0.7822265625,-0.0195312500,0.0385742188,1.5258789062,8.2092285156,-24.9176025391
1.1155569553,-0.7822265625,-0.0195312500,0.0385742188,1.5258789062,8.2092285156,-24.9176025391
1.1183028221,-0.7822265625,-0.0131835938,0.0493164062,0.9765625000,8.7432861328,-21.4996337891
1.1210069656,-0.7949218750,-0.0131835938,0.0493164062,0.9765625000,8.7432861328,-21.4996337891
1.1237049103,-0.7949218750,-0.0131835938,0.0493164062,0.2593994141,9.0637207031,-17.7307128906
1.1264059544,-0.7949218750,-0.0131835938,0.0493164062,0.2593994141,9.0637207031,-17.7307128906
1.1291148663,-0.8085937500,0.1162109375,0.0136718750,-0.8087158203,10.6048583984,-11.9476318359
1.1318190098,-0.8085937500,0.1162109375,0.0136718750,-0.8087158203,10.6048583984,-11.9476318359
1.1345257759,-0.8085937500,0.1162109375,0.0136718750,-2.0141601562,12.4511718750,-2.6397705078
1.1372289658,-0.8085937500,0.1162109375,0.0136718750,-2.0141601562,12.4511718750,-2.6397705078
1.1398179531,-0.7910156250,0.4682617188,0.0122070312,-0.9155273438,12.8021240234,6.3171386719
1.1423859596,-0.7910156250,0.4682617188,0.0122070312,-0.9155273438,12.8021240234,6.3171386719
1.1449558735,-0.7910156250,0.4682617188,0.0122070312,2.5482177734,12.9699707031,16.1437988281
1.1476988792,-0.7910156250,0.4682617188,-0.1127929688,2.5482177734,12.9699707031,16.1437988281
1.1504008770,-0.7905273438,0.7143554688,-0.0122070312,8.3465576172,13.2904052734,25.8941650391
1.1531059742,-0.7905273438,0.7143554688,-0.0122070312,8.3465576172,13.2904052734,25.8941650391
1.1558079720,-0.7905273438,0.7143554688,-0.0122070312,12.5732421875,12.8631591797,34.8815917969
1.1585237980,-0.7905273438,0.7939453125,0.0249023438,12.5732421875,12.8631591797,34.8815917969
1.1612339020,-0.7666015625,0.7939453125,0.0249023438,18.2189941406,12.4969482422,43.3654785156
1.1639339924,-0.7666015625,0.7939453125,0.0249023438,18.2189941406,12.4969482422,43.3654785156
1.1666388512,-0.7666015625,0.7939453125,0.0249023438,24.7192382812,11.7797851562,53.7567138672
1.1693568230,-0.7436523438,0.7548828125,0.0341796875,24.7192382812,11.7797851562,53.7567138672
1.1720609665,-0.7436523438,0.7548828125,0.0341796875,30.9448242188,10.4827880859,62.4237060547
1.1747698784,-0.7436523438,0.7548828125,0.0341796875,30.9448242188,10.4827880859,62.4237060547
1.1774809361,-0.7436523438,0.7548828125,0.0341796875,34.3475341797,9.4757080078,70.0225830078
1.1800568104,-0.7788085938,0.6811523438,0.0283203125,34.3475341797,9.4757080078,70.0225830078
1.1826319695,-0.7788085938,0.6811523438,0.0283203125,36.0412597656,10.2691650391,78.0792236328
1.1852059364,-0.7788085938,0.6811523438,0.0283203125,36.0412597656,10.2691650391,78.0792236328
1.1878268719,-0.7788085938,0.6811523438,0.0283203125,35.9497070312,11.2915039062,85.6170654297
1.1905319691,-0.7988281250,0.6250000000,-0.0053710938,35.9497070312,11.2915039062,85.6170654297
1.1932418346,-0.7988281250,0.6250000000,-0.0053710938,35.0494384766,11.3677978516,92.7581787109
1.1959547997,-0.7988281250,0.6250000000,-0.0053710938,35.0494384766,11.3677978516,92.7581787109
1.1986639500,-0.7988281250,0.5000000000,-0.0009765625,33.7524414062,11.6119384766,100.1129150391
1.2013750076,-0.8022460938,0.5859375000,-0.0009765625,33.7524414062,11.6119384766,100.1129150391
1.2040808201,-0.8022460938,0.5859375000,-0.0009765625,32.4249267578,12.0391845703,107.3150634766
1.2067840099,-0.8022460938,0.5859375000,-0.0009765625,32.4249267578,12.0391845703,107.3150634766
1.2095408440,-0.8144531250,0.5429687500,0.0195312500,31.0821533203,11.3372802734,112.9302978516
1.2123579979,-0.8144531250,0.5429687500,0.0195312500,31.0821533203,11.3372802734,112.9302978516
1.2150678635,-0.8144531250,0.5429687500,0.0195312500,29.1748046875,10.5438232422,117.8283691406
1.2177898884,-0.8144531250,0.5429687500,0.0195312500,29.1748046875,10.5438232422,117.8283691406
1.2204968929,-0.8247070312,0.4848632812,0.0444335938,27.0843505859,8.9721679688,122.1160888672
1.2232007980,-0.8247070312,0.4848632812,0.0444335938,27.0843505859,8.9721679688,122.1160888672
1.2258977890,-0.8247070312,0.4848632812,0.0444335938,25.4516601562,6.3171386719,125.4882812500
1.2285709381,-0.8247070312,0.4848632812,0.0444335938,25.4516601562,6.3171386719,125.4882812500
1.2311468124,-0.8466796875,0.4082031250,0.0668945312,25.3143310547,2.7923583984,127.1667480469
1.2337198257,-0.8466796875,0.4082031250,0.0668945312,25.3143310547,2.7923583984,127.1667480469
1.2362937927,-0.8466796875,0.4082031250,0.0668945312,25.3143310547,0.9613037109,128.1127929688
1.2389829159,-0.8466796875,0.2832031250,0.0541992188,25.3448486328,0.9613037109,128.1127929688
1.2416877747,-0.8242187500,0.3530273438,0.0541992188,29.2510986328,-1.0223388672,128.4484863281
1.2443959713,-0.8242187500,0.3530273438,0.0541992188,27.9235839844,-1.0223388672,128.4484863281
1.2470989227,-0.8242187500,0.3530273438,0.0541992188,27.9235839844,-3.3721923828,127.9449462891
1.2498159409,-0.8549804688,0.2343750000,0.0571289062,30.4565429688,-3.3721923828,127.9449462891
1.2525207996,-0.8549804688,0.2343750000,0.0571289062,30.4565429688,-5.8898925781,125.5340576172
1.2552249432,-0.8549804688,0.2343750000,0.0571289062,30.3649902344,-5.8898925781,125.5340576172
1.2579410076,-0.8549804688,0.2343750000,0.0571289062,30.3649902344,-6.7443847656,121.9177246094
1.2606489658,-0.8447265625,0.1479492188,0.0424804688,29.9072265625,-6.7443847656,121.9177246094
1.2633547783,-0.8447265625,0.1479492188,0.0424804688,29.9072265625,-6.6070556641,119.6746826172
1.2660558224,-0.8447265625,0.1479492188,0.0424804688,32.6995849609,-6.6070556641,119.6746826172
1.2687718868,-0.8447265625,0.1479492188,0.0424804688,32.6995849609,-6.3934326172,118.5455322266
1.2714729309,-0.8535156250,0.1831054688,0.0068359375,36.5753173828,-6.3934326172,118.5455322266
1.2741758823,-0.8535156250,0.1831054688,0.0068359375,36.5753173828,-6.3934326172,118.6828613281
1.2769868374,-0.8535156250,0.1831054688,0.0068359375,39.2608642578,-5.4168701172,118.6828613281
1.2796349525,-0.8535156250,0.1796875000,0.0034179688,39.2608642578,-5.4168701172,118.0267333984
1.2822108269,-0.8579101562,0.1796875000,0.0034179688,41.5649414062,-4.3945312500,118.0267333984
1.2847878933,-0.8579101562,0.1796875000,0.0034179688,41.5649414062,-4.3945312500,117.4621582031
1.2873618603,-0.8579101562,0.1796875000,0.0034179688,43.3654785156,-2.6092529297,117.4621582031
1.2900688648,-0.8579101562,0.1181640625,-0.0209960938,43.3654785156,-2.6092529297,117.3553466797
1.2927749157,-0.8637695312,0.1181640625,-0.0209960938,43.1518554688,-0.4272460938,117.3553466797
1.2954809666,-0.8637695312,0.1181640625,-0.0209960938,43.1518554688,-0.4272460938,118.1945800781
1.2981967926,-0.8637695312,0.1181640625,-0.0209960938,42.2515869141,1.1596679688,118.1945800781
1.3009028435,-0.8442382812,0.0805664062,-0.0146484375,42.2515869141,1.1596679688,118.1945800781
1.3036057949,-0.8442382812,0.0805664062,-0.0146484375,40.8935546875,2.6092529297,118.2708740234
1.3063089848,-0.8442382812,0.0805664062,-0.0146484375,40.8935546875,2.6092529297,118.2708740234
1.3090260029,-0.8442382812,0.0805664062,-0.0146484375,39.7949218750,3.9367675781,117.1875000000
1.3117299080,-0.7968750000,0.0649414062,-0.0136718750,39.7949218750,3.9367675781,113.2812500000
1.3144288063,-0.7968750000,0.0649414062,-0.0136718750,38.2232666016,5.7373046875,115.5395507812
1.3171339035,-0.7968750000,0.0649414062,-0.0136718750,38.2232666016,5.7373046875,115.5395507812
1.3198459148,-0.7968750000,0.0649414062,0.0048828125,35.6292724609,7.5378417969,113.4643554688
1.3225519657,-0.7539062500,0.0400390625,0.0048828125,35.6292724609,7.5378417969,109.5581054688
1.3252558708,-0.7539062500,0.0400390625,0.0048828125,31.7687988281,9.2010498047,111.2976074219
1.3279528618,-0.7539062500,0.0400390625,0.0048828125,31.7687988281,9.2010498047,111.2976074219
1.3305268288,-0.6289062500,0.0883789062,0.0097656250,28.8543701172,10.2996826172,108.6730957031
1.3331038952,-0.7167968750,0.0883789062,0.0097656250,28.8543701172,10.2996826172,108.6730957031
1.3356809616,-0.7167968750,0.0883789062,0.0097656250,29.2205810547,10.7269287109,106.3232421875
1.3383429050,-0.7167968750,0.0883789062,0.0097656250,29.2205810547,10.7269287109,106.3232421875
1.3411629200,-0.6821289062,0.1093750000,0.0371093750,31.0363769531,9.8876953125,103.5614013672
1.3438727856,-0.6821289062,0.1093750000,0.0371093750,31.0363769531,9.8876953125,103.5614013672
1.3465797901,-0.6821289062,0.1093750000,0.0371093750,31.7382812500,9.2163085938,99.7619628906
1.3493328094,-0.6821289062,0.1093750000,0.0371093750,31.7382812500,9.2163085938,99.7619628906
1.3520388603,-0.6821289062,0.0126953125,0.0498046875,31.2805175781,8.5449218750,95.4132080078
1.3547439575,-0.6821289062,0.0126953125,0.0498046875,31.2805175781,8.5449218750,95.4132080078
1.3574559689,-0.6821289062,0.0126953125,0.0498046875,29.4189453125,7.8582763672,90.9423828125
1.3601658344,-0.6821289062,0.0126953125,0.0361328125,29.4189453125,7.8582763672,90.9423828125
1.3628699780,-0.6777343750,-0.0556640625,0.0361328125,27.3437500000,7.2784423828,85.9375000000
1.3655748367,-0.6777343750,-0.0556640625,0.0361328125,27.3437500000,7.2784423828,85.9375000000
1.3683199883,-0.6777343750,-0.0556640625,0.0361328125,25.5889892578,6.3018798828,80.9326171875
1.3710188866,-0.6533203125,-0.0703125000,0.0200195312,25.5889892578,6.3018798828,80.9326171875
1.3737227917,-0.6533203125,-0.0703125000,0.0200195312,22.5677490234,4.9133300781,76.1566162109
1.3764288425,-0.6533203125,-0.0703125000,0.0200195312,22.5677490234,4.9133300781,76.1566162109
1.3790688515,-0.6533203125,-0.0703125000,0.0200195312,20.0195312500,4.1503906250,71.9146728516
1.3816418648,-0.6157226562,-0.0825195312,0.0097656250,20.0195312500,4.1503906250,71.9146728516
1.3842179775,-0.6157226562,-0.0825195312,0.0097656250,16.8304443359,3.3721923828,66.8487548828
1.3867928982,-0.6157226562,-0.0825195312,0.0097656250,16.8304443359,3.3721923828,66.8487548828
1.3895189762,-0.6157226562,-0.0825195312,0.0097656250,14.6179199219,2.5177001953,61.5386962891
1.3922247887,-0.5947265625,-0.0747070312,0.0131835938,14.6179199219,2.5177001953,61.5386962891
1.3949267864,-0.5947265625,-0.0747070312,0.0131835938,13.3209228516,1.4495849609,55.9844970703
1.3976778984,-0.5947265625,-0.0747070312,0.0131835938,13.3209228516,1.4495849609,55.9844970703
1.4003829956,-0.5947265625,-0.0747070312,0.0102539062,11.9018554688,0.0762939453,50.9033203125
1.4030878544,-0.5981445312,-0.0639648438,0.0102539062,11.9018554688,0.0762939453,50.9033203125
1.4059019089,-0.5981445312,-0.0639648438,0.0102539062,10.0555419922,-1.0681152344,44.8303222656
1.4086148739,-0.5981445312,-0.0639648438,0.0102539062,10.0555419922,-1.0681152344,44.8303222656
1.4113178253,-0.5981445312,-0.0849609375,0.0307617188,7.4462890625,-2.0904541016,39.1082763672
1.4140179157,-0.6098632812,-0.0849609375,0.0307617188,7.4462890625,-2.0904541016,39.1082763672
1.4167168140,-0.6098632812,-0.0849609375,0.0307617188,5.4626464844,-3.2196044922,33.8439941406
1.4194269180,-0.6098632812,-0.0849609375,0.0307617188,5.4626464844,-3.2196044922,33.8439941406
1.4221220016,-0.5947265625,0.0024414062,0.0117187500,7.7362060547,-4.3945312500,29.4342041016
1.4248209000,-0.5947265625,0.0024414062,0.0117187500,7.7362060547,-4.3945312500,29.4342041016
1.4275338650,-0.5947265625,0.0024414062,0.0117187500,16.4489746094,-5.7678222656,24.7039794922
1.4301037788,-0.5947265625,0.0024414062,0.0117187500,16.4489746094,-5.7678222656,24.7039794922
1.4326758385,-0.6010742188,0.0073242188,0.0380859375,24.7802734375,-8.3465576172,15.4418945312
1.4352488518,-0.6010742188,0.0073242188,0.0380859375,24.7802734375,-8.3465576172,15.4418945312
1.4378449917,-0.6010742188,0.0073242188,0.0380859375,24.7802734375,-11.0626220703,4.5928955078
1.4405498505,-0.6010742188,0.0073242188,0.0380859375,26.2145996094,-11.0626220703,4.5928955078
1.4432449341,-0.6166992188,-0.2919921875,0.0629882812,26.2145996094,-12.1917724609,-2.0751953125
1.4459459782,-0.6166992188,-0.2919921875,0.0629882812,25.4821777344,-12.1917724609,-2.0751953125
1.4486539364,-0.6166992188,-0.2919921875,0.0629882812,25.4821777344,-12.8479003906,-6.1492919922
1.4513528347,-0.6166992188,-0.2119140625,0.0278320312,25.8026123047,-12.8479003906,-6.1492919922
1.4540569782,-0.6049804688,-0.2119140625,0.0278320312,29.7088623047,-14.5416259766,-10.7727050781
1.4567639828,-0.6049804688,-0.2119140625,0.0278320312,28.1372070312,-14.5416259766,-10.7727050781
1.4595170021,-0.6049804688,-0.2119140625,0.0278320312,32.0434570312,-16.5863037109,-18.5852050781
1.4622268677,-0.6098632812,-0.2070312500,0.0322265625,31.7687988281,-16.5863037109,-18.5852050781
1.4649357796,-0.6098632812,-0.2070312500,0.0322265625,35.6750488281,-18.9666748047,-27.7709960938
1.4676909447,-0.6098632812,-0.2070312500,0.0322265625,36.3464355469,-18.9666748047,-27.7709960938
1.4705028534,-0.6098632812,-0.2070312500,0.0322265625,40.2526855469,-19.9584960938,-37.4908447266
1.4732089043,-0.6401367188,-0.3393554688,0.0332031250,40.2374267578,-19.9584960938,-37.4908447266
1.4759149551,-0.6401367188,-0.3393554688,0.0332031250,40.2374267578,-20.1721191406,-46.2951660156
1.4785859585,-0.6401367188,-0.3393554688,0.0332031250,42.8619384766,-20.1721191406,-46.2951660156
1.4811639786,-0.6401367188,-0.3393554688,-0.0917968750,42.8619384766,-20.8892822266,-53.4515380859
1.4837357998,-0.6684570312,-0.3588867188,-0.0034179688,43.7927246094,-20.8892822266,-53.4515380859
1.4863119125,-0.6684570312,-0.3588867188,-0.0034179688,43.7927246094,-20.8892822266,-61.3555908203
1.4889688492,-0.6684570312,-0.3588867188,-0.0034179688,44.0063476562,-21.1334228516,-61.3555908203
1.4916808605,-0.6684570312,-0.3588867188,0.0083007812,44.0063476562,-21.1334228516,-68.8629150391
1.4943928719,-0.7363281250,-0.3574218750,0.0083007812,42.2668457031,-21.5454101562,-68.8629150391
1.4971017838,-0.7363281250,-0.3574218750,0.0083007812,42.2668457031,-21.5454101562,-72.0367431641
1.4998219013,-0.7363281250,-0.3574218750,0.0083007812,33.7524414062,-22.6745605469,-72.0367431641
1.5025279522,-0.8471679688,-0.0791015625,0.0253906250,33.7524414062,-22.6745605469,-71.8536376953
1.5052328110,-0.8471679688,-0.0791015625,0.0253906250,19.3328857422,-21.7590332031,-71.8536376953
1.5079488754,-0.8471679688,-0.0791015625,0.0253906250,19.3328857422,-21.7590332031,-67.8710937500
1.5106568336,-0.8471679688,-0.0791015625,0.0253906250,10.1623535156,-19.5007324219,-67.8710937500
1.5133628845,-0.9433593750,0.4677734375,0.0278320312,10.1623535156,-19.5007324219,-60.8673095703
1.5160708427,-0.9433593750,0.4677734375,0.0278320312,6.5765380859,-16.7083740234,-60.8673095703
1.5187878609,-0.9433593750,0.4677734375,0.0278320312,6.5765380859,-16.7083740234,-56.1370849609
1.5214858055,-0.9433593750,0.4677734375,-0.0971679688,4.0740966797,-14.6942138672,-56.1370849609
1.5241940022,-0.9409179688,0.5014648438,-0.0009765625,4.0740966797,-14.6942138672,-54.1992187500
1.5269019604,-0.9409179688,0.5014648438,-0.0009765625,1.8310546875,-12.8784179688,-54.1992187500
1.5295178890,-0.9409179688,0.5014648438,-0.0009765625,1.8310546875,-12.8784179688,-54.1992187500
1.5320940018,-0.9409179688,0.2514648438,-0.0161132812,0.8239746094,-11.4440917969,-52.8106689453
1.5347747803,-0.8491210938,0.3110351562,-0.0161132812,0.8239746094,-11.4440917969,-52.8106689453
1.5373499393,-0.8491210938,0.3110351562,-0.0161132812,1.7089843750,-10.8489990234,-52.5817871094
1.5400578976,-0.8491210938,0.3110351562,-0.0161132812,1.7089843750,-10.8489990234,-52.5817871094
1.5427639484,-0.8232421875,0.0869140625,-0.0488281250,2.9449462891,-10.6353759766,-52.9022216797
1.5454719067,-0.8232421875,0.0869140625,-0.0488281250,2.9449462891,-10.6353759766,-52.9022216797
1.5481848717,-0.8232421875,0.0869140625,-0.0488281250,3.0670166016,-10.2081298828,-52.1850585938
1.5508840084,-0.8232421875,0.0869140625,-0.0488281250,3.0670166016,-10.2081298828,-52.1850585938
1.5535848141,-0.8334960938,0.0205078125,-0.0327148438,2.0904541016,-9.5672607422,-51.0711669922
1.5562899113,-0.8334960938,0.0205078125,-0.0327148438,2.0904541016,-9.5672607422,-51.0711669922
1.5590038300,-0.8334960938,0.0205078125,-0.0327148438,-0.5493164062,-7.9040527344,-49.5605468750
1.5617058277,-0.8334960938,0.0205078125,-0.0327148438,-0.5493164062,-7.9040527344,-49.5605468750
1.5644078255,-0.8300781250,0.0659179688,-0.0175781250,-3.1127929688,-6.4697265625,-47.5311279297
1.5671098232,-0.8300781250,0.0659179688,-0.0175781250,-3.1127929688,-6.4697265625,-47.5311279297
1.5698199272,-0.8300781250,0.0659179688,-0.0175781250,-5.5541992188,-6.2408447266,-45.3033447266
1.5725178719,-0.8300781250,0.1909179688,-0.0034179688,-5.5541992188,-6.2408447266,-45.3033447266
1.5752217770,-0.8212890625,0.1601562500,-0.0034179688,-6.0729980469,-6.3934326172,-43.6401367188
1.5779139996,-0.8212890625,0.1601562500,-0.0034179688,-6.0729980469,-6.3934326172,-43.6401367188
1.5804867744,-0.8212890625,0.1601562500,-0.0034179688,-5.6152343750,-6.7596435547,-43.5638427734
1.5830578804,-0.8212890625,0.1997070312,0.0185546875,-5.6152343750,-6.7596435547,-43.5638427734
1.5856289864,-0.8032226562,0.1997070312,0.0185546875,-4.6081542969,-6.5917968750,-43.4112548828
1.5882449150,-0.8032226562,0.1997070312,0.0185546875,-4.6081542969,-6.5917968750,-43.4112548828
1.5909469128,-0.8032226562,0.1997070312,0.0185546875,-3.4332275391,-6.9122314453,-43.7011718750
1.5936498642,-0.8105468750,0.2041015625,0.0170898438,-3.4332275391,-6.9122314453,-43.7011718750
1.5963509083,-0.8105468750,0.2041015625,0.0170898438,-2.8991699219,-7.1868896484,-43.0755615234
1.5991599560,-0.8105468750,0.2041015625,0.0170898438,-2.8991699219,-7.1868896484,-43.0755615234
1.6018610001,-0.8105468750,0.2041015625,0.0170898438,-2.8381347656,-7.1716308594,-42.2821044922
1.6045629978,-0.8115234375,0.1552734375,0.0073242188,-2.8381347656,-7.1716308594,-42.2821044922
1.6072628498,-0.8115234375,0.1552734375,0.0073242188,-2.7618408203,-8.1024169922,-41.4886474609
1.6099758148,-0.8115234375,0.1552734375,0.0073242188,-2.7618408203,-8.1024169922,-41.4886474609
1.6126768589,-0.8115234375,0.1552734375,0.0209960938,-1.9378662109,-8.9874267578,-39.9932861328
1.6153798103,-0.7939453125,0.1435546875,0.0209960938,-1.9378662109,-8.9874267578,-39.9932861328
1.6181249619,-0.7939453125,0.1435546875,0.0209960938,0.7324218750,-9.6893310547,-39.1387939453
1.6208178997,-0.7939453125,0.1435546875,0.0209960938,0.7324218750,-9.6893310547,-39.1387939453
1.6235179901,-0.7832031250,0.1313476562,0.0307617188,4.1656494141,-9.9945068359,-38.1622314453
1.6262168884,-0.7832031250,0.1313476562,0.0307617188,4.1656494141,-9.9945068359,-38.1622314453
1.6288619041,-0.7832031250,0.1313476562,0.0307617188,6.1187744141,-10.4064941406,-37.6281738281
1.6314377785,-0.7832031250,0.1313476562,0.0307617188,6.1187744141,-10.4064941406,-37.6281738281
1.6340098381,-0.7749023438,0.1137695312,0.0395507812,6.5307617188,-10.7116699219,-36.9262695312
1.6365828514,-0.7749023438,0.1137695312,0.0395507812,6.5307617188,-10.7116699219,-36.9262695312
1.6392478943,-0.7749023438,0.1137695312,0.0395507812,6.5307617188,-10.5590820312,-35.5529785156
1.6419548988,-0.7749023438,0.1137695312,0.0395507812,6.8054199219,-10.5590820312,-35.5529785156
1.6446638107,-0.7641601562,0.1259765625,0.0507812500,6.8054199219,-10.6811523438,-33.7066650391
1.6473648548,-0.7641601562,0.1259765625,0.0507812500,6.6375732422,-10.6811523438,-33.7066650391
1.6501109600,-0.7641601562,0.1259765625,0.0507812500,6.6375732422,-10.3302001953,-31.6009521484
1.6528158188,-0.7641601562,0.1259765625,0.0507812500,5.5389404297,-10.3302001953,-31.6009521484
1.6555237770,-0.7558593750,0.1289062500,0.0473632812,5.5389404297,-10.7421875000,-29.6325683594
1.6582338810,-0.7558593750,0.1289062500,0.0473632812,4.3487548828,-10.7421875000,-29.6325683594
1.6609389782,-0.7558593750,0.1289062500,0.0473632812,4.3487548828,-10.0097656250,-26.8402099609
1.6637468338,-0.7558593750,0.0815429688,0.0341796875,4.9896240234,-10.0097656250,-26.8402099609
1.6664519310,-0.7519531250,0.0815429688,0.0341796875,4.9896240234,-9.4757080078,-24.4903564453
1.6691689491,-0.7519531250,0.0815429688,0.0341796875,4.3029785156,-9.4757080078,-24.4903564453
1.6718659401,-0.7519531250,0.0815429688,0.0341796875,4.3029785156,-9.1400146484,-22.5677490234
1.6745657921,-0.7729492188,0.0595703125,0.0234375000,4.1503906250,-9.1400146484,-22.5677490234
1.6772627831,-0.7729492188,0.0595703125,0.0234375000,4.1503906250,-8.3770751953,-20.8587646484
1.6798548698,-0.7729492188,0.0595703125,0.0234375000,4.0740966797,-8.3770751953,-20.8587646484
1.6824259758,-0.7729492188,0.0595703125,0.0234375000,4.0740966797,-8.3770751953,-19.6228027344
1.6849958897,-0.7749023438,0.1230468750,0.0283203125,3.1433105469,-8.0413818359,-19.6228027344
1.6875708103,-0.7749023438,0.1230468750,0.0283203125,3.1433105469,-8.0413818359,-17.6239013672
1.6902728081,-0.7749023438,0.1230468750,0.0283203125,2.0446777344,-8.1481933594,-17.6239013672
1.6929709911,-0.7749023438,0.1230468750,0.0283203125,2.0446777344,-8.1481933594,-15.7470703125
1.6956689358,-0.7573242188,0.1757812500,0.0024414062,2.0141601562,-8.5906982422,-15.7470703125
1.6983809471,-0.7573242188,0.1757812500,0.0024414062,2.0141601562,-8.5906982422,-14.7705078125
1.7010807991,-0.7573242188,0.1757812500,0.0024414062,2.0446777344,-7.8277587891,-14.7705078125
1.7037808895,-0.7573242188,0.1757812500,-0.0322265625,2.0446777344,-7.8277587891,-13.3514404297
1.7064788342,-0.7416992188,0.1674804688,-0.0322265625,2.7770996094,-7.0495605469,-13.3514404297
1.7091848850,-0.7416992188,0.1674804688,-0.0322265625,2.7770996094,-7.0495605469,-12.1002197266
1.7119529247,-0.7416992188,0.1674804688,-0.0322265625,2.8381347656,-7.2174072266,-12.1002197266
1.7145268917,-0.7246093750,0.1435546875,-0.0527343750,2.8381347656,-7.2174072266,-12.1002197266
1.7171018124,-0.7246093750,0.1435546875,-0.0527343750,2.2583007812,-7.2631835938,-10.6201171875
1.7197659016,-0.7246093750,0.1435546875,-0.0527343750,2.2583007812,-7.2631835938,-10.6201171875
1.7223379612,-0.7246093750,0.1435546875,-0.0527343750,1.8463134766,-7.4615478516,-9.0637207031
1.7250227928,-0.7250976562,0.1308593750,-0.0424804688,1.8463134766,-7.4615478516,-9.0637207031
1.7295320034,-0.7250976562,0.1308593750,-0.0424804688,1.0375976562,-7.4005126953,-7.3852539062
1.7322409153,-0.7250976562,0.1308593750,-0.0424804688,0.4272460938,-6.7443847656,-5.9509277344
1.7349379063,-0.7333984375,0.1357421875,-0.0141601562,0.4272460938,-6.7443847656,-5.9509277344
1.7376887798,-0.7333984375,0.1357421875,-0.0141601562,0.5950927734,-6.5307617188,-4.8828125000
1.7407758236,-0.7333984375,0.1357421875,-0.0141601562,0.5950927734,-6.5307617188,-4.8828125000
1.7433388233,-0.7333984375,0.1357421875,-0.0141601562,1.4953613281,-6.7901611328,-3.6163330078
1.7459027767,-0.7275390625,0.1196289062,0.0102539062,1.4953613281,-6.7901611328,-3.6163330078
1.7485280037,-0.7275390625,0.1196289062,0.0102539062,0.9307861328,-6.3629150391,-2.1667480469
1.7510938644,-0.7275390625,0.1196289062,0.0102539062,0.9307861328,-6.3629150391,-2.1667480469
1.7536568642,-0.7275390625,0.1196289062,0.0102539062,-2.9754638672,-6.0119628906,-0.6256103516
1.7562158108,-0.7363281250,0.1147460938,0.0205078125,-0.4272460938,-6.0119628906,-0.6256103516
1.7587850094,-0.7363281250,0.1147460938,0.0205078125,-0.4272460938,-6.0119628906,0.4730224609
1.7613518238,-0.7363281250,0.1147460938,0.0205078125,-1.4648437500,-5.1116943359,0.4730224609
1.7639148235,-0.7363281250,0.1147460938,0.0205078125,-1.4648437500,-5.1116943359,1.5716552734
1.7664759159,-0.7377929688,0.1308593750,0.0151367188,-1.9683837891,-4.6691894531,1.5716552734
1.7690849304,-0.7377929688,0.1308593750,0.0151367188,-1.9683837891,-4.6691894531,1.5716552734
1.7716519833,-0.7377929688,0.1308593750,0.0151367188,-2.3956298828,-4.4403076172,3.4179687500
1.7742118835,-0.7377929688,0.1308593750,0.0385742188,-2.3956298828,-4.4403076172,3.4179687500
1.7767658234,-0.7280273438,0.1469726562,0.0385742188,-2.5482177734,-3.8604736328,4.4708251953
1.7793397903,-0.7280273438,0.1469726562,0.0385742188,-2.5482177734,-3.8604736328,4.4708251953
1.7819089890,-0.7280273438,0.1469726562,0.0385742188,-2.1972656250,-2.9144287109,5.1422119141
1.7844798565,-0.7280273438,0.0219726562,0.0283203125,-2.1972656250,-2.9144287109,5.1422119141
1.7870459557,-0.7338867188,0.1191406250,0.0283203125,-2.1667480469,-2.3498535156,5.9509277344
1.7897689342,-0.7338867188,0.1191406250,0.0283203125,-2.1667480469,-2.3498535156,5.9509277344
1.7923359871,-0.7338867188,0.1191406250,0.0283203125,-1.9378662109,-2.0446777344,6.6528320312
1.7950267792,-0.8588867188,0.1328125000,0.0419921875,-1.9378662109,-2.0446777344,6.6528320312
1.7977738380,-0.7529296875,0.1328125000,0.0419921875,-1.9073486328,-1.6632080078,7.5683593750
1.8004689217,-0.7529296875,0.1328125000,0.0419921875,-1.9073486328,-1.6632080078,7.5683593750
1.8031649590,-0.7529296875,0.1328125000,0.0419921875,-1.8615722656,-1.3885498047,8.6364746094
1.8058619499,-0.7250976562,0.1733398438,0.0366210938,-1.8615722656,-1.3885498047,8.6364746094
1.8085730076,-0.7250976562,0.1733398438,0.0366210938,-1.6021728516,-1.6174316406,9.2010498047
1.8112728596,-0.7250976562,0.1733398438,0.0366210938,-1.6021728516,-1.6174316406,9.2010498047
1.8139719963,-0.7250976562,0.1733398438,0.0366210938,-0.6103515625,-1.1291503906,9.6893310547
1.8166689873,-0.7182617188,0.1752929688,0.0200195312,-0.6103515625,-1.1291503906,9.6893310547
1.8193778992,-0.7182617188,0.1752929688,0.0200195312,-0.1373291016,-0.7781982422,10.4827880859
1.8220829964,-0.7182617188,0.1752929688,0.0200195312,-0.1373291016,-0.7781982422,10.4827880859
1.8247859478,-0.7182617188,0.1752929688,-0.0034179688,-0.0305175781,-0.9613037109,11.1694335938
1.8274998665,-0.7270507812,0.1713867188,-0.0034179688,-0.0305175781,-0.9613037109,11.1694335938
1.8300719261,-0.7270507812,0.1713867188,-0.0034179688,-0.3814697266,-0.9613037109,11.7340087891
1.8326468468,-0.7270507812,0.1713867188,-0.0034179688,-0.3814697266,-0.9613037109,11.7340087891
1.8352239132,-0.7270507812,0.1606445312,0.0073242188,-0.3814697266,-0.4119873047,12.8021240234
1.8378338814,-0.7255859375,0.1606445312,0.0073242188,-0.5187988281,-0.4119873047,12.8021240234
1.8405377865,-0.7255859375,0.1606445312,0.0073242188,-0.5187988281,-0.5340576172,14.1143798828
1.8432497978,-0.7255859375,0.1606445312,0.0073242188,-0.9918212891,-0.5340576172,14.1143798828
1.8459568024,-0.7290039062,0.1499023438,-0.0024414062,-0.9918212891,-0.5493164062,15.8233642578
1.8487107754,-0.7290039062,0.1499023438,-0.0024414062,-2.2583007812,-0.5493164062,15.8233642578
1.8514149189,-0.7290039062,0.1499023438,-0.0024414062,-2.2583007812,-0.4272460938,17.2119140625
1.8542017937,-0.7290039062,0.1499023438,-0.0024414062,-2.3040771484,-0.4272460938,17.2119140625
1.8569169044,-0.7324218750,0.1401367188,0.0063476562,-2.3040771484,-0.2899169922,18.5852050781
1.8597528934,-0.7324218750,0.1401367188,0.0063476562,-2.4871826172,-0.2899169922,18.5852050781
1.8624529839,-0.7324218750,0.1401367188,0.0063476562,-2.4871826172,-0.4272460938,19.7601318359
1.8651628494,-0.7324218750,0.1401367188,0.0048828125,-2.6245117188,-0.4272460938,19.7601318359
1.8679199219,-0.7309570312,0.1591796875,0.0048828125,-2.6245117188,0.0457763672,21.7590332031
1.8706209660,-0.7309570312,0.1591796875,0.0048828125,-2.7008056641,0.0457763672,21.7590332031
1.8733298779,-0.7309570312,0.1591796875,0.0048828125,-2.7008056641,0.0457763672,23.4680175781
1.8760299683,-0.7226562500,0.1777343750,0.0151367188,-2.4414062500,0.0457763672,23.4680175781
1.8786938190,-0.7226562500,0.1777343750,0.0151367188,-2.4414062500,-0.0152587891,24.1088867188
1.8812639713,-0.7226562500,0.1777343750,0.0151367188,-1.8920898438,-0.0152587891,24.1088867188
1.8838369846,-0.7226562500,0.1777343750,0.0151367188,-1.8920898438,-0.0152587891,25.1007080078
1.8864150047,-0.7138671875,0.1821289062,0.0092773438,-1.1901855469,-0.4272460938,25.1007080078
1.8890388012,-0.7138671875,0.1821289062,0.0092773438,-1.1901855469,-0.4272460938,25.9094238281
1.8916099072,-0.7138671875,0.1821289062,0.0092773438,-0.3662109375,-0.7324218750,25.9094238281
1.8941888809,-0.7138671875,0.1821289062,0.0092773438,-0.3662109375,-0.7324218750,25.9094238281
1.8968060017,-0.7128906250,0.1826171875,0.0180664062,0.6713867188,-0.8239746094,28.0761718750
1.8995018005,-0.7128906250,0.1826171875,0.0180664062,0.6713867188,-0.8239746094,29.8156738281
1.9026498795,-0.7128906250,0.1826171875,0.0180664062,1.2969970703,-0.7781982422,33.7219238281
1.9079329967,-0.7138671875,0.1611328125,0.0146484375,1.7547607422,-1.0528564453,31.4331054688
1.9116618633,-0.7138671875,0.1611328125,0.0146484375,3.4942626953,-1.1596679688,39.9017333984
1.9289968014,-0.7290039062,0.1352539062,0.0297851562,4.3792724609,-1.3427734375,43.2128906250
1.9322137833,-0.7290039062,0.1352539062,0.0297851562,4.3334960938,-1.4953613281,46.9512939453
1.9367718697,-0.7348632812,0.1264648438,0.0385742188,4.3334960938,-1.4953613281,50.9490966797
1.9412758350,-0.7348632812,0.1264648438,0.0385742188,4.0893554688,-1.8920898438,50.9490966797
1.9447028637,-0.7348632812,0.1264648438,0.0385742188,3.2348632812,-2.2583007812,55.1452636719
1.9474508762,-0.7363281250,0.1059570312,0.0288085938,3.2348632812,-2.2583007812,55.1452636719
1.9500188828,-0.7363281250,0.1059570312,0.0288085938,2.5634765625,-3.2806396484,59.5855712891
1.9525909424,-0.7363281250,0.1059570312,0.0288085938,2.5634765625,-3.2806396484,59.5855712891
1.9551579952,-0.7363281250,0.1059570312,0.0288085938,1.4038085938,-3.6010742188,64.4531250000
1.9577698708,-0.7719726562,0.1020507812,0.0180664062,1.4038085938,-3.6010742188,64.4531250000
1.9603419304,-0.7719726562,0.1020507812,0.0180664062,1.4038085938,-3.6010742188,68.8934326172
1.9629158974,-0.7719726562,0.1020507812,0.0180664062,0.3051757812,-3.6010742188,68.8934326172
1.9654839039,-0.7719726562,0.1020507812,0.0180664062,0.3051757812,-3.6010742188,73.6083984375
1.9681148529,-0.8017578125,0.0952148438,-0.0156250000,-0.5493164062,-3.5552978516,73.6083984375
1.9706859589,-0.8017578125,0.0952148438,-0.0156250000,-0.5493164062,-3.5552978516,78.1707763672
1.9732468128,-0.8017578125,0.0952148438,-0.0156250000,-1.5411376953,-4.4403076172,78.1707763672
1.9758129120,-0.8017578125,0.0952148438,-0.0156250000,-1.5411376953,-4.4403076172,78.1707763672
1.9783937931,-0.8120117188,0.1201171875,-0.0385742188,-1.3580322266,-5.7678222656,82.9925537109
1.9809658527,-0.8120117188,0.1201171875,-0.0385742188,-1.3580322266,-5.7678222656,82.9925537109
1.9835398197,-0.8120117188,0.1201171875,-0.0385742188,-1.0528564453,-6.9274902344,86.6088867188
1.9861099720,-0.8120117188,0.1201171875,-0.0385742188,-1.0528564453,-6.9274902344,86.6088867188
1.9888298512,-0.8330078125,0.1464843750,-0.0390625000,-1.0833740234,-8.0108642578,90.7745361328
1.9914088249,-0.8330078125,0.1464843750,-0.0390625000,-1.0833740234,-8.0108642578,90.7745361328
1.9939789772,-0.8330078125,0.1464843750,-0.0390625000,-3.4027099609,-8.8195800781,95.5047607422
1.9965519905,-0.8330078125,0.0214843750,-0.0498046875,-3.4027099609,-8.8195800781,95.5047607422
1.9993309975,-0.8613281250,0.1030273438,-0.0498046875,-7.2784423828,-9.4299316406,99.8687744141
2.0020349026,-0.8613281250,0.1030273438,-0.0498046875,-7.2784423828,-9.4299316406,99.8687744141
2.0047349930,-0.8613281250,0.1030273438,-0.0498046875,-10.8489990234,-7.8735351562,103.1341552734
2.0074489117,-0.8496093750,0.1215820312,-0.0297851562,-10.8489990234,-7.8735351562,103.1341552734
2.0102729797,-0.8496093750,0.1215820312,-0.0297851562,-13.9770507812,-5.5541992188,106.2622070312
2.0129878521,-0.8496093750,0.1215820312,-0.0297851562,-13.9770507812,-5.5541992188,106.2622070312
2.0156879425,-0.8496093750,0.1215820312,-0.0297851562,-17.1661376953,-3.8604736328,110.0311279297
2.0184078217,-0.7729492188,0.1967773438,0.0190429688,-17.1661376953,-3.8604736328,110.0311279297
2.0211148262,-0.7729492188,0.1967773438,0.0190429688,-19.7296142578,-3.7994384766,111.8316650391
2.0238189697,-0.7729492188,0.1967773438,0.0190429688,-19.7296142578,-3.7994384766,111.8316650391
2.0265209675,-0.7729492188,0.1967773438,0.0190429688,-18.2189941406,-4.2877197266,110.8093261719
2.0291569233,-0.7568359375,0.2656250000,0.0712890625,-18.2189941406,-4.2877197266,110.8093261719
2.0317318439,-0.7568359375,0.2656250000,0.0712890625,-14.8925781250,-4.0435791016,109.4360351562
2.0342998505,-0.7568359375,0.2656250000,0.0712890625,-14.8925781250,-4.0435791016,109.4360351562
2.0368728638,-0.7568359375,0.2656250000,0.0766601562,-12.9394531250,-4.6081542969,108.2916259766
2.0396139622,-0.7788085938,0.3344726562,0.0766601562,-12.9394531250,-4.6081542969,108.2916259766
2.0422818661,-0.7788085938,0.3344726562,0.0766601562,-10.8642578125,-4.8370361328,108.2305908203
2.0449469090,-0.7788085938,0.3344726562,0.0766601562,-10.8642578125,-4.8370361328,108.2305908203
2.0476899147,-0.7465820312,0.2978515625,0.0849609375,-8.7127685547,-6.4544677734,108.6425781250
2.0503900051,-0.7465820312,0.2978515625,0.0849609375,-8.7127685547,-6.4544677734,108.6425781250
2.0530929565,-0.7465820312,0.2978515625,0.0849609375,-4.4250488281,-7.7362060547,108.0474853516
2.0558309555,-0.7465820312,0.2978515625,0.0849609375,-4.4250488281,-7.7362060547,108.0474853516
2.0585489273,-0.6611328125,0.3378906250,0.0893554688,-1.4038085938,-8.4075927734,107.1166992188
2.0612487793,-0.6611328125,0.3378906250,0.0893554688,-1.4038085938,-8.4075927734,107.1166992188
2.0639498234,-0.6611328125,0.3378906250,0.0893554688,1.0986328125,-9.5825195312,105.7434082031
2.0666577816,-0.6611328125,0.3378906250,0.0893554688,1.0986328125,-9.5825195312,105.7434082031
2.0693719387,-0.5336914062,0.4404296875,0.0878906250,1.0986328125,-10.8032226562,103.5614013672
2.0720779896,-0.5336914062,0.4404296875,0.0878906250,3.7536621094,-10.8032226562,103.5614013672
2.0748968124,-0.5336914062,0.4404296875,0.0878906250,5.8288574219,-11.5203857422,100.8453369141
2.0776507854,-0.5336914062,0.4990234375,0.0590820312,5.8288574219,-11.5203857422,100.8453369141
2.0802338123,-0.4541015625,0.4990234375,0.0590820312,9.7351074219,-12.2680664062,97.5189208984
2.0828068256,-0.4541015625,0.4990234375,0.0590820312,8.2855224609,-12.2680664062,97.5189208984
2.0853807926,-0.4541015625,0.4990234375,0.0590820312,8.2855224609,-12.2680664062,93.6584472656
2.0879688263,-0.5791015625,0.4794921875,0.0166015625,10.9100341797,-12.6800537109,93.6584472656
2.0905508995,-0.5112304688,0.4794921875,0.0166015625,10.9100341797,-12.6800537109,90.9423828125
2.0931339264,-0.5112304688,0.4794921875,0.0166015625,13.7176513672,-13.3819580078,90.9423828125
2.0957078934,-0.5112304688,0.4794921875,0.0166015625,13.7176513672,-13.3819580078,89.3707275391
2.0984218121,-0.6640625000,0.3583984375,-0.0522460938,14.3890380859,-13.8244628906,89.3707275391
2.1010088921,-0.6640625000,0.3583984375,-0.0522460938,14.3890380859,-13.8244628906,89.3707275391
2.1035888195,-0.6640625000,0.3583984375,-0.0522460938,12.7258300781,-13.7481689453,89.2486572266
2.1061658859,-0.6640625000,0.3583984375,-0.0522460938,12.7258300781,-13.7481689453,89.2486572266
2.1089179516,-0.6494140625,0.2338867188,-0.0942382812,8.8653564453,-12.1154785156,90.5914306641
2.1114997864,-0.6494140625,0.2338867188,-0.0942382812,8.8653564453,-12.1154785156,90.5914306641
2.1140818596,-0.6494140625,0.2338867188,-0.0942382812,1.1444091797,-10.2081298828,92.5903320312
2.1166539192,-0.6494140625,0.2338867188,-0.0942382812,1.1444091797,-10.2081298828,92.5903320312
2.1192808151,-0.4541015625,0.3144531250,-0.0258789062,-5.7067871094,-9.5825195312,93.8873291016
2.1218538284,-0.4541015625,0.3144531250,-0.0258789062,-5.7067871094,-9.5825195312,93.8873291016
2.1244218349,-0.4541015625,0.3144531250,-0.0258789062,-12.7563476562,-9.1857910156,92.0104980469
2.1269958019,-0.4541015625,0.3144531250,-0.0258789062,-12.7563476562,-9.1857910156,92.0104980469
2.1296489239,-0.2993164062,0.4985351562,0.0556640625,-19.2413330078,-7.3242187500,89.1723632812
2.1322228909,-0.2993164062,0.4985351562,0.0556640625,-19.2413330078,-7.3242187500,89.1723632812
2.1348028183,-0.2993164062,0.4985351562,0.0556640625,-23.5137939453,-5.4321289062,85.2966308594
2.1374888420,-0.2993164062,0.4985351562,0.0556640625,-23.5137939453,-5.4321289062,85.2966308594
2.1400640011,-0.1601562500,0.5122070312,0.1230468750,-23.5137939453,-5.1269531250,79.8187255859
2.1426358223,-0.1601562500,0.5122070312,0.1230468750,-25.8178710938,-5.1269531250,79.8187255859
2.1452097893,-0.1601562500,0.5122070312,0.1230468750,-25.8178710938,-1.2207031250,72.7386474609
2.1477828026,-0.1601562500,0.5122070312,0.2148437500,-23.7121582031,-3.7689208984,72.7386474609
2.1503617764,-0.2021484375,0.5937500000,0.2148437500,-23.7121582031,-3.7689208984,65.2465820312
2.1529319286,-0.2021484375,0.5937500000,0.2148437500,-20.0653076172,-2.3040771484,65.2465820312
2.1555058956,-0.2021484375,0.5937500000,0.2148437500,-20.0653076172,-2.3040771484,57.4340820312
2.1581168175,-0.2021484375,0.5937500000,0.2290039062,-15.1214599609,-1.5106201172,58.1359863281
2.1606919765,-0.3090820312,0.6440429688,0.2290039062,-15.1214599609,-1.5106201172,58.1359863281
2.1632699966,-0.3090820312,0.6440429688,0.2290039062,-9.2773437500,-3.2806396484,50.6744384766
2.1658349037,-0.3090820312,0.6440429688,0.2290039062,-9.2773437500,-3.2806396484,50.6744384766
2.1684079170,-0.3090820312,0.5190429688,0.1250000000,-4.6691894531,-5.1574707031,44.4335937500
2.1709859371,-0.5332031250,0.5908203125,0.1250000000,-4.6691894531,-5.1574707031,44.4335937500
2.1735568047,-0.5332031250,0.5908203125,0.1250000000,-2.0294189453,-3.6926269531,39.5507812500
2.1761319637,-0.5332031250,0.5908203125,0.1250000000,-2.0294189453,-3.6926269531,39.5507812500
2.1787929535,-0.7832031250,0.5834960938,-0.0312500000,0.2136230469,-0.7171630859,36.0260009766
2.1814959049,-0.8544921875,0.5834960938,-0.0312500000,0.2136230469,-0.7171630859,36.0260009766
2.1842019558,-0.8544921875,0.5834960938,-0.0312500000,0.4119873047,1.9226074219,34.7900390625
2.1869008541,-0.8544921875,0.5834960938,-0.0312500000,0.4119873047,1.9226074219,34.7900390625
2.1896197796,-1.0346679688,0.5522460938,-0.1542968750,-1.0681152344,5.2795410156,34.5764160156
2.1923279762,-1.0346679688,0.5522460938,-0.1542968750,-1.0681152344,5.2795410156,34.5764160156
2.1950318813,-1.0346679688,0.5522460938,-0.1542968750,-3.6163330078,9.2163085938,35.8276367188
2.1977508068,-1.0346679688,0.5522460938,-0.1542968750,-3.6163330078,9.2163085938,35.8276367188
2.2005639076,-1.0668945312,0.5205078125,-0.1655273438,-5.3863525391,12.2680664062,36.8347167969
2.2032718658,-1.0668945312,0.5205078125,-0.1655273438,-5.3863525391,12.2680664062,36.8347167969
2.2059788704,-1.0668945312,0.5205078125,-0.1655273438,-8.1939697266,14.3280029297,37.7349853516
2.2087328434,-1.0668945312,0.3955078125,-0.1147460938,-8.1939697266,14.3280029297,37.7349853516
2.2114329338,-0.8901367188,0.4350585938,-0.1147460938,-13.6718750000,15.4113769531,38.2537841797
2.2141468525,-0.8901367188,0.4350585938,-0.1147460938,-13.6718750000,15.4113769531,38.2537841797
2.2168509960,-0.8901367188,0.4350585938,-0.1147460938,-19.7906494141,16.1743164062,36.9415283203
2.2194828987,-0.4863281250,0.4951171875,-0.0522460938,-19.7906494141,16.1743164062,36.9415283203
2.2220609188,-0.4863281250,0.4951171875,-0.0522460938,-23.7884521484,16.5100097656,33.2336425781
2.2246417999,-0.4863281250,0.4951171875,-0.0522460938,-23.7884521484,16.5100097656,33.2336425781
2.2272238731,-0.4863281250,0.4951171875,-0.0522460938,-25.6195068359,15.7928466797,27.1301269531
2.2299609184,-0.1596679688,0.5683593750,-0.0239257812,-25.6195068359,15.7928466797,27.1301269531
2.2326669693,-0.1596679688,0.5683593750,-0.0239257812,-25.6195068359,15.0299072266,19.9432373047
2.2353818417,-0.1596679688,0.5683593750,-0.0239257812,-25.3143310547,15.0299072266,19.9432373047
2.2381589413,-0.1596679688,0.5683593750,-0.0239257812,-25.4211425781,14.2974853516,11.4288330078
2.2408719063,0.1040039062,0.5864257812,0.0537109375,-25.4211425781,14.2974853516,11.4288330078
2.2435798645,0.1040039062,0.5864257812,0.0537109375,-25.4211425781,13.0310058594,2.2735595703
2.2462859154,0.1040039062,0.5864257812,0.0537109375,-23.7426757812,13.0310058594,2.2735595703
2.2490079403,0.1040039062,0.7114257812,0.1748046875,-15.9301757812,11.6577148438,-8.4075927734
2.2517168522,0.1157226562,0.6875000000,0.1748046875,-18.6614990234,11.6577148438,-8.4075927734
2.2544269562,0.1157226562,0.6875000000,0.1748046875,-14.7552490234,8.2855224609,-21.1944580078
2.2571358681,0.1157226562,0.6875000000,0.1748046875,-11.8560791016,8.2855224609,-21.1944580078
2.2598538399,-0.1904296875,0.6323242188,0.2402343750,-4.0435791016,3.4179687500,-33.2794189453
2.2625629902,-0.1904296875,0.6323242188,0.2402343750,-6.5460205078,3.4179687500,-33.2794189453
2.2653748989,-0.1904296875,0.6323242188,0.2402343750,-2.7618408203,-0.2288818359,-42.9840087891
2.2680988312,-0.1904296875,0.6323242188,0.2402343750,-2.7618408203,-0.2288818359,-42.9840087891
2.2706789970,-0.5986328125,0.5820312500,0.2333984375,-2.7618408203,-2.4108886719,-51.3153076172
2.2732520103,-0.5986328125,0.5820312500,0.2333984375,-1.4648437500,-2.4108886719,-51.3153076172
2.2758219242,-0.5986328125,0.5820312500,0.2333984375,-1.4648437500,-6.3171386719,-58.5327148438
2.2784578800,-0.5986328125,0.5820312500,0.2333984375,1.2054443359,-6.0119628906,-58.5327148438
2.2811629772,-0.8876953125,0.5834960938,0.1928710938,1.2054443359,-9.9182128906,-67.2149658203
2.2838709354,-0.8876953125,0.5834960938,0.1928710938,2.8533935547,-10.3454589844,-67.2149658203
2.2865748405,-0.8876953125,0.5834960938,0.1928710938,2.8533935547,-14.2517089844,-75.3936767578
2.2893249989,-0.8876953125,0.5834960938,0.0849609375,2.5177001953,-14.7705078125,-75.3936767578
2.2920370102,-1.0014648438,0.6093750000,0.0849609375,2.5177001953,-14.7705078125,-82.8552246094
2.2947418690,-1.0014648438,0.6093750000,0.0849609375,1.3275146484,-18.8446044922,-82.8552246094
2.2974557877,-1.0014648438,0.6093750000,0.0849609375,1.3275146484,-18.8446044922,-91.6900634766
2.3001689911,-1.0014648438,0.6401367188,-0.0610351562,-0.3967285156,-19.7753906250,-91.6900634766
2.3028759956,-1.0297851562,0.6401367188,-0.0610351562,-0.3967285156,-19.7753906250,-99.5483398438
2.3055868149,-1.0297851562,0.6401367188,-0.0610351562,-3.0670166016,-20.4315185547,-99.5483398438
2.3083398342,-1.0297851562,0.6401367188,-0.0610351562,-3.0670166016,-20.4315185547,-107.8491210938
2.3110449314,-1.0161132812,0.7197265625,-0.0874023438,-5.3100585938,-23.0560302734,-107.8491210938
2.3137598038,-1.0161132812,0.7197265625,-0.0874023438,-5.3100585938,-23.0560302734,-118.3319091797
2.3164699078,-1.0161132812,0.7197265625,-0.0874023438,-6.7749023438,-24.2614746094,-118.3319091797
2.3191118240,-1.0161132812,0.7197265625,-0.0874023438,-6.7749023438,-24.2614746094,-130.5541992188
2.3216929436,-1.0688476562,0.7646484375,-0.0922851562,-5.2490234375,-23.6511230469,-130.5541992188
2.3242678642,-1.0688476562,0.7646484375,-0.0922851562,-5.2490234375,-23.6511230469,-130.5541992188
2.3268458843,-1.0688476562,0.7646484375,-0.0922851562,-2.1667480469,-21.9726562500,-144.4854736328
2.3296740055,-1.0688476562,0.7646484375,-0.1230468750,-2.1667480469,-21.9726562500,-160.1104736328
2.3323829174,-1.2348632812,0.8242187500,-0.1230468750,5.0506591797,-18.8598632812,-159.1491699219
2.3350949287,-1.2348632812,0.8242187500,-0.1230468750,5.0506591797,-18.8598632812,-170.8679199219
2.3378119469,-1.2348632812,0.8242187500,-0.1230468750,16.0064697266,-15.0451660156,-171.6156005859
2.3405239582,-1.6098632812,0.9243164062,-0.1499023438,16.0064697266,-15.0451660156,-183.3343505859
2.3432388306,-1.6196289062,0.9243164062,-0.1499023438,31.0211181641,-9.5367431641,-179.9926757812
2.3459479809,-1.6196289062,0.9243164062,-0.1499023438,31.0211181641,-9.5367431641,-179.9926757812
2.3486678600,-1.6196289062,0.9243164062,-0.1499023438,50.1861572266,-4.0435791016,-185.8520507812
2.3513748646,-1.8808593750,0.8383789062,-0.1235351562,50.1861572266,-4.0435791016,-185.8520507812
2.3540818691,-1.8808593750,0.8383789062,-0.1235351562,73.0285644531,1.3275146484,-193.2678222656
2.3567957878,-1.8808593750,0.8383789062,-0.1235351562,73.0285644531,1.3275146484,-193.2678222656
2.3595149517,-1.8808593750,0.8383789062,-0.1235351562,92.1630859375,4.2114257812,-203.1555175781
2.3622229099,-1.9575195312,0.4042968750,-0.0571289062,92.1630859375,4.2114257812,-203.1555175781
2.3649339676,-1.9575195312,0.4042968750,-0.0571289062,88.5620117188,5.0354003906,-213.4094238281
2.3676819801,-1.9575195312,0.4042968750,-0.0571289062,88.5620117188,5.0354003906,-213.4094238281
2.3702638149,-1.9575195312,0.4042968750,0.0361328125,85.2508544922,2.0751953125,-228.3782958984
2.3728389740,-1.9448242188,-0.1699218750,0.0361328125,85.2508544922,2.0751953125,-228.3782958984
2.3754138947,-1.9448242188,-0.1699218750,0.0361328125,94.4366455078,-2.0141601562,-237.1978759766
2.3780789375,-1.9448242188,-0.1699218750,0.0361328125,94.4366455078,-2.0141601562,-237.1978759766
2.3807878494,-1.9448242188,-0.3525390625,0.1997070312,87.6159667969,-0.3814697266,-236.2518310547
2.3834948540,-1.7182617188,-0.3525390625,0.1997070312,87.6159667969,-0.3814697266,-236.2518310547
2.3862099648,-1.7182617188,-0.3525390625,0.1997070312,75.0122070312,2.0904541016,-236.1755371094
2.3889279366,-1.7182617188,-0.3525390625,0.1997070312,75.0122070312,2.0904541016,-236.1755371094
2.3916368484,-1.2719726562,-0.4516601562,0.2407226562,66.1163330078,2.0446777344,-243.8812255859
2.3944609165,-1.2719726562,-0.4516601562,0.2407226562,66.1163330078,2.0446777344,-243.8812255859
2.3971698284,-1.2719726562,-0.4516601562,0.2407226562,57.9223632812,10.6506347656,-245.3002929688
2.3999278545,-1.2719726562,-0.4516601562,0.2407226562,57.9223632812,10.6506347656,-245.3002929688
2.4026319981,-1.0991210938,-0.2441406250,0.0859375000,50.9490966797,21.2707519531,-239.7766113281
2.4053428173,-1.0991210938,-0.2441406250,0.0859375000,50.9490966797,21.2707519531,-239.7766113281
2.4080629349,-1.0991210938,-0.2441406250,0.0859375000,47.3022460938,31.1279296875,-228.3020019531
2.4107749462,-1.0991210938,0.3808593750,-0.0600585938,47.3022460938,31.1279296875,-228.3020019531
2.4134948254,-1.3125000000,0.4692382812,-0.0600585938,29.8767089844,38.8488769531,-202.1179199219
2.4162068367,-1.3125000000,0.4692382812,-0.0600585938,29.8767089844,38.8488769531,-202.1179199219
2.4188559055,-1.3125000000,0.4692382812,-0.0600585938,5.2795410156,45.3033447266,-149.8413085938
2.4214379787,-1.5341796875,1.9638671875,0.3959960938,5.2795410156,45.3033447266,-149.8413085938
2.4240119457,-1.5341796875,1.9638671875,0.3959960938,6.4086914062,54.3670654297,-109.0087890625
2.4266519547,-1.5341796875,1.9638671875,0.3959960938,6.4086914062,54.3670654297,-109.0087890625
2.4294970036,-1.5341796875,1.9638671875,0.3959960938,24.3988037109,63.7054443359,-96.3134765625
2.4321639538,-0.4072265625,2.7309570312,0.7719726562,24.3988037109,63.7054443359,-96.3134765625
2.4349699020,-0.4072265625,2.7309570312,0.7719726562,42.8619384766,50.6439208984,-97.5646972656
2.4381558895,-0.4072265625,2.7309570312,0.7719726562,42.8619384766,50.6439208984,-97.5646972656
2.4408679008,-0.4072265625,2.7309570312,0.7880859375,40.9698486328,33.1420898438,-105.5297851562
2.4435799122,0.0346679688,1.2138671875,0.7880859375,40.9698486328,33.1420898438,-105.5297851562
2.4462878704,0.0346679688,1.2138671875,0.7880859375,45.6848144531,8.5144042969,-86.2579345703
2.4490039349,0.0346679688,1.2138671875,0.7880859375,45.6848144531,8.5144042969,-86.2579345703
2.4517109394,-0.3403320312,0.4086914062,0.1484375000,49.7894287109,-12.6342773438,-53.8177490234
2.4544169903,-0.2685546875,0.4086914062,0.1484375000,49.7894287109,-12.6342773438,-53.8177490234
2.4571208954,-0.2685546875,0.4086914062,0.1484375000,57.5714111328,-28.8238525391,-22.5982666016
2.4599578381,-0.2685546875,0.4086914062,0.1484375000,57.5714111328,-28.8238525391,-22.5982666016
2.4626698494,-0.3129882812,0.3041992188,-0.1894531250,71.8078613281,-38.5742187500,-1.0070800781
2.4653799534,-0.3129882812,0.3041992188,-0.1894531250,71.8078613281,-38.5742187500,-1.0070800781
2.4683268070,-0.3129882812,0.3041992188,-0.1894531250,86.1968994141,-42.9992675781,14.7857666016
2.4709007740,-0.3129882812,0.3041992188,-0.1894531250,86.1968994141,-42.9992675781,14.7857666016
2.4734799862,-0.0400390625,0.2988281250,-0.1904296875,94.1925048828,-44.2657470703,24.6582031250
2.4760568142,-0.0400390625,0.2988281250,-0.1904296875,94.1925048828,-44.2657470703,24.6582031250
2.4786739349,-0.0400390625,0.2988281250,-0.1904296875,89.2181396484,-41.6564941406,34.4390869141
2.4812498093,-0.0400390625,0.2988281250,-0.0483398438,89.2181396484,-41.6564941406,34.4390869141
2.4838228226,-0.1196289062,0.2587890625,-0.0483398438,74.7833251953,-37.1551513672,46.6308593750
2.4863989353,-0.1196289062,0.2587890625,-0.0483398438,74.7833251953,-37.1551513672,46.6308593750
2.4890689850,-0.1196289062,0.2587890625,-0.0483398438,61.4166259766,-32.7148437500,53.6193847656
2.4917829037,-0.1196289062,0.1816406250,0.0620117188,61.4166259766,-32.7148437500,53.6193847656
2.4944880009,-0.1459960938,0.1816406250,0.0620117188,50.9185791016,-25.8941650391,57.6629638672
2.4971959591,-0.1459960938,0.1816406250,0.0620117188,50.9185791016,-25.8941650391,57.6629638672
2.4999518394,-0.1459960938,0.1816406250,0.0620117188,40.7104492188,-18.9514160156,60.4553222656
2.5026559830,-0.1411132812,-0.0297851562,-0.0161132812,40.7104492188,-18.9514160156,60.4553222656
2.5053617954,-0.1411132812,-0.0297851562,-0.0161132812,28.5949707031,-13.5192871094,63.3087158203
2.5080959797,-0.1411132812,-0.0297851562,-0.0161132812,28.5949707031,-13.5192871094,63.3087158203
2.5106709003,-0.1411132812,-0.0297851562,-0.0161132812,15.7165527344,-8.0871582031,65.8264160156
2.5132439137,-0.2016601562,-0.1518554688,-0.1635742188,15.7165527344,-8.0871582031,65.8264160156
2.5158188343,-0.2016601562,-0.1518554688,-0.1635742188,0.0915527344,-1.4343261719,69.6868896484
2.5184788704,-0.2016601562,-0.1518554688,-0.1635742188,1.7089843750,-1.4343261719,69.6868896484
2.5210518837,-0.2016601562,-0.1518554688,-0.1635742188,1.7089843750,3.7841796875,73.6694335938
2.5236239433,-0.2104492188,-0.1772460938,-0.2109375000,-12.3291015625,3.7841796875,73.6694335938
2.5263099670,-0.2104492188,-0.1772460938,-0.2109375000,-12.3291015625,8.2550048828,76.4617919922
2.5289978981,-0.2104492188,-0.1772460938,-0.2109375000,-25.0854492188,8.2550048828,76.4617919922
2.5315759182,-0.2104492188,-0.1772460938,-0.2109375000,-25.0854492188,8.2550048828,78.4454345703
2.5341489315,-0.1806640625,-0.1689453125,-0.2011718750,-34.3170166016,11.2915039062,78.4454345703
2.5367248058,-0.1806640625,-0.1689453125,-0.2011718750,-34.3170166016,11.2915039062,78.4454345703
2.5394129753,-0.1806640625,-0.1689453125,-0.2011718750,-39.2150878906,13.1835937500,79.6508789062
2.5421259403,-0.1806640625,-0.1689453125,-0.1572265625,-39.2150878906,13.1835937500,79.6508789062
2.5448319912,-0.1630859375,-0.1596679688,-0.1572265625,-40.8630371094,14.1601562500,80.4290771484
2.5475449562,-0.1630859375,-0.1596679688,-0.1572265625,-40.8630371094,14.1601562500,80.4290771484
2.5502529144,-0.1630859375,-0.1596679688,-0.1572265625,-40.3900146484,14.5874023438,79.2541503906
2.5529589653,-0.1762695312,-0.2246093750,-0.1479492188,-40.3900146484,14.5874023438,75.3479003906
2.5556688309,-0.1762695312,-0.2246093750,-0.1479492188,-39.9932861328,15.1672363281,76.1108398438
2.5583529472,-0.1762695312,-0.2246093750,-0.1479492188,-39.9932861328,15.1672363281,76.1108398438
2.5609288216,-0.1762695312,-0.2246093750,-0.1479492188,-39.0319824219,15.7470703125,72.4334716797
2.5635058880,-0.1669921875,-0.3750000000,-0.1826171875,-39.0319824219,15.7470703125,72.4334716797
2.5660798550,-0.1669921875,-0.3750000000,-0.1826171875,-39.3981933594,16.0827636719,67.4133300781
2.5688238144,-0.1669921875,-0.3750000000,-0.1826171875,-39.3981933594,16.0827636719,67.4133300781
2.5714008808,-0.1669921875,-0.3750000000,-0.1826171875,-42.5109863281,16.7083740234,59.2041015625
2.5739769936,-0.1035156250,-0.5297851562,-0.2055664062,-42.5109863281,16.7083740234,59.2041015625
2.5765559673,-0.1035156250,-0.5297851562,-0.2055664062,-46.5698242188,15.6250000000,48.4008789062
2.5793578625,-0.1035156250,-0.5297851562,-0.2055664062,-46.5698242188,15.6250000000,48.4008789062
2.5819377899,-0.1035156250,-0.5297851562,-0.2055664062,-50.7202148438,14.6331787109,35.5987548828
2.5846569538,0.0820312500,-0.5307617188,-0.2011718750,-50.7202148438,14.6331787109,35.5987548828
2.5872337818,0.0820312500,-0.5307617188,-0.2011718750,-54.6417236328,13.5498046875,22.4456787109
2.5901069641,0.0820312500,-0.5307617188,-0.2011718750,-54.6417236328,13.5498046875,22.4456787109
2.5928177834,0.0820312500,-0.4160156250,-0.1733398438,-55.8776855469,12.8631591797,9.5825195312
2.5955209732,0.1762695312,-0.4160156250,-0.1733398438,-55.8776855469,12.8631591797,9.5825195312
2.5982367992,0.1762695312,-0.4160156250,-0.1733398438,-54.6112060547,12.6037597656,-2.4871826172
2.6009409428,0.1762695312,-0.4160156250,-0.1733398438,-54.6112060547,12.6037597656,-2.4871826172
2.6036438942,0.1894531250,-0.2617187500,-0.1215820312,-51.8493652344,13.0920410156,-12.9089355469
2.6063578129,0.1894531250,-0.2617187500,-0.1215820312,-51.8493652344,13.0920410156,-12.9089355469
2.6090688705,0.1894531250,-0.2617187500,-0.1215820312,-48.9807128906,14.0838623047,-22.1405029297
2.6117727757,0.1894531250,-0.2617187500,-0.1215820312,-48.9807128906,14.0838623047,-22.1405029297
2.6144878864,0.1157226562,-0.1645507812,-0.0244140625,-45.1507568359,14.3280029297,-30.1361083984
2.6171908379,0.1157226562,-0.1645507812,-0.0244140625,-45.1507568359,14.3280029297,-30.1361083984
2.6198239326,0.1157226562,-0.1645507812,-0.0244140625,-39.7644042969,14.2669677734,-37.5213623047
2.6224029064,0.1157226562,-0.1645507812,0.1005859375,-39.7644042969,14.2669677734,-37.5213623047
2.6249818802,-0.0136718750,-0.1142578125,0.0493164062,-33.1726074219,15.6402587891,-42.4346923828
2.6275558472,-0.0136718750,-0.1142578125,0.0493164062,-33.1726074219,15.6402587891,-42.4346923828
2.6301388741,-0.0136718750,-0.1142578125,0.0493164062,-29.2663574219,16.1895751953,-45.9899902344
2.6327168941,-0.0136718750,-0.1142578125,0.0512695312,-27.9693603516,16.1895751953,-45.9899902344
2.6353018284,-0.0864257812,-0.0551757812,0.0512695312,-27.9693603516,16.1285400391,-48.3245849609
2.6380579472,-0.0864257812,-0.0551757812,0.0512695312,-25.5737304688,16.1285400391,-48.3245849609
2.6407668591,-0.0864257812,-0.0551757812,0.0512695312,-25.5737304688,16.5405273438,-49.4842529297
2.6434779167,-0.2114257812,-0.0029296875,-0.0092773438,-25.1617431641,16.5405273438,-49.4842529297
2.6461868286,-0.1503906250,-0.0029296875,-0.0092773438,-25.1617431641,17.1508789062,-48.3856201172
2.6489429474,-0.1503906250,-0.0029296875,-0.0092773438,-27.8320312500,17.1508789062,-48.3856201172
2.6516559124,-0.1503906250,-0.0029296875,-0.0092773438,-27.8320312500,18.1884765625,-45.9747314453
2.6544718742,-0.1757812500,0.0649414062,-0.0483398438,-31.4483642578,18.1884765625,-45.9747314453
2.6571819782,-0.1757812500,0.0649414062,-0.0483398438,-31.4483642578,20.3247070312,-42.5109863281
2.6599328518,-0.1757812500,0.0649414062,-0.0483398438,-33.3557128906,20.3247070312,-42.5109863281
2.6626498699,-0.1757812500,0.0649414062,-0.0483398438,-33.3557128906,21.1181640625,-38.3605957031
2.6653559208,-0.1718750000,0.1943359375,-0.1000976562,-32.8979492188,21.1181640625,-38.3605957031
2.6681118011,-0.1718750000,0.1943359375,-0.1000976562,-32.8979492188,21.7132568359,-33.9508056641
2.6708278656,-0.1718750000,0.1943359375,-0.1000976562,-32.6690673828,21.7132568359,-33.9508056641
2.6735398769,-0.1718750000,0.2836914062,-0.0424804688,-32.6690673828,21.8963623047,-30.1666259766
2.6762468815,-0.1547851562,0.2836914062,-0.0424804688,-31.5551757812,21.8963623047,-30.1666259766
2.6790258884,-0.1547851562,0.2836914062,-0.0424804688,-27.6489257812,21.5606689453,-26.6265869141
2.6816039085,-0.1547851562,0.2836914062,-0.0424804688,-27.8167724609,21.5606689453,-26.6265869141
2.6842639446,-0.1381835938,0.3398437500,-0.0053710938,-27.8167724609,21.5606689453,-22.5219726562
2.6873369217,-0.1381835938,0.3398437500,-0.0053710938,-24.5056152344,20.9655761719,-22.5219726562
2.6899178028,-0.1381835938,0.3398437500,-0.0053710938,-24.5056152344,20.6909179688,-17.9748535156
2.6924967766,-0.1381835938,0.3398437500,-0.0053710938,-23.9105224609,20.6909179688,-17.9748535156
2.6950759888,-0.1206054688,0.3583984375,-0.0078125000,-23.9105224609,20.6909179688,-11.9323730469
2.6977338791,-0.1206054688,0.3583984375,-0.0078125000,-25.9246826172,19.6533203125,-11.9323730469
2.7004458904,-0.1206054688,0.3583984375,-0.0078125000,-25.9246826172,15.7470703125,-4.5318603516
2.7031559944,-0.1206054688,0.3583984375,0.1171875000,-28.1829833984,18.3410644531,-4.5318603516
2.7058658600,-0.1127929688,0.3344726562,0.0019531250,-31.6467285156,18.4631347656,3.2196044922
2.7094268799,-0.1127929688,0.3344726562,0.0019531250,-31.6467285156,18.4631347656,3.2196044922
2.7123899460,-0.1127929688,0.3344726562,0.0019531250,-36.2396240234,17.8833007812,11.8408203125
2.7156119347,-0.0952148438,0.3007812500,0.0292968750,-36.2396240234,17.8833007812,11.8408203125
2.7184958458,-0.0952148438,0.3007812500,0.0292968750,-40.0695800781,18.0053710938,20.9655761719
2.7233579159,-0.0952148438,0.3007812500,0.0317382812,-41.7785644531,18.0358886719,55.9997558594
2.7429277897,-0.1640625000,0.3598632812,-0.0288085938,-46.9207763672,19.1040039062,55.9997558594
2.7455058098,-0.1723632812,0.4145507812,-0.0537109375,-44.9523925781,18.7683105469,62.8814697266
2.7482519150,-0.1723632812,0.4145507812,-0.0537109375,-44.9523925781,18.7683105469,62.8814697266
2.7508418560,-0.1723632812,0.4145507812,-0.0537109375,-42.6788330078,17.2882080078,69.1223144531
2.7534198761,-0.1723632812,0.4145507812,-0.0537109375,-42.6788330078,17.2882080078,69.1223144531
2.7559959888,-0.1699218750,0.3491210938,0.0063476562,-40.1916503906,16.1895751953,75.3021240234
2.7585878372,-0.1699218750,0.3491210938,0.0063476562,-40.1916503906,16.1895751953,75.3021240234
2.7611589432,-0.1699218750,0.3491210938,0.0063476562,-36.9110107422,14.5111083984,80.4595947266
2.7637360096,-0.1699218750,0.3491210938,0.0063476562,-36.9110107422,14.5111083984,80.4595947266
2.7663087845,-0.1860351562,0.3320312500,0.0859375000,-32.5164794922,12.4206542969,87.9364013672
2.7689359188,-0.1860351562,0.3320312500,0.0859375000,-32.5164794922,12.4206542969,87.9364013672
2.7715108395,-0.1860351562,0.3320312500,0.0859375000,-30.3192138672,13.6260986328,115.9210205078
2.7768938541,-0.1396484375,3.2241210938,0.1298828125,-30.3192138672,21.7742919922,143.3563232422
2.7795379162,-0.1396484375,3.2241210938,0.1298828125,-43.5791015625,21.7742919922,143.3563232422
2.7821078300,-0.1396484375,3.2241210938,0.1298828125,-43.5791015625,37.3992919922,161.6516113281
2.7846889496,-0.1396484375,4.5268554688,0.6245117188,-88.9587402344,35.3851318359,161.6516113281
2.7872657776,-1.2167968750,4.5268554688,0.6245117188,-88.9587402344,35.3851318359,210.6628417969
2.7898478508,-1.2167968750,4.5268554688,0.6245117188,-99.9298095703,27.3437500000,210.6628417969
2.7924308777,-1.2167968750,4.5268554688,0.6245117188,-99.9298095703,27.3437500000,210.6628417969
2.7950007915,-2.0917968750,-0.0009765625,-0.2402343750,-47.7294921875,18.6920166016,257.3852539062
2.7976229191,-2.0473632812,-0.0009765625,-0.2402343750,-47.7294921875,18.6920166016,257.3852539062
2.8002028465,-2.0473632812,-0.0009765625,-0.2402343750,-12.7105712891,17.5170898438,251.7242431641
2.8027808666,-2.0473632812,-0.0009765625,-0.2402343750,-12.7105712891,17.5170898438,251.7242431641
2.8054978848,-1.9062500000,-1.8930664062,-0.4174804688,-15.1062011719,10.3149414062,198.5168457031
2.8081538677,-1.9062500000,-1.8930664062,-0.4174804688,-15.1062011719,10.3149414062,198.5168457031
2.8107287884,-1.9062500000,-1.8930664062,-0.4174804688,-30.0140380859,7.0343017578,142.9138183594
2.8133118153,-1.9062500000,-1.8930664062,-0.4174804688,-30.0140380859,7.0343017578,142.9138183594
2.8158898354,-1.1523437500,-0.5092773438,-0.3198242188,-58.3038330078,3.3111572266,115.1275634766
2.8186359406,-1.1523437500,-0.5092773438,-0.3198242188,-58.3038330078,3.3111572266,115.1275634766
2.8212189674,-1.1523437500,-0.5092773438,-0.3198242188,-64.0258789062,2.3040771484,105.6671142578
2.8237957954,-1.1523437500,-0.5092773438,-0.3198242188,-64.0258789062,2.3040771484,105.6671142578
2.8263769150,-1.3828125000,0.0537109375,-0.1166992188,-49.3774414062,8.1329345703,118.7896728516
2.8291068077,-1.3828125000,0.0537109375,-0.1166992188,-49.3774414062,8.1329345703,118.7896728516
2.8316829205,-1.3828125000,0.0537109375,-0.1166992188,-59.7686767578,14.7247314453,118.4997558594
2.8342700005,-1.3828125000,0.0537109375,-0.1166992188,-59.7686767578,14.7247314453,118.4997558594
2.8368477821,-1.4980468750,-0.1723632812,0.2558593750,-79.2999267578,14.1906738281,106.5673828125
2.8396048546,-1.4980468750,-0.1723632812,0.2558593750,-78.6743164062,14.1906738281,106.5673828125
2.8423168659,-1.4980468750,-0.1723632812,0.2558593750,-90.3930664062,4.6234130859,81.5734863281
2.8450169563,-1.4980468750,0.3276367188,0.6835937500,-91.9342041016,4.6234130859,81.5734863281
2.8477339745,-1.8242187500,0.2724609375,0.6835937500,-103.6529541016,-12.6953125000,63.0035400391
2.8504438400,-1.8242187500,0.2724609375,0.6835937500,-103.6987304688,-12.6953125000,63.0035400391
2.8531498909,-1.8242187500,0.2724609375,0.6835937500,-91.9799804688,-30.7464599609,54.4738769531
2.8558578491,-1.7211914062,0.9296875000,0.9941406250,-90.9423828125,-30.7464599609,54.4738769531
2.8585829735,-1.7211914062,0.9296875000,0.9941406250,-51.8798828125,-35.7666015625,43.6859130859
2.8612909317,-1.7211914062,0.9296875000,0.9941406250,-52.2918701172,-35.7666015625,43.6859130859
2.8640029430,-1.7211914062,0.9296875000,0.9941406250,-21.0418701172,-41.0766601562,34.2102050781
2.8667039871,-1.8935546875,0.4956054688,0.5263671875,-22.7355957031,-41.0766601562,34.2102050781
2.8695359230,-1.8935546875,0.4956054688,0.5263671875,0.7019042969,-47.5311279297,26.6113281250
2.8722398281,-1.8935546875,0.4956054688,0.5263671875,2.5177001953,-47.5311279297,26.6113281250
2.8749439716,-1.8935546875,0.4956054688,-0.0986328125,22.0489501953,-39.9932861328,21.4691162109
2.8776888847,-2.3242187500,0.3925781250,-0.0332031250,21.8200683594,-39.9932861328,21.4691162109
2.8802709579,-2.3242187500,0.3925781250,-0.0332031250,21.8200683594,-37.1551513672,26.1993408203
2.8828508854,-2.3242187500,0.3925781250,-0.0332031250,24.4903564453,-37.1551513672,26.1993408203
2.8855118752,-2.3242187500,0.3925781250,-0.6425781250,24.4903564453,-29.3426513672,34.3627929688
2.8881359100,-2.0893554688,0.4736328125,-0.6425781250,20.8587646484,-30.8380126953,34.3627929688
2.8907117844,-2.0893554688,0.4736328125,-0.6425781250,20.8587646484,-30.8380126953,37.1856689453
2.8932878971,-2.0893554688,0.4736328125,-0.6425781250,12.5885009766,-25.3753662109,37.1856689453
2.8958628178,-2.0893554688,0.5463867188,-0.6210937500,12.5885009766,-25.3753662109,33.2794189453
2.8985888958,-1.0185546875,0.5463867188,-0.6210937500,7.9345703125,-22.7508544922,32.1197509766
2.9012978077,-1.0185546875,0.5463867188,-0.6210937500,7.9345703125,-22.7508544922,20.4010009766
2.9039978981,-1.0185546875,0.5463867188,-0.6210937500,0.2441406250,-20.6451416016,23.1781005859
2.9066979885,-0.5322265625,0.6611328125,-0.2397460938,0.2441406250,-20.6451416016,15.3656005859
2.9094099998,-0.5322265625,0.6611328125,-0.2397460938,-7.1716308594,-18.0664062500,12.3596191406
2.9121139050,-0.5322265625,0.6611328125,-0.2397460938,-7.1716308594,-18.0664062500,12.3596191406
2.9148168564,-0.5322265625,0.6611328125,-0.2397460938,-11.0931396484,-16.7999267578,0.3662109375
2.9175338745,-0.2778320312,0.6840820312,-0.0180664062,-11.0931396484,-16.7999267578,0.3662109375
2.9201118946,-0.2778320312,0.6840820312,-0.0180664062,-9.0332031250,-17.2424316406,-12.0849609375
2.9226849079,-0.2778320312,0.6840820312,-0.0180664062,-9.0332031250,-17.2424316406,-12.0849609375
2.9252579212,-0.2778320312,0.6840820312,-0.0180664062,-4.4860839844,-17.9901123047,-24.2919921875
2.9278588295,-0.2749023438,0.5932617188,0.1635742188,-4.4860839844,-17.9901123047,-24.2919921875
2.9304389954,-0.2749023438,0.5932617188,0.1635742188,-2.1514892578,-17.0745849609,-35.5224609375
2.9331269264,-0.2749023438,0.5932617188,0.1635742188,-2.1514892578,-17.0745849609,-35.5224609375
2.9357078075,-0.2749023438,0.5932617188,0.1635742188,-0.8392333984,-16.2506103516,-46.7224121094
2.9384689331,-0.3110351562,0.5839843750,0.1962890625,-0.8392333984,-16.2506103516,-46.7224121094
2.9411749840,-0.3110351562,0.5839843750,0.1962890625,3.6315917969,-16.5405273438,-57.3425292969
2.9438748360,-0.3110351562,0.5839843750,0.1962890625,3.6315917969,-16.5405273438,-57.3425292969
2.9465799332,-0.4360351562,0.5258789062,0.1699218750,7.8582763672,-16.0827636719,-66.2384033203
2.9493288994,-0.4257812500,0.5258789062,0.1699218750,7.8582763672,-16.0827636719,-66.2384033203
2.9520368576,-0.4257812500,0.5258789062,0.1699218750,7.5683593750,-14.1296386719,-72.2198486328
2.9547410011,-0.4257812500,0.5258789062,0.1699218750,7.5683593750,-14.1296386719,-72.2198486328
2.9574608803,-0.5429687500,0.4755859375,0.1044921875,4.9438476562,-12.0697021484,-76.8127441406
2.9601669312,-0.5429687500,0.4755859375,0.1044921875,4.9438476562,-12.0697021484,-76.8127441406
2.9628698826,-0.5429687500,0.4755859375,0.1044921875,3.3264160156,-10.2844238281,-80.2612304688
2.9655799866,-0.5429687500,0.4755859375,0.1044921875,3.3264160156,-10.2844238281,-80.2612304688
2.9683349133,-0.6093750000,0.4692382812,0.0444335938,2.5024414062,-9.2163085938,-83.1146240234
2.9710378647,-0.6093750000,0.4692382812,0.0444335938,2.5024414062,-9.2163085938,-83.1146240234
2.9737408161,-0.6093750000,0.4692382812,0.0444335938,2.4261474609,-7.9345703125,-85.7696533203
2.9764389992,-0.6093750000,0.4692382812,0.0151367188,2.4261474609,-7.9345703125,-85.7696533203
2.9790759087,-0.6733398438,0.4296875000,0.0151367188,2.7618408203,-6.8359375000,-87.4633789062
2.9816448689,-0.6733398438,0.4296875000,0.0151367188,2.7618408203,-6.8359375000,-87.4633789062
2.9842159748,-0.6733398438,0.4296875000,0.0151367188,4.7912597656,-6.6986083984,-88.2415771484
2.9867858887,-0.6733398438,0.4023437500,-0.0078125000,4.7912597656,-6.6986083984,-88.2415771484
2.9894628525,-0.7099609375,0.4023437500,-0.0078125000,6.4392089844,-6.7596435547,-88.9434814453
2.9921629429,-0.7099609375,0.4023437500,-0.0078125000,6.4392089844,-6.7596435547,-88.9434814453
2.9948589802,-0.7099609375,0.4023437500,-0.0078125000,8.3007812500,-6.6680908203,-89.0197753906
2.9977188110,-0.7514648438,0.3671875000,-0.0219726562,8.3007812500,-6.6680908203,-89.0197753906
3.0004189014,-0.7514648438,0.3671875000,-0.0219726562,10.1776123047,-7.2479248047,-88.2720947266
3.0031158924,-0.7514648438,0.3671875000,-0.0219726562,10.1776123047,-7.2479248047,-88.2720947266
3.0058248043,-0.7514648438,0.3671875000,-0.0219726562,12.8479003906,-6.7596435547,-87.0513916016
3.0085439682,-0.7500000000,0.3613281250,-0.0322265625,12.8479003906,-6.7596435547,-87.0513916016
3.0112488270,-0.7500000000,0.3613281250,-0.0322265625,16.5557861328,-7.0648193359,-85.4949951172
3.0139498711,-0.7500000000,0.3613281250,-0.0322265625,16.5557861328,-7.0648193359,-85.4949951172
3.0166468620,-0.7500000000,0.3613281250,-0.0395507812,20.0958251953,-6.5917968750,-83.4655761719
3.0193657875,-0.7368164062,0.3427734375,-0.0395507812,20.0958251953,-6.5917968750,-83.4655761719
3.0220727921,-0.7368164062,0.3427734375,-0.0395507812,23.0712890625,-5.7678222656,-80.7495117188
3.0247719288,-0.7368164062,0.3427734375,-0.0395507812,23.0712890625,-5.7678222656,-80.7495117188
3.0274839401,-0.7143554688,0.3027343750,-0.0200195312,26.9775390625,-5.0964355469,-77.9876708984
3.0300610065,-0.7143554688,0.3027343750,-0.0200195312,24.9481201172,-5.0964355469,-77.9876708984
3.0326387882,-0.7143554688,0.3027343750,-0.0200195312,24.9481201172,-4.0893554688,-75.8972167969
3.0352168083,-0.7143554688,0.3027343750,-0.0200195312,26.3671875000,-4.0893554688,-75.8972167969
3.0379238129,-0.6855468750,0.2646484375,-0.0166015625,27.9235839844,-2.5177001953,-72.9217529297
3.0418708324,-0.6855468750,0.2646484375,-0.0166015625,27.9235839844,-2.5177001953,-69.0155029297
3.0455608368,-0.6855468750,0.2646484375,-0.0166015625,28.3050537109,-1.8615722656,-69.8852539062
3.0488498211,-0.6508789062,0.2197265625,0.0239257812,28.3050537109,-0.7476806641,-66.6198730469
3.0515618324,-0.6508789062,0.2197265625,0.0239257812,28.3355712891,-0.7476806641,-66.6198730469
3.0542678833,-0.6508789062,0.2197265625,0.0239257812,28.3355712891,-0.7476806641,-63.8122558594
3.0569658279,-0.6508789062,0.2197265625,0.0659179688,27.6031494141,-0.0762939453,-63.8122558594
3.0597310066,-0.6303710938,0.1762695312,0.0659179688,27.6031494141,0.0457763672,-60.7452392578
3.0624339581,-0.6303710938,0.1762695312,0.0659179688,25.5279541016,0.0457763672,-60.7452392578
3.0652458668,-0.6303710938,0.1762695312,0.0659179688,25.5279541016,0.3814697266,-57.8308105469
3.0679609776,-0.6215820312,0.1513671875,0.0966796875,22.2320556641,0.3814697266,-57.8308105469
3.0706589222,-0.6215820312,0.1513671875,0.0966796875,22.2320556641,0.6866455078,-54.7943115234
3.0733609200,-0.6215820312,0.1513671875,0.0966796875,17.9290771484,0.6866455078,-54.7943115234
3.0760588646,-0.6215820312,0.1513671875,0.0966796875,17.9290771484,1.3732910156,-51.4068603516
3.0787758827,-0.6020507812,0.1513671875,0.1132812500,14.2364501953,1.3732910156,-51.4068603516
3.0814769268,-0.6020507812,0.1513671875,0.1132812500,14.2364501953,1.7089843750,-48.2025146484
3.0841739178,-0.6020507812,0.1513671875,0.1132812500,11.2915039062,1.7089843750,-48.2025146484
3.0868749619,-0.6020507812,0.1513671875,0.2382812500,11.2915039062,1.7089843750,-45.0286865234
3.0895948410,-0.5800781250,0.1616210938,0.1494140625,8.7127685547,1.6632080078,-45.0286865234
3.0922918320,-0.5800781250,0.1616210938,0.1494140625,8.7127685547,1.6632080078,-41.4733886719
3.0949928761,-0.5800781250,0.1616210938,0.1494140625,7.2326660156,2.2583007812,-41.4733886719
3.0977258682,-0.5800781250,0.1416015625,0.1513671875,7.2326660156,2.2583007812,-38.3453369141
3.1004209518,-0.5898437500,0.1416015625,0.1513671875,5.6304931641,2.3040771484,-38.3453369141
3.1031157970,-0.5898437500,0.1416015625,0.1513671875,5.6304931641,2.3040771484,-35.9344482422
3.1058108807,-0.5898437500,0.1416015625,0.1513671875,4.6234130859,1.8768310547,-35.9344482422
3.1085188389,-0.5917968750,0.1376953125,0.1640625000,4.6234130859,1.8768310547,-34.1949462891
3.1112129688,-0.5917968750,0.1376953125,0.1640625000,4.4555664062,1.9683837891,-34.1949462891
3.1139049530,-0.5917968750,0.1376953125,0.1640625000,4.4555664062,1.9683837891,-32.3028564453
3.1166009903,-0.5917968750,0.1376953125,0.1640625000,4.5166015625,2.2125244141,-32.3028564453
3.1193039417,-0.6000976562,0.2294921875,0.1582031250,4.5166015625,2.2125244141,-30.3649902344
3.1219999790,-0.6000976562,0.2294921875,0.1582031250,4.3182373047,2.3040771484,-30.3649902344
3.1246998310,-0.6000976562,0.2294921875,0.1582031250,4.3182373047,2.3040771484,-28.5949707031
3.1273548603,-0.6000976562,0.2294921875,0.1582031250,5.8135986328,2.6092529297,-28.5949707031
3.1301019192,-0.5844726562,0.2792968750,0.1342773438,5.8135986328,2.6092529297,-27.3742675781
3.1327538490,-0.5844726562,0.2792968750,0.1342773438,6.6680908203,3.3264160156,-27.3742675781
3.1353218555,-0.5844726562,0.2792968750,0.1342773438,6.6680908203,4.0588378906,-25.9399414062
3.1389179230,-0.5800781250,0.2626953125,0.0981445312,7.4462890625,4.0588378906,-25.9399414062
3.1414837837,-0.5800781250,0.2626953125,0.0981445312,7.4462890625,4.6691894531,-24.6429443359
3.1440489292,-0.5800781250,0.2626953125,0.0981445312,8.4381103516,4.6691894531,-24.6429443359
3.1466078758,-0.5800781250,0.2626953125,0.0981445312,8.4381103516,4.6691894531,-23.2238769531
3.1492228508,-0.5869140625,0.2324218750,0.0776367188,8.4686279297,5.3863525391,-23.2238769531
3.1517949104,-0.5869140625,0.2324218750,0.0776367188,8.4686279297,5.3863525391,-21.6522216797
3.1543569565,-0.5869140625,0.2324218750,0.0776367188,7.0953369141,6.4392089844,-21.6522216797
3.1569209099,-0.5869140625,0.2324218750,0.0776367188,7.0953369141,6.4392089844,-21.6522216797
3.1594917774,-0.6093750000,0.2109375000,0.0883789062,4.9285888672,6.8206787109,-19.7906494141
3.1620547771,-0.6093750000,0.2109375000,0.0883789062,4.9285888672,6.8206787109,-19.7906494141
3.1646199226,-0.6093750000,0.2109375000,0.0883789062,1.3122558594,6.7443847656,-18.2952880859
3.1671829224,-0.6093750000,0.2109375000,0.0883789062,1.3122558594,6.7443847656,-18.2952880859
3.1697978973,-0.6860351562,0.1977539062,0.0800781250,-0.3967285156,8.6212158203,-17.0288085938
3.1723699570,-0.6860351562,0.1977539062,0.0800781250,-0.3967285156,8.6212158203,-17.0288085938
3.1749339104,-0.6860351562,0.1977539062,0.0800781250,-0.9613037109,11.4135742188,-16.0675048828
3.1775698662,-0.6860351562,0.1977539062,0.0800781250,-0.9613037109,11.4135742188,-16.0675048828
3.1801538467,-0.8320312500,0.1831054688,-0.0410156250,-3.0975341797,13.3972167969,-16.0675048828
3.1827208996,-0.8320312500,0.1831054688,-0.0410156250,-3.0975341797,13.3972167969,-16.0675048828
3.1852929592,-0.8320312500,0.1831054688,-0.0410156250,-6.6833496094,14.6179199219,-14.0533447266
3.1880388260,-0.8320312500,0.1831054688,-0.1372070312,-6.6833496094,14.6179199219,-14.0533447266
3.1906049252,-0.9282226562,0.1523437500,-0.1372070312,-10.5895996094,15.3808593750,-10.4675292969
3.1932868958,-0.9282226562,0.1523437500,-0.1372070312,-11.2304687500,15.3808593750,-10.4675292969
3.1958580017,-0.9282226562,0.1523437500,-0.1372070312,-11.2304687500,15.6097412109,-7.2631835938
3.1985919476,-0.9282226562,0.1132812500,-0.1079101562,-16.2963867188,15.6097412109,-7.2631835938
3.2011649609,-0.9946289062,0.1132812500,-0.1079101562,-16.2963867188,15.6097412109,-5.2642822266
3.2037308216,-0.9946289062,0.1132812500,-0.1079101562,-18.0053710938,14.4042968750,-5.2642822266
3.2063069344,-0.9946289062,0.1132812500,-0.1079101562,-18.0053710938,14.4042968750,-3.5858154297
3.2089078426,-0.9946289062,0.1811523438,-0.0708007812,-18.5089111328,12.5732421875,-3.5858154297
3.2114739418,-0.9438476562,0.1811523438,-0.0708007812,-18.5089111328,12.5732421875,-3.5858154297
3.2140438557,-0.9438476562,0.1811523438,-0.0708007812,-19.1497802734,9.7503662109,-1.4190673828
3.2166049480,-0.9438476562,0.1811523438,-0.0708007812,-19.1497802734,9.7503662109,-1.4190673828
3.2192227840,-0.8735351562,0.2041015625,-0.0429687500,-17.8680419922,6.5917968750,-0.8544921875
3.2217848301,-0.8735351562,0.2041015625,-0.0429687500,-17.8680419922,6.5917968750,-0.8544921875
3.2243459225,-0.8735351562,0.2041015625,-0.0429687500,-15.2587890625,3.4790039062,-0.8392333984
3.2269108295,-0.8735351562,0.2041015625,-0.0429687500,-15.2587890625,3.4790039062,-0.8392333984
3.2295858860,-0.7890625000,0.2080078125,-0.0444335938,-12.7105712891,0.4425048828,-1.1138916016
3.2321507931,-0.7890625000,0.2080078125,-0.0444335938,-12.7105712891,0.4425048828,-1.1138916016
3.2347218990,-0.7890625000,0.2080078125,-0.0444335938,-10.3149414062,-2.3651123047,-2.8839111328
3.2372839451,-0.7890625000,0.2080078125,-0.0444335938,-10.3149414062,-2.3651123047,-2.8839111328
3.2401568890,-0.7519531250,0.2441406250,-0.0517578125,-8.0413818359,-4.3182373047,-3.9520263672
3.2430298328,-0.7519531250,0.2441406250,-0.0517578125,-8.0413818359,-4.3182373047,-3.9520263672
3.2455987930,-0.7519531250,0.2441406250,-0.0517578125,-6.2103271484,-5.7525634766,-5.3863525391
3.2482559681,-0.7519531250,0.2441406250,-0.0517578125,-6.2103271484,-5.7525634766,-5.3863525391
3.2509508133,-0.7109375000,0.2890625000,-0.0488281250,-4.2114257812,-6.7749023438,-7.5378417969
3.2536339760,-0.7109375000,0.2890625000,-0.0488281250,-4.2114257812,-6.7749023438,-7.5378417969
3.2563109398,-0.7109375000,0.2890625000,-0.0488281250,-2.7313232422,-6.5155029297,-9.4299316406
3.2591989040,-0.7109375000,0.2993164062,-0.0043945312,-2.7313232422,-6.5155029297,-9.4299316406
3.2618858814,-0.6777343750,0.2993164062,-0.0043945312,-1.7242431641,-6.3018798828,-11.3525390625
3.2645668983,-0.6777343750,0.2993164062,-0.0043945312,-1.7242431641,-6.3018798828,-11.3525390625
3.2672460079,-0.6777343750,0.2993164062,-0.0043945312,-1.2054443359,-6.0577392578,-13.0462646484
3.2700259686,-0.6538085938,0.2827148438,0.0268554688,-1.2054443359,-6.0577392578,-13.0462646484
3.2727069855,-0.6538085938,0.2827148438,0.0268554688,-1.8157958984,-5.3710937500,-14.9383544922
3.2753939629,-0.6538085938,0.2827148438,0.0268554688,-1.8157958984,-5.3710937500,-14.9383544922
3.2781159878,-0.6538085938,0.2827148438,0.0268554688,-2.0751953125,-4.7760009766,-16.2353515625
3.2807779312,-0.6313476562,0.2944335938,0.0659179688,-2.0751953125,-4.7760009766,-16.2353515625
3.2833499908,-0.6313476562,0.2944335938,0.0659179688,-1.9683837891,-3.7384033203,-18.0511474609
3.2859158516,-0.6313476562,0.2944335938,0.0659179688,-1.9683837891,-3.7384033203,-18.0511474609
3.2887499332,-0.6313476562,0.2944335938,0.0659179688,-1.9073486328,-3.0364990234,-20.2941894531
3.2913358212,-0.6259765625,0.3076171875,0.0903320312,-1.9073486328,-3.0364990234,-20.2941894531
3.2939028740,-0.6259765625,0.3076171875,0.0903320312,-1.9073486328,-2.3345947266,-22.5677490234
3.2964677811,-0.6259765625,0.3076171875,0.0903320312,-1.4648437500,-2.3345947266,-22.5677490234
3.2992739677,-0.6259765625,0.3076171875,0.1015625000,-1.4648437500,-1.4038085938,-24.4140625000
3.3019747734,-0.6245117188,0.2861328125,0.1015625000,-0.5035400391,-1.4038085938,-24.4140625000
3.3046770096,-0.6245117188,0.2861328125,0.1015625000,-0.5035400391,-0.6866455078,-25.8789062500
3.3073740005,-0.6245117188,0.2861328125,0.1015625000,-0.1983642578,-0.6866455078,-25.8789062500
3.3101170063,-0.6416015625,0.2607421875,0.0844726562,3.7078857422,0.0915527344,-26.7791748047
3.3128178120,-0.6416015625,0.2607421875,0.0844726562,0.5493164062,0.0915527344,-26.7791748047
3.3155138493,-0.6416015625,0.2607421875,0.0844726562,0.5493164062,0.8697509766,-27.9083251953
3.3182299137,-0.6416015625,0.2607421875,0.0844726562,1.3275146484,0.8697509766,-27.9083251953
3.3209338188,-0.6733398438,0.2280273438,0.0893554688,1.3275146484,1.4495849609,-28.5797119141
3.3237388134,-0.6733398438,0.2280273438,0.0893554688,1.8768310547,1.4495849609,-28.5797119141
3.3264408112,-0.6733398438,0.2280273438,0.0893554688,1.8768310547,2.0904541016,-29.6936035156
3.3290679455,-0.6733398438,0.2280273438,0.0893554688,2.1209716797,2.0904541016,-29.6936035156
3.3316309452,-0.6977539062,0.2070312500,0.0590820312,2.1209716797,2.0904541016,-30.1055908203
3.3342018127,-0.6977539062,0.2070312500,0.0590820312,2.3803710938,2.2735595703,-30.1055908203
3.3367669582,-0.6977539062,0.2070312500,0.0590820312,2.3803710938,2.2735595703,-29.8461914062
3.3394417763,-0.6977539062,0.2070312500,0.0195312500,2.8381347656,1.8920898438,-29.8461914062
3.3421428204,-0.7167968750,0.2036132812,0.0195312500,2.8381347656,1.8920898438,-29.0527343750
3.3448388577,-0.7167968750,0.2036132812,0.0195312500,3.0059814453,1.3885498047,-29.0527343750
3.3475439548,-0.7167968750,0.2036132812,0.0195312500,3.0059814453,1.3885498047,-28.4881591797
3.3502459526,-0.7167968750,0.1904296875,-0.0185546875,3.2348632812,1.1291503906,-28.4881591797
3.3529479504,-0.7338867188,0.1904296875,-0.0185546875,3.2348632812,1.1291503906,-27.8625488281
3.3557319641,-0.7338867188,0.1904296875,-0.0185546875,4.0740966797,0.8087158203,-27.8625488281
3.3584358692,-0.7338867188,0.1904296875,-0.0185546875,4.0740966797,0.8087158203,-26.7944335938
3.3611447811,-0.7368164062,0.1816406250,-0.0253906250,4.9438476562,0.2899169922,-26.7944335938
3.3638448715,-0.7368164062,0.1816406250,-0.0253906250,4.9438476562,0.2899169922,-26.2603759766
3.3665399551,-0.7368164062,0.1816406250,-0.0253906250,4.8065185547,-0.1831054688,-26.2603759766
3.3692519665,-0.7368164062,0.1816406250,-0.0253906250,4.8065185547,-0.1831054688,-25.2685546875
3.3719549179,-0.7368164062,0.1777343750,-0.0273437500,3.9215087891,-0.8239746094,-25.2685546875
3.3746538162,-0.7368164062,0.1777343750,-0.0273437500,3.9215087891,-0.8239746094,-24.1546630859
3.3773639202,-0.7368164062,0.1777343750,-0.0273437500,2.9296875000,-1.8615722656,-24.1546630859
3.3799908161,-0.7368164062,0.1777343750,-0.0200195312,2.9296875000,-1.8615722656,-20.2484130859
3.3825588226,-0.7475585938,0.1508789062,-0.0200195312,2.1667480469,-2.1667480469,-22.7661132812
3.3851208687,-0.7475585938,0.1508789062,-0.0200195312,2.1667480469,-2.1667480469,-22.7661132812
3.3878378868,-0.7475585938,0.1508789062,-0.0200195312,0.9155273438,-3.4332275391,-21.3775634766
3.3904149532,-0.7475585938,0.1435546875,0.0004882812,0.9155273438,-3.4332275391,-21.3775634766
3.3929848671,-0.7397460938,0.1435546875,0.0004882812,-0.0915527344,-4.2114257812,-19.5465087891
3.3955538273,-0.7397460938,0.1435546875,0.0004882812,-0.0915527344,-4.2114257812,-19.5465087891
3.3982939720,-0.7397460938,0.1435546875,0.0004882812,-0.3967285156,-5.0811767578,-17.9595947266
3.4008619785,-0.7333984375,0.1699218750,0.0229492188,-0.3967285156,-5.0811767578,-17.9595947266
3.4034318924,-0.7333984375,0.1699218750,0.0229492188,0.0305175781,-5.3863525391,-16.9677734375
3.4059967995,-0.7333984375,0.1699218750,0.0229492188,0.0305175781,-5.3863525391,-16.9677734375
