# time_stamp before, Acceleration x, Acceleration y, Acceleration z, Gyro x, Gyro y, Gyro z
0.0000000000,-0.7250976562,0.2241210938,0.0029296875,4.8217773438,6.2103271484,12.6495361328
0.0026960373,-0.7304687500,0.2167968750,0.0048828125,4.8217773438,6.2103271484,12.6495361328
0.0053911209,-0.7304687500,0.2167968750,0.0048828125,6.0729980469,5.7830810547,13.6260986328
0.0081431866,-0.7304687500,0.2167968750,0.0048828125,6.0729980469,5.7830810547,13.6260986328
0.0108389854,-0.7304687500,0.2167968750,0.0048828125,7.2326660156,5.7830810547,14.4958496094
0.0135362148,-0.7236328125,0.2177734375,-0.0117187500,7.2326660156,5.7830810547,14.4958496094
0.0162281990,-0.7236328125,0.2177734375,-0.0117187500,7.9040527344,6.1645507812,15.7623291016
0.0190181732,-0.7236328125,0.2177734375,-0.0117187500,7.9040527344,6.1645507812,15.7623291016
0.0215849876,-0.7236328125,0.2177734375,-0.0097656250,8.8348388672,6.1187744141,16.9525146484
0.0241479874,-0.7285156250,0.2143554688,-0.0097656250,8.8348388672,6.1187744141,16.9525146484
0.0267181396,-0.7285156250,0.2143554688,-0.0097656250,10.1623535156,6.0119628906,18.6920166016
0.0293991566,-0.7285156250,0.2143554688,-0.0097656250,10.1623535156,6.0119628906,18.6920166016
0.0319650173,-0.7285156250,0.2143554688,-0.0170898438,10.8184814453,6.8359375000,20.2331542969
0.0354051590,-0.7343750000,0.1953125000,-0.0170898438,10.8184814453,6.8359375000,20.2331542969
0.0380821228,-0.7343750000,0.1953125000,-0.0170898438,11.0931396484,7.7667236328,22.0489501953
0.0407559872,-0.7343750000,0.1953125000,-0.0170898438,11.0931396484,7.7667236328,22.0489501953
0.0434191227,-0.7490234375,0.1816406250,-0.0092773438,11.3983154297,8.3465576172,24.1394042969
0.0460910797,-0.7490234375,0.1816406250,-0.0092773438,11.3983154297,8.3465576172,24.1394042969
0.0487940311,-0.7490234375,0.1816406250,-0.0092773438,11.2457275391,8.2397460938,26.3519287109
0.0514872074,-0.7490234375,0.1816406250,-0.0092773438,11.2457275391,8.2397460938,26.3519287109
0.0543401241,-0.7602539062,0.1831054688,-0.0087890625,10.6964111328,8.3312988281,28.1982421875
0.0570321083,-0.7602539062,0.1831054688,-0.0087890625,10.6964111328,8.3312988281,28.1982421875
0.0597209930,-0.7602539062,0.1831054688,-0.0087890625,10.1013183594,8.3770751953,30.7617187500
0.0624501705,-0.7602539062,0.1870117188,-0.0039062500,10.1013183594,8.3770751953,30.7617187500
0.0651562214,-0.7724609375,0.1870117188,-0.0039062500,10.4370117188,8.1481933594,32.8826904297
0.0678491592,-0.7724609375,0.1870117188,-0.0039062500,10.4370117188,8.1481933594,32.8826904297
0.0704281330,-0.7724609375,0.1870117188,-0.0039062500,10.8642578125,8.2244873047,35.1867675781
0.0730001926,-0.7714843750,0.1875000000,-0.0004882812,10.8642578125,8.2244873047,35.1867675781
0.0755770206,-0.7714843750,0.1875000000,-0.0004882812,10.9405517578,8.3007812500,37.3382568359
0.0782611370,-0.7714843750,0.1875000000,-0.0004882812,10.9405517578,8.3007812500,37.3382568359
0.0808341503,-0.7714843750,0.1875000000,-0.0004882812,11.0015869141,7.4005126953,39.7644042969
0.0834181309,-0.7783203125,0.1865234375,-0.0063476562,11.0015869141,7.4005126953,39.7644042969
0.0859971046,-0.7783203125,0.1865234375,-0.0063476562,11.0015869141,7.3394775391,41.7327880859
0.0887160301,-0.7783203125,0.1865234375,-0.0063476562,11.1236572266,7.3394775391,41.7327880859
0.0914130211,-0.7783203125,0.1865234375,-0.0063476562,11.1236572266,6.7138671875,43.4265136719
0.0941011906,-0.7973632812,0.1796875000,0.0112304688,11.4593505859,6.7138671875,43.4265136719
0.0967922211,-0.7973632812,0.1796875000,0.0112304688,11.4593505859,5.8593750000,46.3867187500
0.0995311737,-0.7973632812,0.1796875000,0.0112304688,11.3372802734,5.8593750000,46.3867187500
0.1022191048,-0.7973632812,0.1796875000,0.0112304688,11.3372802734,3.7841796875,48.9501953125
0.1049101353,-0.8237304688,0.1386718750,0.0083007812,10.0860595703,3.7841796875,48.9501953125
0.1076450348,-0.8237304688,0.1386718750,0.0083007812,10.0860595703,2.1057128906,51.2237548828
0.1103351116,-0.8237304688,0.1386718750,0.0083007812,9.1705322266,2.1057128906,51.2237548828
0.1130211353,-0.8237304688,0.1728515625,0.0209960938,9.1705322266,1.1444091797,52.7038574219
0.1157040596,-0.8369140625,0.1728515625,0.0209960938,10.0708007812,1.1444091797,52.7038574219
0.1185150146,-0.8369140625,0.1728515625,0.0209960938,10.0708007812,0.2136230469,54.2755126953
0.1212060452,-0.8369140625,0.1728515625,0.0209960938,10.4827880859,0.2136230469,54.2755126953
0.1238930225,-0.8564453125,0.2353515625,0.0073242188,10.4827880859,-0.7934570312,55.5267333984
0.1265881062,-0.8564453125,0.2353515625,0.0073242188,11.2609863281,-0.7934570312,55.5267333984
0.1293201447,-0.8564453125,0.2353515625,0.0073242188,11.2609863281,-0.7934570312,56.4270019531
0.1320021152,-0.8564453125,0.2353515625,0.0073242188,12.7410888672,-1.7547607422,56.4270019531
0.1346950531,-0.8710937500,0.2299804688,-0.0156250000,12.7410888672,-1.7547607422,57.3577880859
0.1373801231,-0.8710937500,0.2299804688,-0.0156250000,14.8468017578,-2.3193359375,57.3577880859
0.1400971413,-0.8710937500,0.2299804688,-0.0156250000,14.8468017578,-2.3193359375,58.2733154297
0.1427621841,-0.8710937500,0.2299804688,-0.0371093750,16.7999267578,-3.3874511719,58.2733154297
0.1457121372,-0.8798828125,0.2416992188,-0.0371093750,16.7999267578,-4.1503906250,59.0515136719
0.1486279964,-0.8798828125,0.2416992188,-0.0371093750,19.5617675781,-4.1503906250,59.0515136719
0.1513290405,-0.8798828125,0.2416992188,-0.0371093750,19.5617675781,-5.0201416016,59.9212646484
0.1540470123,-0.8969726562,0.2460937500,-0.0390625000,22.0642089844,-5.0201416016,59.9212646484
0.1567540169,-0.8969726562,0.2460937500,-0.0390625000,25.9704589844,-5.0811767578,60.8215332031
0.1594660282,-0.8969726562,0.2460937500,-0.0390625000,24.4293212891,-5.0811767578,60.8215332031
0.1621770859,-0.8969726562,0.2460937500,-0.0390625000,24.4293212891,-4.6539306641,62.0727539062
0.1648821831,-0.9257812500,0.2348632812,-0.0380859375,26.3214111328,-4.6539306641,62.0727539062
0.1675879955,-0.9257812500,0.2348632812,-0.0380859375,26.3214111328,-4.4860839844,62.7899169922
0.1703040600,-0.9257812500,0.2348632812,-0.0380859375,27.0385742188,-4.4860839844,62.7899169922
0.1730101109,-0.9257812500,0.2348632812,-0.0141601562,27.0385742188,-3.7231445312,63.4155273438
0.1757261753,-0.9853515625,0.2143554688,-0.0141601562,26.4739990234,-3.7231445312,63.4155273438
0.1784050465,-0.9853515625,0.2143554688,-0.0141601562,26.4739990234,-3.5095214844,65.2008056641
0.1809811592,-0.9853515625,0.2143554688,-0.0141601562,26.5350341797,-3.5095214844,65.2008056641
0.1836810112,-0.9853515625,0.2065429688,0.0131835938,26.5350341797,-3.5095214844,66.4367675781
0.1862571239,-1.0224609375,0.2065429688,0.0131835938,26.3824462891,-2.9907226562,66.4367675781
0.1888811588,-1.0224609375,0.2065429688,0.0131835938,26.3824462891,-2.9907226562,67.3828125000
0.1914629936,-1.0224609375,0.2065429688,0.0131835938,21.4996337891,-2.5024414062,67.3828125000
0.1940381527,-1.0224609375,0.1523437500,0.0468750000,21.4996337891,-2.5024414062,67.3828125000
0.1966180801,-1.0561523438,0.1523437500,0.0468750000,11.4135742188,-1.4495849609,67.7490234375
0.1993880272,-1.0561523438,0.1523437500,0.0468750000,11.4135742188,-1.4495849609,67.7490234375
0.2019581795,-1.0561523438,0.1523437500,0.0468750000,5.0506591797,-1.1291503906,67.5964355469
0.2045340538,-1.0678710938,0.1328125000,0.0620117188,5.0506591797,-1.1291503906,67.5964355469
0.2071001530,-1.0678710938,0.1328125000,0.0620117188,1.0528564453,-0.6561279297,68.2830810547
0.2098920345,-1.0678710938,0.1328125000,0.0620117188,1.0528564453,-0.6561279297,68.2830810547
0.2125971317,-1.0678710938,0.1328125000,0.0620117188,0.3509521484,-0.5187988281,70.2209472656
0.2152991295,-0.9970703125,0.1972656250,0.0903320312,0.3509521484,-0.5187988281,70.2209472656
0.2180011272,-0.9970703125,0.1972656250,0.0903320312,3.4332275391,-0.6713867188,72.0214843750
0.2205741405,-0.9970703125,0.1972656250,0.0903320312,3.4332275391,-0.6713867188,72.0214843750
0.2231431007,-0.9970703125,0.1972656250,0.0903320312,7.9650878906,-0.3509521484,73.7915039062
0.2258150578,-0.9375000000,0.2597656250,0.1347656250,7.9650878906,-0.3509521484,73.7915039062
0.2286159992,-0.9375000000,0.2597656250,0.1347656250,11.0626220703,-0.5645751953,75.5615234375
0.2312819958,-0.9375000000,0.2597656250,0.1347656250,11.0626220703,-0.5645751953,75.5615234375
0.2346010208,-0.8637695312,0.2353515625,0.1376953125,13.3666992188,-2.3040771484,74.6307373047
0.2371671200,-0.8637695312,0.2353515625,0.1376953125,13.3666992188,-2.3040771484,74.6307373047
0.2397379875,-0.8637695312,0.2353515625,0.1376953125,13.9923095703,-4.1503906250,73.0590820312
0.2423031330,-0.8637695312,0.2353515625,0.1376953125,13.9923095703,-4.1503906250,73.0590820312
0.2448680401,-0.8105468750,0.1425781250,0.1816406250,12.9547119141,-6.8359375000,69.8089599609
0.2475612164,-0.8105468750,0.1425781250,0.1816406250,12.9547119141,-6.8359375000,69.8089599609
0.2501320839,-0.8105468750,0.1425781250,0.1816406250,17.4713134766,-9.3383789062,63.0950927734
0.2527041435,-0.8105468750,0.1425781250,0.1816406250,17.4713134766,-9.3383789062,63.0950927734
0.2552661896,-0.7597656250,0.1362304688,0.1152343750,25.4058837891,-10.5895996094,57.8155517578
0.2578420639,-0.7597656250,0.1362304688,0.1152343750,25.4058837891,-10.5895996094,57.8155517578
0.2604191303,-0.7597656250,0.1362304688,0.1152343750,35.9497070312,-11.5661621094,57.3272705078
0.2629899979,-0.7597656250,0.1362304688,0.1152343750,35.9497070312,-11.5661621094,57.3272705078
0.2655601501,-0.7504882812,0.3969726562,0.0400390625,35.9497070312,-13.3819580078,53.2073974609
0.2681682110,-0.7504882812,0.3969726562,0.0400390625,50.0183105469,-13.3819580078,53.2073974609
0.2707390785,-0.7504882812,0.3969726562,0.0400390625,50.0183105469,-13.3819580078,43.2128906250
0.2733120918,-0.7504882812,0.3969726562,0.0400390625,62.8356933594,-13.9160156250,43.2128906250
0.2758810520,-0.7802734375,0.1225585938,0.0493164062,62.8356933594,-13.9160156250,34.1339111328
0.2786271572,-0.7802734375,0.1225585938,0.0493164062,69.7021484375,-14.8315429688,34.1339111328
0.2812001705,-0.7802734375,0.1225585938,0.0493164062,69.7021484375,-14.8315429688,30.2276611328
0.2837760448,-0.7802734375,0.1225585938,0.0493164062,68.9544677734,-16.4489746094,27.5573730469
0.2863450050,-0.7910156250,-0.0605468750,0.0131835938,68.9544677734,-16.4489746094,27.5573730469
0.2890450954,-0.7910156250,-0.0605468750,0.0131835938,62.7746582031,-18.2189941406,22.7203369141
0.2916131020,-0.7910156250,-0.0605468750,0.0131835938,62.7746582031,-18.2189941406,22.7203369141
0.2941861153,-0.7910156250,-0.0605468750,0.0131835938,53.9703369141,-19.6228027344,18.9514160156
0.2967591286,-0.8134765625,-0.0146484375,0.0043945312,53.9703369141,-19.6228027344,18.9514160156
0.2993421555,-0.8134765625,-0.0146484375,0.0043945312,46.9360351562,-20.2178955078,15.3045654297
0.3019161224,-0.8134765625,-0.0146484375,0.0043945312,46.9360351562,-20.2178955078,15.3045654297
0.3044860363,-0.8134765625,-0.0146484375,-0.0141601562,42.7703857422,-20.4162597656,11.5661621094
0.3070600033,-0.8198242188,0.0698242188,-0.0141601562,42.7703857422,-20.4162597656,11.5661621094
0.3099050522,-0.8198242188,0.0698242188,-0.0141601562,38.0706787109,-21.0266113281,7.4157714844
0.3126120567,-0.8198242188,0.0698242188,-0.0141601562,38.0706787109,-21.0266113281,7.4157714844
0.3153131008,-0.8198242188,0.0776367188,-0.0371093750,33.6456298828,-22.5372314453,3.7689208984
0.3180100918,-0.7861328125,0.0776367188,-0.0371093750,33.6456298828,-22.5372314453,3.7689208984
0.3205850124,-0.7861328125,0.0776367188,-0.0371093750,27.6489257812,-23.0865478516,0.2288818359
0.3231611252,-0.7861328125,0.0776367188,-0.0371093750,27.6489257812,-23.0865478516,0.2288818359
0.3257360458,-0.7446289062,0.0341796875,-0.0473632812,22.8271484375,-24.3072509766,-3.5552978516
0.3286521435,-0.7446289062,0.0341796875,-0.0473632812,22.8271484375,-24.3072509766,-3.5552978516
0.3313271999,-0.7446289062,0.0341796875,-0.0473632812,17.2729492188,-24.5208740234,-8.5754394531
0.3345270157,-0.7446289062,0.0341796875,-0.0473632812,17.2729492188,-24.5208740234,-8.5754394531
0.3371031284,-0.7216796875,0.0185546875,-0.0659179688,11.5356445312,-24.1546630859,-13.1683349609
0.3398170471,-0.7216796875,0.0185546875,-0.0659179688,11.5356445312,-24.1546630859,-13.1683349609
0.3423891068,-0.7216796875,0.0185546875,-0.0659179688,5.5847167969,-25.0701904297,-17.0593261719
0.3449602127,-0.7216796875,0.0185546875,-0.0600585938,5.5847167969,-25.0701904297,-17.0593261719
0.3475210667,-0.6757812500,0.0336914062,-0.0600585938,0.6408691406,-25.0396728516,-21.2097167969
0.3500890732,-0.6757812500,0.0336914062,-0.0600585938,0.6408691406,-25.0396728516,-21.2097167969
0.3526551723,-0.6757812500,0.0336914062,-0.0600585938,0.6408691406,-24.6276855469,-25.9552001953
0.3552210331,-0.6757812500,0.0336914062,-0.0761718750,-2.6550292969,-24.6276855469,-25.9552001953
0.3578071594,-0.6591796875,0.0771484375,-0.0761718750,-2.6550292969,-24.6276855469,-31.2347412109
0.3603851795,-0.6591796875,0.0771484375,-0.0761718750,-4.6997070312,-25.3601074219,-31.2347412109
0.3629591465,-0.6591796875,0.0771484375,-0.0761718750,-4.6997070312,-25.3601074219,-39.0472412109
0.3655340672,-0.6591796875,0.1464843750,-0.0595703125,-6.3171386719,-25.4974365234,-35.9954833984
0.3681662083,-0.6606445312,0.1464843750,-0.0595703125,-6.3171386719,-25.4974365234,-35.9954833984
0.3707392216,-0.6606445312,0.1464843750,-0.0595703125,-5.1422119141,-25.7263183594,-40.8935546875
0.3734052181,-0.6606445312,0.1464843750,-0.0595703125,-5.1422119141,-25.7263183594,-40.8935546875
0.3759801388,-0.6958007812,0.1884765625,-0.0576171875,-4.1503906250,-25.2838134766,-45.2880859375
0.3786411285,-0.6958007812,0.1884765625,-0.0576171875,-4.1503906250,-25.2838134766,-45.2880859375
0.3812141418,-0.6958007812,0.1884765625,-0.0576171875,-2.4719238281,-25.0549316406,-49.7894287109
0.3837840557,-0.6958007812,0.1884765625,-0.0576171875,-2.4719238281,-25.0549316406,-49.7894287109
0.3863580227,-0.7099609375,0.2001953125,-0.0512695312,-0.0762939453,-25.1617431641,-54.1229248047
0.3891000748,-0.7099609375,0.2001953125,-0.0512695312,-0.0762939453,-25.1617431641,-54.1229248047
0.3916800022,-0.7099609375,0.2001953125,-0.0512695312,2.4566650391,-25.4669189453,-58.4869384766
0.3942501545,-0.7099609375,0.2001953125,-0.0512695312,2.4566650391,-25.4669189453,-58.4869384766
0.3968172073,-0.7314453125,0.1904296875,-0.0556640625,5.0964355469,-24.6887207031,-62.5762939453
0.3994531631,-0.7314453125,0.1904296875,-0.0556640625,5.0964355469,-24.6887207031,-62.5762939453
0.4020211697,-0.7314453125,0.1904296875,-0.0556640625,7.4005126953,-24.1241455078,-65.8264160156
0.4045832157,-0.7314453125,0.1904296875,-0.0556640625,7.4005126953,-24.1241455078,-65.8264160156
0.4071581364,-0.7270507812,0.1840820312,-0.0639648438,7.4005126953,-23.8494873047,-69.0460205078
0.4097321033,-0.7270507812,0.1840820312,-0.0639648438,8.6975097656,-23.8494873047,-69.0460205078
0.4123101234,-0.7270507812,0.1840820312,-0.0639648438,8.6975097656,-19.9432373047,-72.2198486328
0.4148821831,-0.7270507812,0.1840820312,-0.0639648438,9.3688964844,-23.1018066406,-72.2198486328
0.4174761772,-0.7187500000,0.1870117188,-0.0727539062,9.3688964844,-23.1018066406,-75.1800537109
0.4200561047,-0.7187500000,0.1870117188,-0.0727539062,9.8724365234,-22.9034423828,-75.1800537109
0.4226231575,-0.7187500000,0.1870117188,-0.0727539062,9.8724365234,-22.9034423828,-75.1800537109
0.4251971245,-0.7187500000,0.1870117188,-0.0727539062,11.3525390625,-23.1170654297,-78.2623291016
0.4277791977,-0.6904296875,0.2246093750,-0.0825195312,11.3525390625,-23.1170654297,-78.2623291016
0.4303550720,-0.6904296875,0.2246093750,-0.0825195312,12.9852294922,-22.7966308594,-81.2072753906
0.4329371452,-0.6904296875,0.2246093750,-0.0825195312,12.9852294922,-22.7966308594,-81.2072753906
0.4355111122,-0.6904296875,0.2246093750,-0.0825195312,13.6718750000,-22.3388671875,-84.1369628906
0.4382932186,-0.6723632812,0.2314453125,-0.0722656250,13.6718750000,-22.3388671875,-84.1369628906
0.4408721924,-0.6723632812,0.2314453125,-0.0722656250,14.1448974609,-22.2015380859,-86.6241455078
0.4435491562,-0.6723632812,0.2314453125,-0.0722656250,14.1448974609,-22.2015380859,-86.6241455078
0.4461541176,-0.6723632812,0.2314453125,-0.0781250000,14.4348144531,-23.0560302734,-89.1418457031
0.4489591122,-0.6645507812,0.2363281250,-0.0781250000,14.4348144531,-23.0560302734,-89.1418457031
0.4515371323,-0.6645507812,0.2363281250,-0.0781250000,13.8397216797,-23.2391357422,-91.4764404297
0.4541192055,-0.6645507812,0.2363281250,-0.0781250000,13.8397216797,-23.2391357422,-91.4764404297
0.4566950798,-0.6645507812,0.2568359375,-0.0766601562,12.8784179688,-23.4375000000,-93.9636230469
0.4593009949,-0.6704101562,0.2568359375,-0.0766601562,12.8784179688,-23.4375000000,-93.9636230469
0.4618721008,-0.6704101562,0.2568359375,-0.0766601562,12.1612548828,-23.6968994141,-95.9320068359
0.4644451141,-0.6704101562,0.2568359375,-0.0766601562,12.1612548828,-23.6968994141,-95.9320068359
0.4670221806,-0.6665039062,0.2626953125,-0.0717773438,8.2550048828,-24.5208740234,-97.3815917969
0.4696362019,-0.6665039062,0.2626953125,-0.0717773438,10.4675292969,-24.5208740234,-97.3815917969
0.4722070694,-0.6665039062,0.2626953125,-0.0717773438,10.4675292969,-24.5208740234,-98.6938476562
0.4747860432,-0.6665039062,0.2626953125,-0.0717773438,8.1787109375,-24.9786376953,-98.6938476562
0.4773590565,-0.6640625000,0.2504882812,-0.0756835938,8.1787109375,-24.9786376953,-100.3265380859
0.4799401760,-0.6640625000,0.2504882812,-0.0756835938,6.1645507812,-24.9786376953,-100.3265380859
0.4825181961,-0.6640625000,0.2504882812,-0.0756835938,6.1645507812,-24.9786376953,-100.3265380859
0.4850912094,-0.6640625000,0.2504882812,-0.0756835938,4.0283203125,-25.1007080078,-101.5472412109
0.4877262115,-0.6645507812,0.2436523438,-0.0751953125,4.0283203125,-25.1007080078,-101.5472412109
0.4903061390,-0.6645507812,0.2436523438,-0.0751953125,0.8544921875,-25.1617431641,-101.7608642578
0.4928820133,-0.6645507812,0.2436523438,-0.0751953125,0.8544921875,-25.1617431641,-101.7608642578
0.4954600334,-0.6645507812,0.2436523438,-0.0751953125,-1.8157958984,-24.8413085938,-102.4169921875
0.4980931282,-0.6625976562,0.2690429688,-0.0805664062,-1.8157958984,-24.8413085938,-102.4169921875
0.5007781982,-0.6625976562,0.2690429688,-0.0805664062,-4.8828125000,-24.8718261719,-103.2867431641
0.5033590794,-0.6625976562,0.2690429688,-0.0805664062,-4.8828125000,-24.8718261719,-103.2867431641
0.5059330463,-0.6625976562,0.2690429688,-0.0805664062,-7.1411132812,-24.7497558594,-103.5919189453
0.5086381435,-0.6606445312,0.2993164062,-0.0849609375,-7.1411132812,-24.7497558594,-103.5919189453
0.5112130642,-0.6606445312,0.2993164062,-0.0849609375,-8.3312988281,-24.2462158203,-104.5074462891
0.5137910843,-0.6606445312,0.2993164062,-0.0849609375,-8.3312988281,-24.2462158203,-104.5074462891
0.5163681507,-0.6606445312,0.2993164062,-0.0849609375,-9.0179443359,-23.6968994141,-105.0567626953
0.5189499855,-0.6547851562,0.3046875000,-0.0732421875,-9.0179443359,-23.6968994141,-105.0567626953
0.5215201378,-0.6547851562,0.3046875000,-0.0732421875,-9.0179443359,-23.3306884766,-105.3924560547
0.5240960121,-0.6547851562,0.3046875000,-0.0732421875,-9.2773437500,-23.3306884766,-105.3924560547
0.5266580582,-0.6547851562,0.3046875000,-0.0786132812,-9.2773437500,-23.3306884766,-106.1553955078
0.5293061733,-0.6503906250,0.2954101562,-0.0786132812,-10.2386474609,-22.4456787109,-106.1553955078
0.5319750309,-0.6503906250,0.2954101562,-0.0786132812,-10.2386474609,-22.4456787109,-106.3690185547
0.5345520973,-0.6503906250,0.2954101562,-0.0786132812,-10.8642578125,-21.3317871094,-106.3690185547
0.5371232033,-0.6503906250,0.3090820312,-0.0698242188,-10.8642578125,-21.3317871094,-106.1706542969
0.5397841930,-0.6625976562,0.3090820312,-0.0698242188,-11.3983154297,-20.3704833984,-106.1706542969
0.5423541069,-0.6625976562,0.3090820312,-0.0698242188,-11.3983154297,-19.4702148438,-105.6365966797
0.5457980633,-0.6625976562,0.3090820312,-0.0698242188,-12.2222900391,-19.4702148438,-105.6365966797
0.5483801365,-0.6484375000,0.3159179688,-0.0649414062,-12.2222900391,-19.4702148438,-104.9041748047
0.5509622097,-0.6484375000,0.3159179688,-0.0649414062,-12.8173828125,-18.5089111328,-104.9041748047
0.5535302162,-0.6484375000,0.3159179688,-0.0649414062,-12.8173828125,-18.5089111328,-104.9041748047
0.5560970306,-0.6484375000,0.3159179688,-0.0649414062,-13.3361816406,-17.2882080078,-104.6905517578
0.5587241650,-0.6577148438,0.3173828125,-0.0546875000,-13.3361816406,-17.2882080078,-104.6905517578
0.5612950325,-0.6577148438,0.3173828125,-0.0546875000,-14.0075683594,-15.7623291016,-104.1107177734
0.5639832020,-0.6577148438,0.3173828125,-0.0546875000,-14.0075683594,-15.7623291016,-104.1107177734
0.5665571690,-0.6577148438,0.3173828125,-0.0546875000,-15.3198242188,-14.3890380859,-103.0731201172
0.5692172050,-0.6625976562,0.3105468750,-0.0625000000,-15.3198242188,-14.3890380859,-103.0731201172
0.5718021393,-0.6625976562,0.3105468750,-0.0625000000,-17.3797607422,-12.8326416016,-101.9287109375
0.5743761063,-0.6625976562,0.3105468750,-0.0625000000,-17.3797607422,-12.8326416016,-101.9287109375
0.5769522190,-0.6625976562,0.3105468750,-0.0625000000,-19.4091796875,-11.7645263672,-100.5249023438
0.5795340538,-0.6547851562,0.3125000000,-0.0625000000,-19.4091796875,-11.7645263672,-100.5249023438
0.5821051598,-0.6547851562,0.3125000000,-0.0625000000,-21.3928222656,-11.1236572266,-99.0295410156
0.5846831799,-0.6547851562,0.3125000000,-0.0625000000,-21.3928222656,-11.1236572266,-99.0295410156
0.5872571468,-0.6547851562,0.3125000000,-0.0610351562,-24.6276855469,-9.7198486328,-97.6104736328
0.5899701118,-0.6474609375,0.2719726562,-0.0610351562,-24.6276855469,-9.7198486328,-97.6104736328
0.5925440788,-0.6474609375,0.2719726562,-0.0610351562,-27.3742675781,-8.7432861328,-95.6420898438
0.5951151848,-0.6474609375,0.2719726562,-0.0610351562,-27.3742675781,-8.7432861328,-95.6420898438
0.5978641510,-0.6474609375,0.2612304688,-0.0673828125,-27.3742675781,-8.1176757812,-93.4753417969
0.6004440784,-0.6293945312,0.2612304688,-0.0673828125,-30.7159423828,-8.1176757812,-93.4753417969
0.6030151844,-0.6293945312,0.2612304688,-0.0673828125,-30.7159423828,-6.4392089844,-92.0715332031
0.6055941582,-0.6293945312,0.2612304688,-0.0673828125,-33.2336425781,-6.4392089844,-92.0715332031
0.6081731319,-0.5043945312,0.2641601562,-0.0541992188,-33.2336425781,-6.4392089844,-90.5914306641
0.6107401848,-0.6201171875,0.2641601562,-0.0541992188,-34.7900390625,-5.0659179688,-90.5914306641
0.6133120060,-0.6201171875,0.2641601562,-0.0541992188,-34.7900390625,-5.0659179688,-86.6851806641
0.6158812046,-0.6201171875,0.2641601562,-0.0541992188,-35.9649658203,-4.4555664062,-88.9587402344
0.6184990406,-0.6215820312,0.2998046875,-0.0498046875,-35.9649658203,-4.4555664062,-88.9587402344
0.6210741997,-0.6215820312,0.2998046875,-0.0498046875,-37.6586914062,-3.4942626953,-87.1276855469
0.6236410141,-0.6215820312,0.2998046875,-0.0498046875,-37.6586914062,-3.4942626953,-87.1276855469
0.6263251305,-0.6215820312,0.2998046875,-0.0498046875,-38.8183593750,-1.8310546875,-85.4034423828
0.6289072037,-0.6196289062,0.3251953125,-0.0249023438,-38.8183593750,-1.8310546875,-85.4034423828
0.6314790249,-0.6196289062,0.3251953125,-0.0249023438,-39.5050048828,-0.5340576172,-83.6334228516
0.6342160702,-0.6196289062,0.3251953125,-0.0249023438,-39.5050048828,-0.5340576172,-83.6334228516
0.6367850304,-0.6196289062,0.3251953125,-0.0249023438,-39.7491455078,0.2136230469,-81.4361572266
0.6394901276,-0.6181640625,0.3227539062,-0.0175781250,-39.7491455078,0.2136230469,-81.4361572266
0.6421620846,-0.6181640625,0.3227539062,-0.0175781250,-41.3208007812,1.6174316406,-79.5898437500
0.6453480721,-0.6181640625,0.3227539062,-0.0175781250,-41.3208007812,1.6174316406,-79.5898437500
0.6479890347,-0.6181640625,0.3227539062,-0.0102539062,-44.4030761719,2.5329589844,-78.0639648438
0.6505610943,-0.6235351562,0.2880859375,-0.0102539062,-44.4030761719,2.5329589844,-78.0639648438
0.6531291008,-0.6235351562,0.2880859375,-0.0102539062,-47.3175048828,3.4332275391,-76.2481689453
0.6557002068,-0.6235351562,0.2880859375,-0.0102539062,-47.3175048828,3.4332275391,-76.2481689453
0.6583211422,-0.6235351562,0.2978515625,0.0000000000,-49.5605468750,4.4708251953,-74.2492675781
0.6608932018,-0.6040039062,0.2978515625,0.0000000000,-49.5605468750,4.4708251953,-74.2492675781
0.6634600163,-0.6040039062,0.2978515625,0.0000000000,-52.1087646484,4.5776367188,-72.7539062500
0.6660311222,-0.6040039062,0.2978515625,0.0000000000,-52.1087646484,4.5776367188,-72.7539062500
0.6686069965,-0.6040039062,0.3134765625,0.0156250000,-52.1087646484,5.0048828125,-70.7244873047
0.6711790562,-0.6137695312,0.3134765625,0.0156250000,-54.5349121094,5.0048828125,-70.7244873047
0.6737511158,-0.6137695312,0.3134765625,0.0156250000,-54.5349121094,5.0048828125,-68.6187744141
0.6763241291,-0.6137695312,0.3134765625,0.0156250000,-56.1676025391,4.8675537109,-68.6187744141
0.6789121628,-0.6137695312,0.3486328125,0.0351562500,-56.1676025391,4.8675537109,-66.4367675781
0.6814801693,-0.6113281250,0.3486328125,0.0351562500,-56.6711425781,4.8980712891,-66.4367675781
0.6840519905,-0.6113281250,0.3486328125,0.0351562500,-56.6711425781,4.8980712891,-62.5305175781
0.6866211891,-0.6113281250,0.3486328125,0.0351562500,-55.5877685547,5.2032470703,-64.3310546875
0.6894960403,-0.6005859375,0.3598632812,0.0429687500,-55.5877685547,5.2032470703,-60.4248046875
0.6920821667,-0.6005859375,0.3598632812,0.0429687500,-53.1616210938,5.4931640625,-61.3098144531
0.6946570873,-0.6005859375,0.3598632812,0.0429687500,-53.1616210938,5.4931640625,-61.3098144531
0.6972332001,-0.6005859375,0.3598632812,0.0429687500,-50.0640869141,5.1574707031,-58.1207275391
0.6999511719,-0.5898437500,0.3422851562,0.0537109375,-50.0640869141,5.1574707031,-58.1207275391
0.7025220394,-0.5898437500,0.3422851562,0.0537109375,-46.7376708984,4.8370361328,-54.9468994141
0.7051041126,-0.5898437500,0.3422851562,0.0537109375,-46.7376708984,4.8370361328,-54.9468994141
0.7077331543,-0.5898437500,0.3422851562,0.0537109375,-43.3044433594,4.7454833984,-51.4221191406
0.7104361057,-0.5957031250,0.3266601562,0.0532226562,-43.3044433594,4.7454833984,-51.4221191406
0.7131361961,-0.5957031250,0.3266601562,0.0532226562,-40.9088134766,4.2724609375,-47.9125976562
0.7158420086,-0.5957031250,0.3266601562,0.0532226562,-40.9088134766,4.2724609375,-47.9125976562
0.7185621262,-0.5957031250,0.3266601562,0.0380859375,-38.0706787109,3.7994384766,-44.2962646484
0.7212672234,-0.5942382812,0.3095703125,0.0380859375,-38.0706787109,3.7994384766,-44.2962646484
0.7239720821,-0.5942382812,0.3095703125,0.0380859375,-35.5224609375,4.1351318359,-41.0308837891
0.7266800404,-0.5942382812,0.3095703125,0.0380859375,-35.5224609375,4.1351318359,-41.0308837891
0.7293970585,-0.5942382812,0.3085937500,0.0356445312,-32.7148437500,3.9520263672,-37.9028320312
0.7321040630,-0.6040039062,0.3085937500,0.0356445312,-32.7148437500,3.9520263672,-37.9028320312
0.7348151207,-0.6040039062,0.3085937500,0.0356445312,-29.9072265625,3.6315917969,-34.5306396484
0.7378630638,-0.6040039062,0.3085937500,0.0356445312,-29.9072265625,3.6315917969,-34.5306396484
0.7404441833,-0.6220703125,0.3085937500,0.0517578125,-27.4810791016,2.8839111328,-31.5399169922
0.7438111305,-0.6220703125,0.3085937500,0.0517578125,-27.4810791016,2.8839111328,-31.5399169922
0.7463951111,-0.6220703125,0.3085937500,0.0517578125,-25.4821777344,2.7770996094,-28.0914306641
0.7490580082,-0.6220703125,0.3085937500,0.0625000000,-25.4821777344,2.7770996094,-28.0914306641
0.7517671585,-0.6469726562,0.2817382812,0.0625000000,-25.6500244141,2.8228759766,-24.6582031250
0.7545771599,-0.6469726562,0.2817382812,0.0625000000,-25.6500244141,2.8228759766,-24.6582031250
0.7572841644,-0.6469726562,0.2817382812,0.0625000000,-26.9012451172,2.5482177734,-21.3165283203
0.7600021362,-0.6318359375,0.3334960938,0.0498046875,-26.9012451172,2.5482177734,-21.3165283203
0.7627069950,-0.6318359375,0.3334960938,0.0498046875,-27.0233154297,2.3651123047,-17.0440673828
0.7654161453,-0.6318359375,0.3334960938,0.0498046875,-27.0233154297,2.3651123047,-17.0440673828
0.7681300640,-0.6318359375,0.3334960938,0.0498046875,-26.6876220703,0.4272460938,-12.4816894531
0.7708420753,-0.8969726562,0.6699218750,0.2553710938,-26.6876220703,0.4272460938,-12.4816894531
0.7735462189,-0.8969726562,0.6699218750,0.2553710938,-31.9366455078,-7.5378417969,-5.3100585938
0.7762460709,-0.8969726562,0.6699218750,0.2553710938,-31.9366455078,-7.5378417969,-5.3100585938
0.7788929939,-0.8969726562,0.6699218750,0.1303710938,-36.1785888672,-9.5214843750,6.8206787109
0.7814671993,-1.1142578125,1.3237304688,0.2143554688,-36.1785888672,-9.5214843750,6.8206787109
0.7840361595,-1.1142578125,1.3237304688,0.2143554688,-21.6369628906,-3.9062500000,34.6527099609
0.7866082191,-1.1142578125,1.3237304688,0.2143554688,-21.6369628906,-3.9062500000,34.6527099609
0.7892231941,-1.1142578125,1.3237304688,0.1928710938,-4.3945312500,-3.0670166016,55.9539794922
0.7917881012,-1.0429687500,1.6220703125,0.1928710938,-4.3945312500,-3.0670166016,55.9539794922
0.7943592072,-1.0429687500,1.6220703125,0.1928710938,6.9885253906,-4.3792724609,57.7545166016
0.7969291210,-1.0429687500,1.6220703125,0.1928710938,6.9885253906,-4.3792724609,57.7545166016
0.7996830940,-1.0429687500,0.6450195312,-0.0620117188,25.0854492188,0.9918212891,55.9387207031
0.8023700714,-1.0893554688,0.6450195312,-0.0620117188,25.0854492188,0.9918212891,55.9387207031
0.8050601482,-1.0893554688,0.6450195312,-0.0620117188,31.9976806641,1.9989013672,58.7921142578
0.8077580929,-1.0893554688,0.6450195312,-0.0620117188,31.9976806641,1.9989013672,58.7921142578
0.8104472160,-0.9091796875,-0.0737304688,-0.2109375000,28.7475585938,-0.6256103516,62.0117187500
0.8131380081,-0.9091796875,-0.0737304688,-0.2109375000,28.7475585938,-0.6256103516,62.0117187500
0.8158311844,-0.9091796875,-0.0737304688,-0.2109375000,23.2696533203,-0.9613037109,61.9506835938
0.8186461926,-0.9091796875,-0.0737304688,-0.2109375000,23.2696533203,-0.9613037109,61.9506835938
0.8213391304,-0.6694335938,-0.6123046875,-0.1518554688,15.2130126953,2.3803710938,59.4482421875
0.8240230083,-0.6694335938,-0.6123046875,-0.1518554688,15.2130126953,2.3803710938,59.4482421875
0.8267099857,-0.6694335938,-0.6123046875,-0.1518554688,3.0059814453,6.4392089844,56.1676025391
0.8294072151,-0.6694335938,-0.6123046875,-0.0268554688,3.0059814453,6.4392089844,56.1676025391
0.8320920467,-0.7182617188,-0.6118164062,-0.0922851562,-10.6353759766,8.1176757812,55.0231933594
0.8347811699,-0.7182617188,-0.6118164062,-0.0922851562,-10.6353759766,8.1176757812,55.0231933594
0.8374791145,-0.7182617188,-0.6118164062,-0.0922851562,-22.1710205078,9.0332031250,53.8330078125
0.8402390480,-0.7182617188,-0.3847656250,-0.0083007812,-22.1710205078,9.0332031250,53.8330078125
0.8429331779,-0.7924804688,-0.3847656250,-0.0083007812,-29.6630859375,9.9639892578,51.7272949219
0.8456342220,-0.7924804688,-0.3847656250,-0.0083007812,-29.6630859375,9.9639892578,51.7272949219
0.8483440876,-0.7924804688,-0.3847656250,-0.0083007812,-35.7818603516,9.2468261719,52.5970458984
0.8510332108,-0.8447265625,-0.0551757812,0.0795898438,-35.7818603516,9.2468261719,52.5970458984
0.8539791107,-0.8447265625,-0.0551757812,0.0795898438,-42.2210693359,5.8593750000,56.5490722656
0.8566720486,-0.8447265625,-0.0551757812,0.0795898438,-42.2210693359,5.8593750000,56.5490722656
0.8601620197,-0.8447265625,0.1948242188,0.1289062500,-45.0439453125,3.0364990234,60.1654052734
0.8627340794,-0.7758789062,0.1738281250,0.1289062500,-45.0439453125,3.0364990234,60.1654052734
0.8653070927,-0.7758789062,0.1738281250,0.1289062500,-43.0145263672,1.8463134766,61.2030029297
0.8679621220,-0.7758789062,0.1738281250,0.1289062500,-43.0145263672,1.8463134766,61.2030029297
0.8705360889,-0.7758789062,0.2377929688,0.0908203125,-39.2608642578,0.7171630859,60.8825683594
0.8731021881,-0.7211914062,0.2377929688,0.0908203125,-39.2608642578,0.7171630859,60.8825683594
0.8756701946,-0.7211914062,0.2377929688,0.0908203125,-35.0952148438,-0.6561279297,60.4553222656
0.8782989979,-0.7211914062,0.2377929688,0.0908203125,-35.0952148438,-0.6561279297,60.4553222656
0.8809661865,-0.6518554688,0.2197265625,0.0415039062,-31.1889648438,-1.9836425781,58.8378906250
0.8836491108,-0.6518554688,0.2197265625,0.0415039062,-29.8614501953,-1.9836425781,58.8378906250
0.8862171173,-0.6518554688,0.2197265625,0.0415039062,-29.8614501953,-2.7770996094,56.8084716797
0.8887941837,-0.6518554688,0.2197265625,0.0415039062,-24.6734619141,-2.7770996094,56.8084716797
0.8913590908,-0.6123046875,0.1572265625,0.0161132812,-24.6734619141,-2.7770996094,54.7332763672
0.8939290047,-0.6123046875,0.1572265625,0.0161132812,-19.9432373047,-3.2043457031,54.7332763672
0.8964951038,-0.6123046875,0.1572265625,0.0161132812,-19.9432373047,-3.2043457031,53.0853271484
0.8991050720,-0.6123046875,0.1572265625,0.0161132812,-17.6086425781,-3.1890869141,53.0853271484
0.9016780853,-0.6064453125,0.1191406250,0.0063476562,-17.6086425781,-3.1890869141,53.0853271484
0.9042491913,-0.6064453125,0.1191406250,0.0063476562,-17.2576904297,-2.5329589844,52.4291992188
0.9068150520,-0.6064453125,0.1191406250,0.0063476562,-17.2576904297,-2.5329589844,52.4291992188
0.9095761776,-0.6064453125,0.1191406250,0.0063476562,-17.5476074219,-2.4261474609,52.2003173828
0.9121470451,-0.6103515625,0.1337890625,-0.0029296875,-17.5476074219,-2.4261474609,52.2003173828
0.9147231579,-0.6103515625,0.1337890625,-0.0029296875,-18.0816650391,-2.3651123047,52.7343750000
0.9173011780,-0.6103515625,0.1337890625,-0.0029296875,-18.0816650391,-2.3651123047,52.7343750000
0.9201250076,-0.6103515625,0.1337890625,0.1220703125,-18.5089111328,-2.4566650391,53.0395507812
0.9228320122,-0.6523437500,0.1557617188,0.0039062500,-18.5089111328,-2.4566650391,53.0395507812
0.9255421162,-0.6523437500,0.1557617188,0.0039062500,-19.5312500000,-2.4414062500,53.4820556641
0.9282522202,-0.6523437500,0.1557617188,0.0039062500,-19.5312500000,-2.4414062500,53.4820556641
0.9309601784,-0.6523437500,0.1455078125,0.0068359375,-21.1944580078,-2.7923583984,54.1229248047
0.9336690903,-0.6762695312,0.1455078125,0.0068359375,-21.1944580078,-2.7923583984,54.1229248047
0.9363679886,-0.6762695312,0.1455078125,0.0068359375,-23.5443115234,-2.5787353516,55.3894042969
0.9389991760,-0.6762695312,0.1455078125,0.0068359375,-23.5443115234,-2.5787353516,55.3894042969
0.9417262077,-0.6933593750,0.1108398438,0.0244140625,-26.4739990234,-3.0822753906,56.9152832031
0.9443089962,-0.6933593750,0.1108398438,0.0244140625,-26.4739990234,-3.0822753906,56.9152832031
0.9469962120,-0.6933593750,0.1108398438,0.0244140625,-29.3426513672,-3.9672851562,57.8918457031
0.9498531818,-0.6933593750,0.1108398438,0.0244140625,-29.3426513672,-3.9672851562,57.8918457031
0.9525220394,-0.7045898438,0.0786132812,0.0253906250,-30.9600830078,-4.1198730469,57.5714111328
0.9557590485,-0.7045898438,0.0786132812,0.0253906250,-30.9600830078,-4.1198730469,57.5714111328
0.9583680630,-0.7045898438,0.0786132812,0.0253906250,-32.3028564453,-4.8065185547,57.5866699219
0.9609370232,-0.7045898438,0.0786132812,0.0278320312,-32.3028564453,-4.8065185547,57.5866699219
0.9635109901,-0.7158203125,0.0629882812,0.0278320312,-33.2489013672,-5.2947998047,58.5021972656
0.9660811424,-0.7158203125,0.0629882812,0.0278320312,-33.2489013672,-5.2947998047,58.5021972656
0.9686992168,-0.7158203125,0.0629882812,0.0278320312,-33.9965820312,-5.7373046875,58.7005615234
0.9712750912,-0.7158203125,0.0629882812,0.0312500000,-33.9965820312,-5.7373046875,58.7005615234
0.9738471508,-0.7167968750,0.0668945312,0.0312500000,-35.2020263672,-6.1798095703,59.0667724609
0.9764151573,-0.7167968750,0.0668945312,0.0312500000,-35.2020263672,-6.1798095703,59.0667724609
0.9789981842,-0.7167968750,0.0668945312,0.0312500000,-35.3546142578,-7.0953369141,59.3566894531
0.9815711975,-0.7167968750,0.1201171875,0.0351562500,-35.3546142578,-7.0953369141,59.3566894531
0.9841461182,-0.7001953125,0.1201171875,0.0351562500,-35.3546142578,-7.2784423828,59.5397949219
0.9867150784,-0.7001953125,0.1201171875,0.0351562500,-33.8439941406,-7.2784423828,59.5397949219
0.9892899990,-0.7001953125,0.1201171875,0.0351562500,-33.8439941406,-7.2784423828,60.1043701172
0.9918692112,-0.7001953125,0.2309570312,0.0136718750,-30.4718017578,-8.2702636719,60.1043701172
0.9944381714,-0.7192382812,0.2309570312,0.0136718750,-30.4718017578,-8.2702636719,60.1043701172
0.9970080853,-0.7192382812,0.2309570312,0.0136718750,-26.1993408203,-9.0179443359,60.5163574219
0.9997820854,-0.7192382812,0.2309570312,0.0136718750,-26.1993408203,-9.0179443359,60.5163574219
1.0023570061,-0.7211914062,0.2968750000,0.0107421875,-22.9339599609,-9.2620849609,61.1572265625
1.0049409866,-0.7211914062,0.2968750000,0.0107421875,-22.9339599609,-9.2620849609,61.1572265625
1.0076432228,-0.7211914062,0.2968750000,0.0107421875,-17.7307128906,-9.1094970703,60.8367919922
1.0104742050,-0.7211914062,0.2968750000,0.0107421875,-17.7307128906,-9.1094970703,60.8367919922
1.0131890774,-0.7133789062,0.4492187500,-0.0024414062,-8.4686279297,-9.3383789062,61.0504150391
1.0158941746,-0.7133789062,0.4492187500,-0.0024414062,-8.4686279297,-9.3383789062,61.0504150391
1.0186071396,-0.7133789062,0.4492187500,-0.0024414062,-3.0975341797,-10.0402832031,60.1196289062
1.0213160515,-0.7133789062,0.4492187500,0.0112304688,-3.0975341797,-10.0402832031,60.1196289062
1.0240261555,-0.6743164062,0.2768554688,0.0112304688,-0.9613037109,-9.5977783203,57.1136474609
1.0267350674,-0.6743164062,0.2768554688,0.0112304688,-0.9613037109,-9.5977783203,57.1136474609
1.0293591022,-0.6743164062,0.2768554688,0.0112304688,-2.0446777344,-8.0261230469,55.5267333984
1.0319271088,-0.6743164062,0.1450195312,-0.0234375000,-2.0446777344,-8.0261230469,55.5267333984
1.0345060825,-0.5976562500,0.1450195312,-0.0234375000,-4.8828125000,-7.0190429688,56.4117431641
1.0370831490,-0.5976562500,0.1450195312,-0.0234375000,-4.8828125000,-7.0190429688,56.4117431641
1.0397901535,-0.5976562500,0.1450195312,-0.0234375000,-7.1105957031,-7.7667236328,57.7392578125
1.0424590111,-0.6020507812,0.1508789062,0.0268554688,-7.1105957031,-7.7667236328,57.7392578125
1.0451710224,-0.6020507812,0.1508789062,0.0268554688,-4.7149658203,-8.0261230469,57.1746826172
1.0479171276,-0.6020507812,0.1508789062,0.0268554688,-4.7149658203,-8.0261230469,57.1746826172
1.0505771637,-0.6020507812,0.1508789062,0.0268554688,-1.4953613281,-7.8887939453,56.3964843750
1.0537102222,-0.5820312500,0.1665039062,0.0522460938,-1.4953613281,-7.8887939453,56.3964843750
1.0562829971,-0.5820312500,0.1665039062,0.0522460938,-1.6326904297,-9.7808837891,55.6793212891
1.0589230061,-0.5820312500,0.1665039062,0.0522460938,-1.6326904297,-9.7808837891,55.6793212891
1.0614850521,-0.5820312500,0.1665039062,0.0522460938,-4.4250488281,-12.1002197266,54.8706054688
1.0640540123,-0.5961914062,0.1166992188,0.0590820312,-4.4250488281,-12.1002197266,54.8706054688
1.0666501522,-0.5961914062,0.1166992188,0.0590820312,-4.6691894531,-13.9923095703,54.1076660156
1.0692729950,-0.5961914062,0.1166992188,0.0590820312,-4.6691894531,-13.9923095703,54.1076660156
1.0718441010,-0.5961914062,0.1166992188,0.0297851562,-3.8909912109,-15.5944824219,51.5747070312
1.0745160580,-0.6904296875,0.1660156250,0.0297851562,-3.8909912109,-15.5944824219,51.5747070312
1.0770931244,-0.6904296875,0.1660156250,0.0297851562,-2.7160644531,-16.2963867188,49.2248535156
1.0796790123,-0.6904296875,0.1660156250,0.0297851562,-2.7160644531,-16.2963867188,49.2248535156
1.0822510719,-0.6904296875,0.2910156250,-0.0009765625,-2.7160644531,-16.9982910156,48.2177734375
1.0848240852,-0.7343750000,0.3569335938,-0.0009765625,-0.8850097656,-16.9982910156,48.2177734375
1.0874431133,-0.7343750000,0.3569335938,-0.0009765625,-0.8850097656,-16.9982910156,47.0886230469
1.0900352001,-0.7343750000,0.3569335938,-0.0009765625,0.7324218750,-17.6849365234,47.0886230469
1.0926001072,-0.7343750000,0.3081054688,-0.0390625000,0.7324218750,-17.6849365234,45.7458496094
1.0951731205,-0.7055664062,0.3081054688,-0.0390625000,1.5563964844,-17.6239013672,45.7458496094
1.0978810787,-0.7055664062,0.3081054688,-0.0390625000,1.5563964844,-17.6239013672,41.8395996094
1.1004571915,-0.7055664062,0.3081054688,-0.0390625000,1.8005371094,-17.5170898438,42.8619384766
1.1030340195,-0.6816406250,0.2421875000,-0.0122070312,1.8005371094,-17.5170898438,42.8619384766
1.1056160927,-0.6816406250,0.2421875000,-0.0122070312,1.5716552734,-19.0582275391,39.6118164062
1.1083230972,-0.6816406250,0.2421875000,-0.0122070312,1.5716552734,-19.0582275391,39.6118164062
1.1110281944,-0.6816406250,0.2421875000,-0.0122070312,0.4119873047,-20.0195312500,38.6047363281
1.1137371063,-0.6518554688,0.3618164062,0.0327148438,0.4119873047,-20.0195312500,38.6047363281
1.1164410114,-0.6518554688,0.3618164062,0.0327148438,1.4495849609,-20.6604003906,37.2772216797
1.1190750599,-0.6518554688,0.3618164062,0.0327148438,1.4495849609,-20.6604003906,37.2772216797
1.1216452122,-0.6518554688,0.3618164062,0.0327148438,2.8076171875,-21.6064453125,34.8358154297
1.1242170334,-0.6093750000,0.3452148438,0.0678710938,2.8076171875,-21.6064453125,34.8358154297
1.1267921925,-0.6093750000,0.3452148438,0.0678710938,1.4190673828,-22.4761962891,32.4249267578
1.1294569969,-0.6093750000,0.3452148438,0.0678710938,1.4190673828,-22.4761962891,32.4249267578
1.1321451664,-0.6093750000,0.3452148438,0.0678710938,-1.3427734375,-21.7895507812,30.9753417969
1.1348321438,-0.6313476562,0.2524414062,0.0742187500,-1.3427734375,-21.7895507812,30.9753417969
1.1375269890,-0.6313476562,0.2524414062,0.0742187500,-3.4027099609,-21.6827392578,29.7393798828
1.1403341293,-0.6313476562,0.2524414062,0.0742187500,-3.4027099609,-21.6827392578,29.7393798828
1.1430201530,-0.6313476562,0.2553710938,0.1054687500,-4.9896240234,-22.2015380859,28.8543701172
1.1458220482,-0.7211914062,0.2553710938,0.1054687500,-4.9896240234,-22.2015380859,28.8543701172
1.1485331059,-0.7211914062,0.2553710938,0.1054687500,-6.7749023438,-22.3388671875,26.7944335938
1.1512041092,-0.7211914062,0.2553710938,0.1054687500,-6.7749023438,-22.3388671875,26.7944335938
1.1544251442,-0.8515625000,0.3198242188,0.0805664062,-7.7514648438,-21.4691162109,25.4821777344
1.1570022106,-0.8515625000,0.3198242188,0.0805664062,-7.7514648438,-21.4691162109,25.4821777344
1.1596760750,-0.8515625000,0.3198242188,0.0805664062,-7.8277587891,-20.4010009766,24.8413085938
1.1622450352,-0.8515625000,0.3198242188,0.0805664062,-7.8277587891,-20.4010009766,24.8413085938
1.1648111343,-0.8500976562,0.3295898438,0.0644531250,-6.9732666016,-19.3634033203,23.0102539062
1.1673920155,-0.8500976562,0.3295898438,0.0644531250,-6.9732666016,-19.3634033203,23.0102539062
1.1700119972,-0.8500976562,0.3295898438,0.0644531250,-4.8217773438,-17.5781250000,21.3775634766
1.1725831032,-0.8500976562,0.3295898438,0.0644531250,-4.8217773438,-17.5781250000,21.3775634766
1.1751580238,-0.7607421875,0.3032226562,0.0581054688,-4.2724609375,-16.2353515625,20.2789306641
1.1777720451,-0.7607421875,0.3032226562,0.0581054688,-4.2724609375,-16.2353515625,20.2789306641
1.1803460121,-0.7607421875,0.3032226562,0.0581054688,-4.2724609375,-16.4489746094,18.9208984375
1.1829211712,-0.7607421875,0.3032226562,0.0908203125,-5.3405761719,-16.4489746094,18.9208984375
1.1854860783,-0.6777343750,0.3461914062,0.0908203125,-5.3405761719,-16.4489746094,16.5863037109
1.1881279945,-0.6777343750,0.3461914062,0.0908203125,-5.1269531250,-15.9301757812,16.5863037109
1.1906991005,-0.6777343750,0.3461914062,0.0908203125,-5.1269531250,-15.9301757812,14.5721435547
1.1932690144,-0.6777343750,0.3461914062,0.0761718750,-4.0740966797,-14.8773193359,14.5721435547
1.1958501339,-0.6489257812,0.3496093750,0.0761718750,-4.0740966797,-14.8773193359,12.4816894531
1.1984782219,-0.6489257812,0.3496093750,0.0761718750,-3.7078857422,-14.4042968750,12.4816894531
1.2010481358,-0.6489257812,0.3496093750,0.0761718750,-3.7078857422,-14.4042968750,12.4816894531
1.2037270069,-0.6489257812,0.3300781250,0.1015625000,-4.3182373047,-13.7481689453,10.8489990234
1.2062940598,-0.6328125000,0.3300781250,0.1015625000,-4.3182373047,-13.7481689453,10.8489990234
1.2090120316,-0.6328125000,0.3300781250,0.1015625000,-4.2572021484,-12.7868652344,8.8043212891
1.2115771770,-0.6328125000,0.3300781250,0.1015625000,-4.2572021484,-12.7868652344,8.8043212891
1.2141430378,-0.6533203125,0.3247070312,0.1083984375,-4.4250488281,-12.3443603516,6.5612792969
1.2167160511,-0.6533203125,0.3247070312,0.1083984375,-4.4250488281,-12.3443603516,6.5612792969
1.2192890644,-0.6533203125,0.3247070312,0.1083984375,-3.3416748047,-11.7340087891,5.1879882812
1.2218611240,-0.6533203125,0.3247070312,0.1083984375,-3.3416748047,-11.7340087891,5.1879882812
1.2244281769,-0.6894531250,0.2856445312,0.0903320312,-2.8686523438,-11.3677978516,3.8757324219
1.2269961834,-0.6894531250,0.2856445312,0.0903320312,-2.8686523438,-11.3677978516,3.8757324219
1.2297041416,-0.6894531250,0.2856445312,0.0903320312,-3.1433105469,-11.2762451172,2.6855468750
1.2323901653,-0.6894531250,0.2856445312,0.0903320312,-3.1433105469,-11.2762451172,2.6855468750
1.2350761890,-0.7172851562,0.3017578125,0.0966796875,-3.6010742188,-10.8642578125,1.7242431641
1.2377719879,-0.7172851562,0.3017578125,0.0966796875,-3.6010742188,-10.8642578125,1.7242431641
1.2404551506,-0.7172851562,0.3017578125,0.0966796875,-3.6926269531,-10.4980468750,0.1068115234
1.2431490421,-0.7172851562,0.3017578125,0.0966796875,-3.6926269531,-10.4980468750,0.1068115234
1.2458322048,-0.6943359375,0.3227539062,0.0859375000,-3.0517578125,-9.1247558594,-1.4648437500
1.2485601902,-0.6943359375,0.3227539062,0.0859375000,-3.0517578125,-9.1247558594,-1.4648437500
1.2512440681,-0.6943359375,0.3227539062,0.0859375000,-2.6702880859,-8.4838867188,-2.9602050781
1.2539250851,-0.6943359375,0.3227539062,0.0849609375,-2.6702880859,-8.4838867188,-2.9602050781
1.2566041946,-0.6552734375,0.3085937500,0.0849609375,-2.9144287109,-7.2937011719,-4.0588378906
1.2593162060,-0.6552734375,0.3085937500,0.0849609375,-2.9144287109,-7.2937011719,-4.0588378906
1.2619731426,-0.6552734375,0.3085937500,0.0849609375,-2.9144287109,-6.5155029297,-5.4473876953
1.2647612095,-0.6191406250,0.3295898438,0.1123046875,-2.9449462891,-6.5155029297,-5.4473876953
1.2684249878,-0.6191406250,0.3295898438,0.1123046875,-3.0517578125,-6.6223144531,-7.7514648438
1.2709991932,-0.6191406250,0.3295898438,0.1123046875,-3.0517578125,-6.6223144531,-7.7514648438
1.2735700607,-0.6191406250,0.3295898438,0.1123046875,-1.9836425781,-6.0272216797,-9.9792480469
1.2761380672,-0.6118164062,0.3403320312,0.1088867188,-1.9836425781,-6.0272216797,-9.9792480469
1.2787811756,-0.6118164062,0.3403320312,0.1088867188,-0.8850097656,-6.0119628906,-11.6271972656
1.2814841270,-0.6118164062,0.3403320312,0.1088867188,-0.8850097656,-6.0119628906,-11.6271972656
1.2841870785,-0.6118164062,0.3403320312,0.0922851562,0.2593994141,-7.0953369141,-13.9617919922
1.2868890762,-0.6357421875,0.3037109375,0.0922851562,0.2593994141,-7.0953369141,-13.9617919922
1.2896010876,-0.6357421875,0.3037109375,0.0922851562,1.5106201172,-7.1411132812,-15.3350830078
1.2923040390,-0.6357421875,0.3037109375,0.0922851562,1.5106201172,-7.1411132812,-15.3350830078
1.2950119972,-0.6821289062,0.2988281250,0.0712890625,2.1667480469,-7.1716308594,-16.3574218750
1.2977430820,-0.6821289062,0.2988281250,0.0712890625,2.1667480469,-7.1716308594,-16.3574218750
1.3003170490,-0.6821289062,0.2988281250,0.0712890625,2.6245117188,-7.1868896484,-17.4407958984
1.3028850555,-0.6821289062,0.2988281250,0.0712890625,2.6245117188,-7.1868896484,-17.4407958984
1.3054530621,-0.6967773438,0.2890625000,0.0488281250,2.6245117188,-6.8206787109,-18.0969238281
1.3080320358,-0.6967773438,0.2890625000,0.0488281250,2.3345947266,-6.8206787109,-18.0969238281
1.3106031418,-0.6967773438,0.2890625000,0.0488281250,2.3345947266,-6.8206787109,-18.2952880859
1.3131761551,-0.6967773438,0.2890625000,0.0488281250,1.0375976562,-6.3476562500,-18.2952880859
1.3157491684,-0.6918945312,0.2729492188,0.0693359375,1.0375976562,-6.3476562500,-18.4173583984
1.3184511662,-0.6918945312,0.2729492188,0.0693359375,-0.6866455078,-5.9509277344,-18.4173583984
1.3210210800,-0.6918945312,0.2729492188,0.0693359375,-0.6866455078,-5.9509277344,-18.4173583984
1.3235921860,-0.6918945312,0.2729492188,0.0693359375,-1.6479492188,-5.0354003906,-18.9819335938
1.3261570930,-0.6684570312,0.2875976562,0.0966796875,-1.6479492188,-5.0354003906,-18.9819335938
1.3289220333,-0.6684570312,0.2875976562,0.0966796875,-2.4108886719,-4.6997070312,-19.5617675781
1.3317151070,-0.6684570312,0.2875976562,0.0966796875,-2.4108886719,-4.6997070312,-19.5617675781
1.3343980312,-0.6684570312,0.2875976562,0.0942382812,-1.9989013672,-4.7454833984,-20.3247070312
1.3370890617,-0.6538085938,0.2905273438,0.0942382812,-1.9989013672,-4.7454833984,-20.3247070312
1.3397781849,-0.6538085938,0.2905273438,0.0942382812,-1.4038085938,-4.3640136719,-21.8963623047
1.3424651623,-0.6538085938,0.2905273438,0.0942382812,-1.4038085938,-4.3640136719,-21.8963623047
1.3451490402,-0.6538085938,0.2700195312,0.0971679688,-0.2899169922,-4.7760009766,-22.7355957031
1.3478410244,-0.6894531250,0.2700195312,0.0971679688,-0.2899169922,-4.7760009766,-22.7355957031
1.3506991863,-0.6894531250,0.2700195312,0.0971679688,0.2441406250,-4.3792724609,-23.5595703125
1.3532721996,-0.6894531250,0.2700195312,0.0971679688,0.2441406250,-4.3792724609,-23.5595703125
1.3558402061,-0.7070312500,0.2568359375,0.1074218750,1.5106201172,-4.0740966797,-24.2309570312
1.3584821224,-0.7070312500,0.2568359375,0.1074218750,1.5106201172,-4.0740966797,-24.2309570312
1.3611462116,-0.7070312500,0.2568359375,0.1074218750,2.6550292969,-4.2877197266,-25.2838134766
1.3639512062,-0.7070312500,0.2568359375,0.1074218750,2.6550292969,-4.2877197266,-25.2838134766
1.3665661812,-0.7138671875,0.2402343750,0.1059570312,3.4484863281,-4.0130615234,-25.6805419922
1.3692190647,-0.7138671875,0.2402343750,0.1059570312,3.4484863281,-4.0130615234,-25.6805419922
1.3717880249,-0.7138671875,0.2402343750,0.1059570312,3.9520263672,-4.1656494141,-26.0925292969
1.3743510246,-0.7138671875,0.2402343750,0.1059570312,3.9520263672,-4.1656494141,-26.0925292969
1.3769171238,-0.6933593750,0.2558593750,0.0932617188,4.4555664062,-4.1656494141,-26.2145996094
1.3794860840,-0.6933593750,0.2558593750,0.0932617188,4.4555664062,-4.1656494141,-26.2145996094
1.3820509911,-0.6933593750,0.2558593750,0.0932617188,4.8675537109,-4.2419433594,-26.6265869141
1.3846161366,-0.6933593750,0.2558593750,0.0932617188,4.8675537109,-4.2419433594,-26.6265869141
1.3871810436,-0.6684570312,0.2719726562,0.0795898438,4.8675537109,-4.3945312500,-27.2064208984
1.3897500038,-0.6684570312,0.2719726562,0.0795898438,5.3253173828,-4.3945312500,-27.2064208984
1.3923161030,-0.6684570312,0.2719726562,0.0795898438,5.3253173828,-4.3945312500,-27.8320312500
1.3949921131,-0.6684570312,0.2719726562,0.0874023438,6.1645507812,-4.6386718750,-27.8320312500
1.3975560665,-0.6665039062,0.2700195312,0.0874023438,6.1645507812,-4.6386718750,-28.1372070312
1.4001221657,-0.6665039062,0.2700195312,0.0874023438,7.1716308594,-4.8522949219,-28.1372070312
1.4026901722,-0.6665039062,0.2700195312,0.0874023438,7.1716308594,-4.8522949219,-28.1372070312
1.4052550793,-0.6665039062,0.2700195312,0.0791015625,7.6751708984,-4.1351318359,-28.3813476562
1.4079020023,-0.6855468750,0.2387695312,0.0791015625,7.6751708984,-4.1351318359,-28.3813476562
1.4104740620,-0.6855468750,0.2387695312,0.0791015625,8.0108642578,-3.6773681641,-28.6712646484
1.4130401611,-0.6855468750,0.2387695312,0.0791015625,8.0108642578,-3.6773681641,-28.6712646484
1.4156141281,-0.6855468750,0.2143554688,0.1127929688,8.7432861328,-3.9062500000,-28.4423828125
1.4182732105,-0.6962890625,0.2143554688,0.1127929688,8.7432861328,-3.9062500000,-28.4423828125
1.4208450317,-0.6962890625,0.2143554688,0.1127929688,8.6364746094,-3.4637451172,-28.0914306641
1.4234139919,-0.6962890625,0.2143554688,0.1127929688,8.6364746094,-3.4637451172,-28.0914306641
1.4259841442,-0.6962890625,0.2006835938,0.1035156250,9.3841552734,-3.0822753906,-27.6031494141
1.4286191463,-0.7426757812,0.2006835938,0.1035156250,9.3841552734,-3.0822753906,-27.6031494141
1.4313240051,-0.7426757812,0.2006835938,0.1035156250,9.4909667969,-3.0364990234,-26.7181396484
1.4340209961,-0.7426757812,0.2006835938,0.1035156250,9.4909667969,-3.0364990234,-26.7181396484
1.4367251396,-0.7465820312,0.1958007812,0.0869140625,9.6588134766,-3.2653808594,-25.9094238281
1.4394381046,-0.7465820312,0.1958007812,0.0869140625,9.6588134766,-3.2653808594,-25.9094238281
1.4421370029,-0.7465820312,0.1958007812,0.0869140625,9.9639892578,-3.1585693359,-24.9481201172
1.4448330402,-0.7465820312,0.1958007812,0.0869140625,9.9639892578,-3.1585693359,-24.9481201172
1.4475491047,-0.7021484375,0.2368164062,0.0898437500,9.8114013672,-3.3569335938,-23.8037109375
1.4502470493,-0.7021484375,0.2368164062,0.0898437500,9.8114013672,-3.3569335938,-23.8037109375
1.4529430866,-0.7021484375,0.2368164062,0.0898437500,9.9334716797,-3.4484863281,-23.2238769531
1.4557130337,-0.7021484375,0.2368164062,0.0981445312,9.9334716797,-3.4484863281,-23.2238769531
1.4586241245,-0.6645507812,0.2495117188,0.0981445312,10.7421875000,-3.5552978516,-23.5137939453
1.4613041878,-0.6645507812,0.2495117188,0.0981445312,10.7421875000,-3.5552978516,-23.5137939453
1.4646019936,-0.6645507812,0.2495117188,0.0981445312,12.0086669922,-3.5247802734,-24.1394042969
1.4671790600,-0.6552734375,0.2524414062,0.0903320312,12.0086669922,-3.5247802734,-24.1394042969
1.4697561264,-0.6552734375,0.2524414062,0.0903320312,13.3209228516,-3.4942626953,-24.3682861328
1.4723269939,-0.6552734375,0.2524414062,0.0903320312,13.3209228516,-3.4942626953,-24.3682861328
1.4748990536,-0.6552734375,0.2524414062,0.0903320312,14.5416259766,-3.3874511719,-24.4750976562
1.4774880409,-0.6689453125,0.2475585938,0.0996093750,14.5416259766,-3.3874511719,-24.4750976562
1.4800601006,-0.6689453125,0.2475585938,0.0996093750,15.8691406250,-3.6926269531,-24.3072509766
1.4826371670,-0.6689453125,0.2475585938,0.0996093750,15.8691406250,-3.6926269531,-24.3072509766
1.4852080345,-0.6689453125,0.2475585938,0.0996093750,15.8691406250,-3.6468505859,-24.1699218750
1.4877891541,-0.6889648438,0.2202148438,0.0844726562,17.7917480469,-3.6468505859,-24.1699218750
1.4903612137,-0.6889648438,0.2202148438,0.0844726562,17.7917480469,-7.5531005859,-23.9562988281
1.4929301739,-0.6889648438,0.2202148438,0.0844726562,19.8211669922,-3.9367675781,-23.9562988281
1.4955050945,-0.6889648438,0.2202148438,0.0844726562,19.8211669922,-3.9367675781,-23.1933593750
1.4982311726,-0.7255859375,0.1958007812,0.0839843750,20.5993652344,-3.9062500000,-23.1933593750
1.5008080006,-0.7255859375,0.1958007812,0.0839843750,20.5993652344,-3.9062500000,-22.3083496094
1.5033822060,-0.7255859375,0.1958007812,0.0839843750,21.9573974609,-3.4484863281,-22.3083496094
1.5059530735,-0.7255859375,0.1958007812,0.0839843750,21.9573974609,-3.4484863281,-22.3083496094
1.5086591244,-0.7231445312,0.1791992188,0.0732421875,23.4527587891,-3.0059814453,-20.1721191406
1.5112321377,-0.7231445312,0.1791992188,0.0732421875,23.4527587891,-3.0059814453,-20.1721191406
1.5138001442,-0.7231445312,0.1791992188,0.0732421875,25.1922607422,-2.6550292969,-18.5089111328
1.5163722038,-0.7231445312,0.1791992188,0.0825195312,25.1922607422,-2.6550292969,-18.5089111328
1.5190830231,-0.7290039062,0.1875000000,0.0825195312,24.9023437500,-2.0904541016,-16.9067382812
1.5217630863,-0.7290039062,0.1875000000,0.0825195312,24.9023437500,-2.0904541016,-16.9067382812
1.5243380070,-0.7290039062,0.1875000000,0.0825195312,23.7884521484,-1.8310546875,-15.3503417969
1.5269050598,-0.7290039062,0.1943359375,0.1015625000,23.7884521484,-1.8310546875,-15.3503417969
1.5294890404,-0.7016601562,0.1943359375,0.1015625000,23.3764648438,-0.7476806641,-13.1378173828
1.5320570469,-0.7016601562,0.1943359375,0.1015625000,23.3764648438,-0.7476806641,-13.1378173828
1.5346250534,-0.7016601562,0.1943359375,0.1015625000,23.5900878906,-0.3967285156,-11.8103027344
1.5371990204,-0.7016601562,0.2114257812,0.0966796875,23.5900878906,-0.3967285156,-11.8103027344
1.5398139954,-0.6782226562,0.2114257812,0.0966796875,22.9492187500,0.0915527344,-11.0931396484
1.5423810482,-0.6782226562,0.2114257812,0.0966796875,22.9492187500,0.0915527344,-11.0931396484
1.5449540615,-0.6782226562,0.2114257812,0.0966796875,22.9492187500,0.9307861328,-9.7808837891
1.5475301743,-0.7001953125,0.1704101562,0.1108398438,22.1099853516,0.9307861328,-9.7808837891
1.5502350330,-0.7001953125,0.1704101562,0.1108398438,22.1099853516,1.7700195312,-8.6822509766
1.5529341698,-0.7001953125,0.1704101562,0.1108398438,22.3083496094,1.7700195312,-8.6822509766
1.5556840897,-0.7001953125,0.1704101562,0.1108398438,22.3083496094,2.2125244141,-7.2784423828
1.5584771633,-0.7270507812,0.1567382812,0.1176757812,22.3236083984,2.2125244141,-7.2784423828
1.5611391068,-0.7270507812,0.1567382812,0.1176757812,22.3236083984,2.7008056641,-5.9967041016
1.5641171932,-0.7270507812,0.1567382812,0.1176757812,22.5372314453,2.7008056641,-5.9967041016
1.5666952133,-0.7270507812,0.1567382812,0.1108398438,22.5372314453,2.9602050781,-4.5318603516
1.5693180561,-0.7514648438,0.1528320312,0.1108398438,22.5677490234,2.9602050781,-4.5318603516
1.5718882084,-0.7514648438,0.1528320312,0.1108398438,22.5677490234,2.9602050781,-2.8533935547
1.5744521618,-0.7514648438,0.1528320312,0.1108398438,22.8881835938,2.9144287109,-2.8533935547
1.5770180225,-0.7514648438,0.1528320312,0.1064453125,22.8881835938,2.9144287109,-1.2054443359
1.5796530247,-0.7255859375,0.1782226562,0.1064453125,23.6206054688,2.2277832031,-1.2054443359
1.5822210312,-0.7255859375,0.1782226562,0.1064453125,23.6206054688,2.2277832031,-1.2054443359
1.5849041939,-0.7255859375,0.1782226562,0.1064453125,24.5056152344,1.8920898438,-0.6713867188
1.5874710083,-0.7255859375,0.2094726562,0.0668945312,24.5056152344,1.8920898438,-0.6713867188
1.5900402069,-0.7094726562,0.2094726562,0.0668945312,26.4739990234,1.9226074219,0.8697509766
1.5926070213,-0.7094726562,0.2094726562,0.0668945312,26.4739990234,1.9226074219,0.8697509766
1.5951731205,-0.7094726562,0.2094726562,0.0668945312,30.0598144531,2.2277832031,2.5634765625
1.5977630615,-0.7094726562,0.2089843750,0.0571289062,30.0598144531,2.2277832031,2.5634765625
1.6003341675,-0.7163085938,0.2089843750,0.0571289062,30.1361083984,2.9602050781,2.2888183594
1.6029031277,-0.7163085938,0.2089843750,0.0571289062,30.1361083984,2.9602050781,2.2888183594
1.6054701805,-0.7163085938,0.2089843750,0.0571289062,29.7393798828,3.8452148438,4.0740966797
1.6081120968,-0.6914062500,0.1992187500,0.0493164062,29.7393798828,3.8452148438,4.0740966797
1.6106801033,-0.6914062500,0.1992187500,0.0493164062,28.3355712891,4.3334960938,5.7525634766
1.6132490635,-0.6914062500,0.1992187500,0.0493164062,28.3355712891,4.3334960938,5.7525634766
1.6158161163,-0.6914062500,0.1992187500,0.0493164062,24.4293212891,4.3029785156,6.5612792969
1.6185181141,-0.6967773438,0.1635742188,0.0483398438,26.4892578125,4.3029785156,6.5612792969
1.6210892200,-0.6967773438,0.1635742188,0.0483398438,26.4892578125,3.7536621094,7.0190429688
1.6236491203,-0.6967773438,0.1635742188,0.0483398438,24.6734619141,3.7536621094,7.0190429688
1.6262130737,-0.6967773438,0.1635742188,0.0483398438,24.6734619141,3.7536621094,7.9345703125
1.6287841797,-0.7353515625,0.1894531250,0.0537109375,23.7274169922,3.4942626953,7.9345703125
1.6313490868,-0.7353515625,0.1894531250,0.0537109375,23.7274169922,3.4942626953,7.9345703125
1.6339230537,-0.7353515625,0.1894531250,0.0537109375,23.3459472656,3.4179687500,9.5062255859
1.6364901066,-0.7353515625,0.1894531250,0.0537109375,23.3459472656,3.4179687500,9.5062255859
1.6391201019,-0.7495117188,0.1884765625,0.0541992188,23.7274169922,3.1585693359,10.9558105469
1.6416850090,-0.7495117188,0.1884765625,0.0541992188,23.7274169922,3.1585693359,10.9558105469
1.6442530155,-0.7495117188,0.1884765625,0.0541992188,23.6053466797,2.7160644531,12.3138427734
1.6469361782,-0.7495117188,0.1884765625,0.0541992188,23.6053466797,2.7160644531,12.3138427734
1.6496241093,-0.7436523438,0.1835937500,0.0786132812,23.3154296875,2.4108886719,13.5498046875
1.6521961689,-0.7436523438,0.1835937500,0.0786132812,23.3154296875,2.4108886719,13.5498046875
1.6547651291,-0.7436523438,0.1835937500,0.0786132812,22.8424072266,1.8157958984,14.3737792969
1.6573359966,-0.7436523438,0.1835937500,0.0786132812,22.8424072266,1.8157958984,14.3737792969
1.6599130630,-0.7319335938,0.2148437500,0.0703125000,22.4151611328,1.8920898438,15.2130126953
1.6624832153,-0.7319335938,0.2148437500,0.0703125000,22.4151611328,1.8920898438,15.2130126953
1.6650512218,-0.7319335938,0.2148437500,0.0703125000,22.7355957031,1.9226074219,15.8233642578
1.6676859856,-0.7319335938,0.2148437500,0.0620117188,22.7355957031,1.9226074219,15.8233642578
1.6702570915,-0.7368164062,0.2070312500,0.0620117188,22.7355957031,2.5177001953,16.2811279297
1.6728260517,-0.7368164062,0.2070312500,0.0620117188,23.2849121094,2.5177001953,16.2811279297
1.6755480766,-0.7368164062,0.2070312500,0.0620117188,23.2849121094,3.5247802734,17.1508789062
1.6784210205,-0.8618164062,0.1933593750,0.0605468750,22.8881835938,3.5247802734,17.1508789062
1.6811280251,-0.7539062500,0.1933593750,0.0605468750,22.8881835938,4.4097900391,17.8680419922
1.6838390827,-0.7539062500,0.1933593750,0.0605468750,21.8963623047,4.4097900391,17.8680419922
1.6865429878,-0.7539062500,0.1933593750,0.0605468750,21.8963623047,4.9743652344,18.2495117188
1.6892561913,-0.7607421875,0.2016601562,0.0581054688,19.7448730469,4.9743652344,18.2495117188
1.6919651031,-0.7607421875,0.2016601562,0.0581054688,15.8386230469,5.4779052734,17.8222656250
1.6946740150,-0.7607421875,0.2016601562,0.0581054688,18.2342529297,5.4779052734,17.8222656250
1.6973750591,-0.7607421875,0.2016601562,0.0581054688,18.2342529297,6.5460205078,17.4865722656
1.7000820637,-0.7792968750,0.2221679688,0.0351562500,15.9301757812,6.5460205078,17.4865722656
1.7027871609,-0.7792968750,0.2221679688,0.0351562500,12.0239257812,7.7514648438,17.3034667969
1.7054932117,-0.7792968750,0.2221679688,0.0351562500,15.3350830078,7.7514648438,17.3034667969
1.7081911564,-0.7792968750,0.2221679688,0.0537109375,15.3350830078,9.0942382812,16.6015625000
1.7108671665,-0.7973632812,0.2563476562,0.0537109375,14.6484375000,9.0942382812,16.6015625000
1.7134451866,-0.7973632812,0.2563476562,0.0537109375,14.6484375000,9.0942382812,15.3350830078
1.7160181999,-0.7973632812,0.2563476562,0.0537109375,14.6331787109,10.1470947266,15.3350830078
1.7186040878,-0.7973632812,0.2573242188,0.0541992188,14.6331787109,10.1470947266,14.4653320312
1.7211840153,-0.8061523438,0.2573242188,0.0541992188,15.1519775391,10.6658935547,14.4653320312
1.7237610817,-0.8061523438,0.2573242188,0.0541992188,15.1519775391,10.6658935547,14.4653320312
1.7263381481,-0.8061523438,0.2573242188,0.0541992188,15.1367187500,10.5895996094,12.9089355469
1.7290110588,-0.8061523438,0.2607421875,0.0571289062,15.1367187500,10.5895996094,12.9089355469
1.7315881252,-0.8105468750,0.2607421875,0.0571289062,14.8162841797,10.9405517578,11.1541748047
1.7341639996,-0.8105468750,0.2607421875,0.0571289062,14.8162841797,10.9405517578,11.1541748047
1.7367391586,-0.8105468750,0.2607421875,0.0571289062,15.2587890625,11.8103027344,9.7351074219
1.7394931316,-0.8369140625,0.2753906250,0.0219726562,15.2587890625,11.8103027344,9.7351074219
1.7422020435,-0.8369140625,0.2753906250,0.0219726562,16.7236328125,12.8631591797,9.0484619141
1.7449049950,-0.8369140625,0.2753906250,0.0219726562,16.7236328125,12.8631591797,9.0484619141
1.7476551533,-0.8369140625,0.2753906250,0.0219726562,16.7999267578,13.6108398438,8.1481933594
1.7502222061,-0.8759765625,0.2436523438,0.0131835938,16.7999267578,13.6108398438,8.1481933594
1.7527971268,-0.8759765625,0.2436523438,0.0131835938,16.8151855469,15.0604248047,7.8430175781
1.7553679943,-0.8759765625,0.2436523438,0.0131835938,16.8151855469,15.0604248047,7.8430175781
1.7579810619,-0.8759765625,0.2436523438,0.0131835938,16.1132812500,15.7165527344,7.1258544922
1.7607951164,-0.9443359375,0.2197265625,0.0405273438,16.1132812500,15.7165527344,7.1258544922
1.7633681297,-0.9443359375,0.2197265625,0.0405273438,16.0217285156,15.3656005859,6.7596435547
1.7659461498,-0.9443359375,0.2197265625,0.0405273438,16.0217285156,15.3656005859,6.7596435547
1.7686982155,-0.9443359375,0.2197265625,0.0605468750,17.6391601562,13.7329101562,5.9356689453
1.7713670731,-0.9399414062,0.2241210938,0.0605468750,17.6391601562,13.7329101562,5.9356689453
1.7742781639,-0.9399414062,0.2241210938,0.0605468750,22.0336914062,12.2833251953,6.2561035156
1.7769551277,-0.9399414062,0.2241210938,0.0605468750,22.0336914062,12.2833251953,6.2561035156
1.7796552181,-0.9746093750,0.2075195312,0.0385742188,27.2521972656,10.8795166016,6.6680908203
1.7822220325,-0.9746093750,0.2075195312,0.0385742188,27.2521972656,10.8795166016,6.6680908203
1.7847890854,-0.9746093750,0.2075195312,0.0385742188,32.3486328125,9.5825195312,6.7138671875
1.7873630524,-0.9746093750,0.2075195312,0.0385742188,32.3486328125,9.5825195312,6.7138671875
1.7899370193,-1.0473632812,0.1660156250,-0.0073242188,36.2548828125,8.2702636719,8.0261230469
1.7925000191,-1.0473632812,0.1660156250,-0.0073242188,36.5142822266,8.2702636719,8.0261230469
1.7950651646,-1.0473632812,0.1660156250,-0.0073242188,36.5142822266,4.3640136719,9.5520019531
1.7976992130,-1.0473632812,0.1660156250,-0.0073242188,40.6036376953,6.5307617188,9.5520019531
1.8002660275,-1.1069335938,0.1416015625,-0.0092773438,40.6036376953,6.5307617188,11.0168457031
1.8028330803,-1.1069335938,0.1416015625,-0.0092773438,44.4793701172,5.3405761719,11.0168457031
1.8054051399,-1.1069335938,0.1416015625,-0.0092773438,44.4793701172,5.3405761719,14.9230957031
1.8080711365,-1.1069335938,0.1416015625,-0.0092773438,47.9431152344,3.4942626953,11.7950439453
1.8106441498,-1.1430664062,0.0937500000,-0.0156250000,47.9431152344,3.4942626953,11.7950439453
1.8132162094,-1.1430664062,0.0937500000,-0.0156250000,51.3610839844,1.3275146484,13.3361816406
1.8157851696,-1.1430664062,0.0937500000,-0.0156250000,51.3610839844,1.3275146484,13.3361816406
1.8184571266,-1.1430664062,0.0937500000,-0.0156250000,52.1240234375,-0.3967285156,16.3726806641
1.8210351467,-1.1362304688,-0.0043945312,-0.0156250000,52.1240234375,-0.3967285156,16.3726806641
1.8236072063,-1.1362304688,-0.0043945312,-0.0156250000,49.1180419922,-2.6092529297,18.3715820312
1.8261802197,-1.1362304688,-0.0043945312,-0.0156250000,49.1180419922,-2.6092529297,18.3715820312
1.8288471699,-1.1362304688,-0.0043945312,-0.0156250000,42.2210693359,-4.4097900391,19.4244384766
1.8314101696,-1.1464843750,-0.0854492188,-0.0551757812,42.2210693359,-4.4097900391,19.4244384766
1.8339800835,-1.1464843750,-0.0854492188,-0.0551757812,36.4379882812,-6.0424804688,21.8658447266
1.8365540504,-1.1464843750,-0.0854492188,-0.0551757812,36.4379882812,-6.0424804688,21.8658447266
1.8393220901,-1.1464843750,-0.0854492188,-0.0576171875,32.9132080078,-7.0648193359,26.2908935547
1.8419020176,-1.1088867188,-0.0302734375,-0.0576171875,32.9132080078,-7.0648193359,26.2908935547
1.8444671631,-1.1088867188,-0.0302734375,-0.0576171875,29.0069580078,-6.1340332031,31.9671630859
1.8470301628,-1.1088867188,-0.0302734375,-0.0576171875,28.7017822266,-6.1340332031,31.9671630859
1.8497571945,-1.1088867188,-0.0063476562,-0.0205078125,20.8892822266,-4.6844482422,39.5050048828
1.8524479866,-1.0629882812,-0.0063476562,-0.0205078125,23.3459472656,-4.6844482422,39.5050048828
1.8551402092,-1.0629882812,-0.0063476562,-0.0205078125,23.3459472656,-3.3874511719,47.3937988281
1.8578381538,-1.0629882812,-0.0063476562,-0.0205078125,16.2353515625,-3.3874511719,47.3937988281
1.8605279922,-1.0351562500,0.0419921875,0.0615234375,16.2353515625,-2.9296875000,55.2978515625
1.8632230759,-1.0351562500,0.0419921875,0.0615234375,9.0179443359,-2.9296875000,55.2978515625
1.8659110069,-1.0351562500,0.0419921875,0.0615234375,9.0179443359,-3.0517578125,62.4237060547
1.8686110973,-1.0351562500,0.0419921875,0.0615234375,3.8757324219,-3.0517578125,62.4237060547
1.8712940216,-1.0283203125,0.1958007812,0.2329101562,3.8757324219,-6.9580078125,70.6634521484
1.8739831448,-1.0283203125,0.1958007812,0.2329101562,1.0681152344,-4.1961669922,70.6634521484
1.8766732216,-1.0283203125,0.1958007812,0.2329101562,1.0681152344,-4.1961669922,80.7037353516
1.8793561459,-1.0283203125,0.1958007812,0.2329101562,-1.5258789062,-4.6997070312,80.7037353516
1.8821539879,-1.1611328125,0.5839843750,0.3154296875,-1.5258789062,-5.7067871094,91.8884277344
1.8849880695,-1.1611328125,0.5839843750,0.3154296875,-0.7171630859,-5.7067871094,91.8884277344
1.8881402016,-1.1611328125,0.5839843750,0.3154296875,1.9989013672,-7.8430175781,103.1494140625
1.8908431530,-1.2407226562,1.0009765625,0.3261718750,1.9989013672,-7.8430175781,103.1494140625
1.8935461044,-1.2407226562,1.0009765625,0.3261718750,8.4533691406,-11.4135742188,113.6474609375
1.8962531090,-1.2407226562,1.0009765625,0.3261718750,8.4533691406,-11.4135742188,113.6474609375
1.8989090919,-1.2407226562,1.0009765625,0.3261718750,20.1721191406,-13.8092041016,124.2523193359
1.9014801979,-1.3071289062,1.1684570312,0.3286132812,20.8129882812,-13.8092041016,124.2523193359
1.9041640759,-1.3071289062,1.1684570312,0.3286132812,20.8129882812,-15.4266357422,133.8500976562
1.9067471027,-1.3071289062,1.1684570312,0.3286132812,35.6903076172,-15.4266357422,133.8500976562
1.9094371796,-1.3071289062,1.1684570312,0.3286132812,35.6903076172,-19.3328857422,145.1263427734
1.9121441841,-1.3354492188,1.2416992188,0.3935546875,47.9583740234,-18.7377929688,145.1263427734
1.9148621559,-1.3354492188,1.2416992188,0.3935546875,47.9583740234,-22.6440429688,154.0527343750
1.9175791740,-1.3354492188,1.2416992188,0.3935546875,56.1828613281,-20.2636718750,154.0527343750
1.9201560020,-1.3354492188,1.2416992188,0.3110351562,56.1828613281,-20.2636718750,155.6091308594
1.9227311611,-1.4082031250,0.9116210938,0.3110351562,60.7452392578,-18.6004638672,155.6091308594
1.9253041744,-1.4082031250,0.9116210938,0.3110351562,60.7452392578,-18.6004638672,163.4216308594
1.9279351234,-1.4082031250,0.9116210938,0.3110351562,64.2547607422,-18.7377929688,163.9099121094
1.9305090904,-1.4082031250,0.6616210938,0.2397460938,64.2547607422,-18.7377929688,163.9099121094
1.9330852032,-1.3740234375,0.7294921875,0.2397460938,66.2231445312,-19.7601318359,169.7845458984
1.9356610775,-1.3740234375,0.7294921875,0.2397460938,66.2231445312,-19.7601318359,169.7845458984
1.9382710457,-1.3740234375,0.7294921875,0.2397460938,65.0787353516,-20.7061767578,173.3856201172
1.9408581257,-1.3740234375,0.5839843750,0.1958007812,65.0787353516,-20.7061767578,173.3856201172
1.9434411526,-1.2392578125,0.5839843750,0.1958007812,64.9414062500,-20.2941894531,173.2788085938
1.9460182190,-1.2392578125,0.5839843750,0.1958007812,64.9414062500,-20.2941894531,173.2788085938
1.9486842155,-1.2392578125,0.5839843750,0.1958007812,64.2852783203,-18.2952880859,173.6907958984
1.9512631893,-1.1342773438,0.4965820312,0.1269531250,64.2852783203,-18.2952880859,173.6907958984
1.9538362026,-1.1342773438,0.4965820312,0.1269531250,65.0482177734,-17.5628662109,173.3245849609
1.9564161301,-1.1342773438,0.4965820312,0.1269531250,65.0482177734,-17.5628662109,173.3245849609
1.9590761662,-1.1342773438,0.4965820312,0.1269531250,64.6972656250,-17.8222656250,172.4853515625
1.9617850780,-1.0356445312,0.4599609375,0.0981445312,64.6972656250,-17.8222656250,172.4853515625
1.9644939899,-1.0356445312,0.4599609375,0.0981445312,64.8498535156,-16.9067382812,170.5780029297
1.9675860405,-1.0356445312,0.4599609375,0.0981445312,64.8498535156,-16.9067382812,170.5780029297
1.9702570438,-1.0356445312,0.4599609375,0.0981445312,66.6961669922,-15.2435302734,167.8924560547
1.9734621048,-0.9672851562,0.3925781250,0.0815429688,66.6961669922,-15.2435302734,167.8924560547
1.9767160416,-0.9672851562,0.3925781250,0.0815429688,66.2231445312,-12.6190185547,164.4744873047
1.9793272018,-0.9672851562,0.3925781250,0.0815429688,66.2231445312,-12.6190185547,164.4744873047
1.9819030762,-0.9140625000,0.3193359375,0.0502929688,63.7969970703,-9.6130371094,161.1328125000
1.9844760895,-0.9140625000,0.3193359375,0.0502929688,63.7969970703,-9.6130371094,161.1328125000
1.9870431423,-0.9140625000,0.3193359375,0.0502929688,59.2346191406,-7.6751708984,157.8216552734
1.9896709919,-0.9140625000,0.3193359375,0.0502929688,59.2346191406,-7.6751708984,157.8216552734
1.9922420979,-0.8574218750,0.2670898438,0.0317382812,54.3823242188,-6.3171386719,154.4342041016
1.9948091507,-0.8574218750,0.2670898438,0.0317382812,54.3823242188,-6.3171386719,154.4342041016
1.9973850250,-0.8574218750,0.2670898438,0.0317382812,51.1932373047,-4.5471191406,150.1159667969
2.0000040531,-0.8574218750,0.2670898438,0.0317382812,51.1932373047,-4.5471191406,150.1159667969
2.0025751591,-0.7900390625,0.2275390625,0.0292968750,45.3491210938,-2.2125244141,145.8282470703
2.0051481724,-0.7900390625,0.2275390625,0.0292968750,45.3491210938,-2.2125244141,145.8282470703
2.0077571869,-0.7900390625,0.2275390625,0.0292968750,37.5366210938,-0.8239746094,142.4407958984
2.0103302002,-0.7900390625,0.2275390625,0.0292968750,38.6505126953,-0.8239746094,142.4407958984
2.0129032135,-0.7055664062,0.1679687500,0.0170898438,38.6505126953,-0.8239746094,137.8021240234
2.0154712200,-0.7055664062,0.1679687500,0.0170898438,31.8450927734,-0.5035400391,137.8021240234
2.0182411671,-0.7055664062,0.1679687500,0.0170898438,31.8450927734,3.4027099609,131.9427490234
2.0208170414,-0.7055664062,0.1679687500,-0.1079101562,24.9176025391,0.3051757812,131.9427490234
2.0233941078,-0.6357421875,0.0961914062,-0.0034179688,24.9176025391,0.3051757812,126.7700195312
2.0259821415,-0.6357421875,0.0961914062,-0.0034179688,16.9677734375,1.7852783203,126.7700195312
2.0286931992,-0.6357421875,0.0961914062,-0.0034179688,16.9677734375,1.7852783203,122.8637695312
2.0315170288,-0.6357421875,0.0537109375,-0.0175781250,8.1787109375,3.1738281250,121.5362548828
2.0342121124,-0.5541992188,0.0537109375,-0.0175781250,8.1787109375,3.1738281250,115.1885986328
2.0368981361,-0.5541992188,0.0537109375,-0.0175781250,-0.1831054688,3.9215087891,115.1885986328
2.0395841599,-0.5541992188,0.0537109375,-0.0175781250,-0.1831054688,3.9215087891,107.3760986328
2.0422492027,-0.4311523438,0.0493164062,-0.0214843750,-7.2021484375,3.8452148438,107.6660156250
2.0449120998,-0.4311523438,0.0493164062,-0.0214843750,-7.2021484375,3.8452148438,99.8535156250
2.0475780964,-0.4311523438,0.0493164062,-0.0214843750,-12.6953125000,3.8299560547,100.5554199219
2.0501580238,-0.4311523438,0.0493164062,-0.0214843750,-12.6953125000,3.8299560547,100.5554199219
2.0527381897,-0.3735351562,0.0493164062,-0.0253906250,-17.1051025391,4.9133300781,93.2922363281
2.0553071499,-0.3735351562,0.0493164062,-0.0253906250,-17.1051025391,4.9133300781,93.2922363281
2.0579521656,-0.3735351562,0.0493164062,-0.0253906250,-21.4538574219,5.7983398438,85.3424072266
2.0606679916,-0.3735351562,0.0493164062,-0.0253906250,-21.4538574219,5.7983398438,85.3424072266
2.0633749962,-0.3012695312,-0.0200195312,-0.0307617188,-26.2603759766,5.6304931641,75.9582519531
2.0660851002,-0.3012695312,-0.0200195312,-0.0307617188,-26.2603759766,5.6304931641,75.9582519531
2.0689311028,-0.3012695312,-0.0200195312,-0.0307617188,-30.2276611328,6.2255859375,66.6656494141
2.0716011524,-0.3012695312,-0.0200195312,-0.0322265625,-30.2276611328,6.2255859375,66.6656494141
2.0743501186,-0.2734375000,-0.0493164062,-0.0322265625,-32.7453613281,7.0190429688,57.7850341797
2.0769240856,-0.2734375000,-0.0493164062,-0.0322265625,-32.7453613281,7.0190429688,57.7850341797
2.0795881748,-0.2734375000,-0.0493164062,-0.0322265625,-33.2794189453,7.3547363281,49.0570068359
2.0821561813,-0.2734375000,-0.0595703125,-0.0307617188,-33.2794189453,7.3547363281,49.0570068359
2.0847220421,-0.2519531250,-0.0595703125,-0.0307617188,-35.6140136719,7.9345703125,39.9475097656
2.0872921944,-0.2519531250,-0.0595703125,-0.0307617188,-35.6140136719,7.9345703125,39.9475097656
2.0898840427,-0.2519531250,-0.0595703125,-0.0307617188,-37.6281738281,8.4228515625,31.4636230469
2.0924491882,-0.1269531250,-0.0258789062,-0.0229492188,-37.6281738281,8.4228515625,31.4636230469
2.0951352119,-0.2441406250,-0.0258789062,-0.0229492188,-39.7186279297,8.6669921875,23.4527587891
2.0977520943,-0.2441406250,-0.0258789062,-0.0229492188,-39.7186279297,8.6669921875,23.4527587891
2.1003141403,-0.2441406250,-0.0258789062,-0.0229492188,-39.7186279297,7.3394775391,15.6860351562
2.1028840542,-0.2197265625,-0.0039062500,-0.0058593750,-42.5109863281,7.3394775391,15.6860351562
2.1054530144,-0.2197265625,-0.0039062500,-0.0058593750,-42.5109863281,7.3394775391,8.1329345703
2.1080272198,-0.2197265625,-0.0039062500,-0.0058593750,-44.3267822266,6.4849853516,8.1329345703
2.1105980873,-0.2197265625,-0.0039062500,-0.0058593750,-44.3267822266,6.4849853516,1.1291503906
2.1131629944,-0.1967773438,0.0117187500,-0.0024414062,-44.2504882812,6.4086914062,1.1291503906
2.1157321930,-0.1967773438,0.0117187500,-0.0024414062,-44.2504882812,6.4086914062,-6.6833496094
2.1184501648,-0.1967773438,0.0117187500,-0.0024414062,-42.6330566406,6.7749023438,-5.9967041016
2.1210160255,-0.1967773438,0.0117187500,-0.0024414062,-42.6330566406,6.7749023438,-5.9967041016
2.1235849857,-0.1684570312,0.0302734375,-0.0029296875,-39.5202636719,7.0343017578,-14.2059326172
2.1261551380,-0.1684570312,0.0302734375,-0.0029296875,-39.5202636719,7.0343017578,-14.2059326172
2.1289141178,-0.1684570312,0.0302734375,-0.0029296875,-35.9649658203,6.2408447266,-22.7050781250
2.1316220760,-0.1684570312,0.0302734375,-0.0029296875,-35.9649658203,6.2408447266,-22.7050781250
2.1343321800,-0.1455078125,0.0009765625,-0.0043945312,-33.0810546875,5.5541992188,-30.5328369141
2.1370401382,-0.1455078125,0.0009765625,-0.0043945312,-33.0810546875,5.5541992188,-30.5328369141
2.1397571564,-0.1455078125,0.0009765625,-0.0043945312,-29.8614501953,5.9051513672,-39.0625000000
2.1424651146,-0.1455078125,-0.1240234375,0.0063476562,-29.8614501953,5.9051513672,-39.0625000000
2.1451711655,-0.1640625000,-0.0405273438,0.0063476562,-26.6876220703,6.1187744141,-47.1496582031
2.1478641033,-0.1640625000,-0.0405273438,0.0063476562,-26.6876220703,6.1187744141,-47.1496582031
2.1504340172,-0.1640625000,-0.0405273438,0.0063476562,-24.3377685547,6.3476562500,-53.5430908203
2.1530070305,-0.1640625000,-0.0249023438,0.0068359375,-24.3377685547,6.3476562500,-53.5430908203
2.1555831432,-0.1977539062,-0.0249023438,0.0068359375,-23.6816406250,6.3629150391,-59.2193603516
2.1583161354,-0.1977539062,-0.0249023438,0.0068359375,-23.6816406250,6.3629150391,-59.2193603516
2.1610240936,-0.1977539062,-0.0249023438,0.0068359375,-21.8048095703,6.2561035156,-65.2770996094
2.1637320518,-0.1821289062,-0.0234375000,0.0092773438,-21.8048095703,6.2561035156,-65.2770996094
2.1664412022,-0.1821289062,-0.0234375000,0.0092773438,-20.9808349609,6.7596435547,-71.6400146484
2.1692061424,-0.1821289062,-0.0234375000,0.0092773438,-20.9808349609,6.7596435547,-71.6400146484
2.1719090939,-0.1821289062,-0.0234375000,0.0092773438,-22.2473144531,7.0495605469,-76.7822265625
2.1746110916,-0.1777343750,-0.0048828125,-0.0019531250,-22.2473144531,7.0495605469,-76.7822265625
2.1773200035,-0.1777343750,-0.0048828125,-0.0019531250,-24.5361328125,7.6446533203,-82.1228027344
2.1800370216,-0.1777343750,-0.0048828125,-0.0019531250,-24.5361328125,7.6446533203,-82.1228027344
2.1827430725,-0.1777343750,0.1201171875,-0.0087890625,-27.1301269531,7.5988769531,-87.5701904297
2.1855580807,-0.1704101562,0.0278320312,-0.0087890625,-27.1301269531,7.5988769531,-87.5701904297
2.1885700226,-0.1704101562,0.0278320312,-0.0087890625,-28.6102294922,7.1105957031,-92.1173095703
2.1912791729,-0.1704101562,0.0278320312,-0.0087890625,-28.6102294922,7.1105957031,-92.1173095703
2.1939880848,-0.1538085938,0.0146484375,-0.0102539062,-29.9835205078,7.3852539062,-97.8088378906
2.1966969967,-0.1538085938,0.0146484375,-0.0102539062,-29.9835205078,7.3852539062,-97.8088378906
2.1993200779,-0.1538085938,0.0146484375,-0.0102539062,-33.4625244141,7.9345703125,-102.9663085938
2.2018980980,-0.1538085938,0.0146484375,-0.0102539062,-33.4625244141,7.9345703125,-102.9663085938
2.2044742107,-0.1987304688,0.0014648438,-0.0180664062,-36.4685058594,8.0871582031,-108.4442138672
2.2070491314,-0.1987304688,0.0014648438,-0.0180664062,-36.4685058594,8.0871582031,-108.4442138672
2.2097821236,-0.1987304688,0.0014648438,-0.0180664062,-39.5050048828,8.6059570312,-113.1896972656
2.2124969959,-0.1987304688,0.0014648438,-0.0180664062,-39.5050048828,8.6059570312,-113.1896972656
2.2152040005,-0.2070312500,0.0195312500,-0.0122070312,-42.9229736328,8.9111328125,-117.2485351562
2.2179391384,-0.2070312500,0.0195312500,-0.0122070312,-42.9229736328,8.9111328125,-117.2485351562
2.2205140591,-0.2070312500,0.0195312500,-0.0122070312,-45.5322265625,9.5520019531,-121.2615966797
2.2231941223,-0.2070312500,0.0195312500,0.0004882812,-45.5322265625,9.5520019531,-121.2615966797
2.2257661819,-0.2216796875,0.0805664062,0.0004882812,-48.5839843750,10.2844238281,-124.4964599609
2.2283561230,-0.2216796875,0.0805664062,0.0004882812,-48.5839843750,10.2844238281,-124.4964599609
2.2309319973,-0.2216796875,0.0805664062,0.0004882812,-48.5839843750,9.9639892578,-128.4332275391
2.2335031033,-0.2216796875,0.1494140625,0.0185546875,-48.9349365234,9.9639892578,-128.4332275391
2.2360780239,-0.2084960938,0.1494140625,0.0185546875,-48.9349365234,9.8876953125,-131.9732666016
2.2388021946,-0.2084960938,0.1494140625,0.0185546875,-47.3785400391,9.8876953125,-131.9732666016
2.2413752079,-0.2084960938,0.1494140625,0.0185546875,-47.3785400391,9.8876953125,-134.8419189453
2.2439520359,-0.2084960938,0.2128906250,0.0312500000,-45.6695556641,10.0402832031,-134.8419189453
2.2465231419,-0.2343750000,0.2128906250,0.0312500000,-45.6695556641,10.0402832031,-137.4664306641
2.2491970062,-0.2343750000,0.2128906250,0.0312500000,-45.1660156250,10.2539062500,-137.4664306641
2.2517731190,-0.2343750000,0.2128906250,0.0312500000,-45.1660156250,10.2539062500,-137.4664306641
2.2543430328,-0.2773437500,0.2509765625,0.0458984375,-45.3643798828,10.4217529297,-139.3280029297
2.2569200993,-0.2773437500,0.2509765625,0.0458984375,-45.3643798828,10.4217529297,-139.3280029297
2.2596120834,-0.2773437500,0.2509765625,0.0458984375,-45.3186035156,10.3759765625,-141.0827636719
2.2623231411,-0.2773437500,0.2509765625,0.0458984375,-45.3186035156,10.3759765625,-141.0827636719
2.2650301456,-0.2773437500,0.2934570312,0.0537109375,-45.4406738281,10.3607177734,-141.9219970703
2.2677512169,-0.2773437500,0.2934570312,0.0537109375,-45.4406738281,10.3607177734,-141.9219970703
2.2704591751,-0.2773437500,0.2934570312,0.0537109375,-46.1578369141,10.1165771484,-143.0664062500
2.2733001709,-0.2773437500,0.2934570312,0.0537109375,-46.1578369141,10.1165771484,-143.0664062500
2.2758769989,-0.3149414062,0.3422851562,0.0576171875,-46.0662841797,10.1928710938,-143.5852050781
2.2786681652,-0.3149414062,0.3422851562,0.0576171875,-46.0662841797,10.1928710938,-143.5852050781
2.2813410759,-0.3149414062,0.3422851562,0.0576171875,-45.2728271484,10.1928710938,-143.5241699219
2.2843811512,-0.3525390625,0.4257812500,0.0664062500,-45.2728271484,10.1928710938,-143.5241699219
2.2870681286,-0.3525390625,0.4257812500,0.0664062500,-43.8537597656,10.5590820312,-144.0429687500
2.2897131443,-0.3525390625,0.4257812500,0.0664062500,-43.8537597656,10.5590820312,-144.0429687500
2.2922921181,-0.3525390625,0.4257812500,0.0664062500,-41.9311523438,10.6506347656,-143.5241699219
2.2948641777,-0.3901367188,0.4672851562,0.0634765625,-41.9311523438,10.6506347656,-143.5241699219
2.2974860668,-0.3901367188,0.4672851562,0.0634765625,-40.3137207031,11.1846923828,-142.3492431641
2.3000650406,-0.3901367188,0.4672851562,0.0634765625,-40.3137207031,11.1846923828,-142.3492431641
2.3026390076,-0.3901367188,0.4672851562,0.0634765625,-42.9840087891,11.1236572266,-139.9688720703
2.3052191734,-0.4096679688,0.4804687500,0.0668945312,-42.9840087891,11.1236572266,-139.9688720703
2.3078000546,-0.4096679688,0.4804687500,0.0668945312,-46.5240478516,10.7421875000,-137.7563476562
2.3103761673,-0.4096679688,0.4804687500,0.0668945312,-46.5240478516,10.7421875000,-137.7563476562
2.3129510880,-0.4096679688,0.4804687500,0.0668945312,-47.6837158203,11.0168457031,-136.0015869141
2.3155241013,-0.4096679688,0.5678710938,0.0659179688,-47.6837158203,11.0168457031,-136.0015869141
2.3181400299,-0.4096679688,0.5678710938,0.0659179688,-47.3175048828,11.4746093750,-133.9721679688
2.3207180500,-0.4096679688,0.5678710938,0.0659179688,-47.3175048828,11.4746093750,-133.9721679688
2.3232960701,-0.4096679688,0.5678710938,0.0659179688,-47.3175048828,10.9252929688,-131.2255859375
2.3258759975,-0.4194335938,0.6333007812,0.0869140625,-46.6613769531,10.9252929688,-131.2255859375
2.3286402225,-0.4194335938,0.6333007812,0.0869140625,-46.6613769531,10.9252929688,-128.5247802734
2.3312110901,-0.4194335938,0.6333007812,0.0869140625,-45.5932617188,10.4064941406,-128.5247802734
2.3337922096,-0.4194335938,0.6333007812,0.0869140625,-45.5932617188,10.4064941406,-125.3814697266
2.3363690376,-0.4609375000,0.6855468750,0.1049804688,-43.2434082031,10.3149414062,-125.3814697266
2.3390741348,-0.4609375000,0.6855468750,0.1049804688,-43.2434082031,10.3149414062,-117.5689697266
2.3416521549,-0.4609375000,0.6855468750,0.1049804688,-40.5578613281,9.7656250000,-120.9411621094
2.3442270756,-0.4609375000,0.6855468750,0.1166992188,-40.5578613281,9.7656250000,-120.9411621094
2.3468000889,-0.5214843750,0.7138671875,0.1166992188,-37.8417968750,10.3302001953,-115.8447265625
2.3494861126,-0.5214843750,0.7138671875,0.1166992188,-37.8417968750,10.3302001953,-115.8447265625
2.3520591259,-0.5214843750,0.7138671875,0.1166992188,-36.6363525391,10.3912353516,-109.8632812500
2.3546390533,-0.5214843750,0.7290039062,0.0874023438,-36.6363525391,10.3912353516,-109.8632812500
2.3572142124,-0.5688476562,0.7290039062,0.0874023438,-36.3311767578,10.6658935547,-103.8360595703
2.3598351479,-0.5688476562,0.7290039062,0.0874023438,-36.3311767578,10.6658935547,-103.8360595703
2.3624141216,-0.5688476562,0.7290039062,0.0874023438,-36.3922119141,11.5509033203,-97.9003906250
2.3649880886,-0.5688476562,0.7885742188,0.0615234375,-36.3922119141,11.5509033203,-97.9003906250
2.3675711155,-0.5595703125,0.7885742188,0.0615234375,-35.4156494141,11.5966796875,-92.7734375000
2.3702840805,-0.5595703125,0.7885742188,0.0615234375,-35.4156494141,11.5966796875,-92.7734375000
2.3730001450,-0.5595703125,0.7885742188,0.0615234375,-34.8815917969,12.1917724609,-87.4786376953
2.3758060932,-0.5834960938,0.8261718750,0.0742187500,-34.8815917969,12.1917724609,-87.4786376953
2.3784940243,-0.5834960938,0.8261718750,0.0742187500,-33.9813232422,12.5122070312,-81.6802978516
2.3811671734,-0.5834960938,0.8261718750,0.0742187500,-33.9813232422,12.5122070312,-81.6802978516
2.3843832016,-0.5834960938,0.8261718750,0.0742187500,-33.3557128906,12.8479003906,-75.5615234375
2.3869550228,-0.6186523438,0.7812500000,0.0688476562,-33.3557128906,12.8479003906,-75.5615234375
2.3896260262,-0.6186523438,0.7812500000,0.0688476562,-32.7301025391,13.3361816406,-69.1223144531
2.3921999931,-0.6186523438,0.7812500000,0.0688476562,-32.7301025391,13.3361816406,-69.1223144531
2.3947710991,-0.6186523438,0.7812500000,0.0566406250,-33.0352783203,13.3209228516,-62.5305175781
2.3973410130,-0.6020507812,0.7353515625,0.0566406250,-33.0352783203,13.3209228516,-62.5305175781
2.3999261856,-0.6020507812,0.7353515625,0.0566406250,-33.4777832031,13.2751464844,-55.4351806641
2.4024980068,-0.6020507812,0.7353515625,0.0566406250,-33.4777832031,13.2751464844,-55.4351806641
2.4050722122,-0.6020507812,0.7353515625,0.0717773438,-33.4777832031,12.9241943359,-48.9654541016
2.4077031612,-0.5664062500,0.6909179688,0.0717773438,-33.5845947266,12.9241943359,-48.9654541016
2.4102799892,-0.5664062500,0.6909179688,0.0717773438,-33.5845947266,12.9241943359,-44.2352294922
2.4129521847,-0.5664062500,0.6909179688,0.0717773438,-33.6456298828,12.2985839844,-44.2352294922
2.4155271053,-0.8164062500,0.7416992188,0.3852539062,-33.6456298828,12.2985839844,-38.7725830078
2.4181561470,-0.7612304688,0.7416992188,0.3852539062,-44.5709228516,3.2653808594,-38.7725830078
2.4207251072,-0.7612304688,0.7416992188,0.3852539062,-44.5709228516,3.2653808594,-30.9600830078
2.4232921600,-0.7612304688,0.7416992188,0.3852539062,-68.6340332031,-10.4980468750,-28.0151367188
2.4258642197,-0.9165039062,1.5849609375,0.7338867188,-68.6340332031,-10.4980468750,-0.6713867188
2.4285960197,-0.9165039062,1.5849609375,0.7338867188,-61.9354248047,-9.8114013672,-3.7994384766
2.4311621189,-0.9165039062,1.5849609375,0.7338867188,-61.9354248047,-9.8114013672,-3.7994384766
2.4337291718,-0.9165039062,1.5849609375,0.7338867188,-15.7318115234,-9.3841552734,23.2391357422
2.4362981319,-1.2119140625,2.7187500000,0.4604492188,-15.7318115234,-9.3841552734,23.2391357422
2.4390110970,-1.2119140625,2.7187500000,0.4604492188,24.9938964844,-11.5356445312,31.2042236328
2.4415810108,-1.2119140625,2.7187500000,0.4604492188,24.9938964844,-11.5356445312,31.2042236328
2.4441530704,-1.2119140625,2.7187500000,0.4604492188,44.1131591797,-5.3863525391,27.9846191406
2.4467191696,-0.9384765625,1.1552734375,-0.1206054688,44.1131591797,-5.3863525391,27.9846191406
2.4492959976,-0.9384765625,1.1552734375,-0.1206054688,39.5202636719,2.2277832031,30.7922363281
2.4518661499,-0.9384765625,1.1552734375,-0.1206054688,39.5202636719,2.2277832031,30.7922363281
2.4544351101,-0.9384765625,1.1552734375,-0.1206054688,15.2130126953,4.5776367188,39.8864746094
2.4570062160,-0.7812500000,0.2050781250,-0.3730468750,15.2130126953,4.5776367188,39.8864746094
2.4597420692,-0.7812500000,0.2050781250,-0.3730468750,4.2877197266,1.2207031250,49.6520996094
2.4624471664,-0.7812500000,0.2050781250,-0.3730468750,4.2877197266,1.2207031250,49.6520996094
2.4651432037,-0.7812500000,0.2050781250,0.0019531250,11.7187500000,-6.6680908203,56.1065673828
2.4678502083,-0.6787109375,0.1347656250,0.0258789062,11.7187500000,-6.6680908203,56.1065673828
2.4705572128,-0.6787109375,0.1347656250,0.0258789062,16.0675048828,-7.3852539062,57.7697753906
2.4732680321,-0.6787109375,0.1347656250,0.0258789062,16.0675048828,-7.3852539062,57.7697753906
2.4759712219,-0.6787109375,0.1479492188,0.0825195312,15.4876708984,-2.2583007812,53.4973144531
2.4790210724,-0.6015625000,0.1479492188,0.0825195312,15.4876708984,-2.2583007812,53.4973144531
2.4816951752,-0.6015625000,0.1479492188,0.0825195312,14.0228271484,-0.9765625000,47.5158691406
2.4849040508,-0.6015625000,0.1479492188,0.0825195312,14.0228271484,-0.9765625000,47.5158691406
2.4875040054,-0.5649414062,-0.0097656250,-0.0083007812,12.6190185547,-2.6397705078,43.9910888672
2.4900732040,-0.5649414062,-0.0097656250,-0.0083007812,12.6190185547,-2.6397705078,43.9910888672
2.4926431179,-0.5649414062,-0.0097656250,-0.0083007812,9.0026855469,-3.0670166016,41.1529541016
2.4952151775,-0.5649414062,-0.0097656250,-0.0083007812,9.0026855469,-3.0670166016,41.1529541016
2.4977900982,-0.5541992188,-0.1694335938,0.0024414062,1.1901855469,-2.0599365234,37.6739501953
2.5003631115,-0.5541992188,-0.1694335938,0.0024414062,3.8299560547,-2.0599365234,37.6739501953
2.5029320717,-0.5541992188,-0.1694335938,0.0024414062,3.8299560547,-1.1138916016,34.4085693359
2.5054981709,-0.5541992188,-0.1694335938,-0.1225585938,0.9918212891,-1.1138916016,34.4085693359
2.5081369877,-0.5361328125,-0.0371093750,-0.0263671875,0.9918212891,-1.1138916016,34.7595214844
2.5107040405,-0.5361328125,-0.0371093750,-0.0263671875,1.0528564453,-3.9215087891,34.7595214844
2.5132741928,-0.5361328125,-0.0371093750,-0.0263671875,1.0528564453,-3.9215087891,38.6657714844
2.5158441067,-0.5361328125,-0.0371093750,0.1186523438,0.7171630859,-10.5438232422,36.1175537109
2.5184180737,-0.4379882812,0.3530273438,0.1186523438,0.7171630859,-10.5438232422,36.1175537109
2.5209960938,-0.4379882812,0.3530273438,0.1186523438,1.4343261719,-13.7939453125,34.3322753906
2.5235631466,-0.4379882812,0.3530273438,0.1186523438,1.4343261719,-13.7939453125,34.3322753906
2.5261311531,-0.4379882812,0.6030273438,0.1176757812,6.6223144531,-14.4348144531,30.8227539062
2.5288591385,-0.5039062500,0.5517578125,0.1176757812,6.6223144531,-14.4348144531,30.8227539062
2.5314271450,-0.5039062500,0.5517578125,0.1176757812,7.5073242188,-14.4500732422,28.4271240234
2.5339970589,-0.5039062500,0.5517578125,0.1176757812,7.5073242188,-14.4500732422,28.4271240234
2.5365722179,-0.5039062500,0.4960937500,0.0107421875,5.7525634766,-13.6566162109,28.5644531250
2.5392310619,-0.5800781250,0.4960937500,0.0107421875,5.7525634766,-13.6566162109,28.5644531250
2.5419201851,-0.5800781250,0.4960937500,0.0107421875,2.6702880859,-11.1389160156,28.5797119141
2.5444910526,-0.5800781250,0.4960937500,0.0107421875,2.6702880859,-11.1389160156,28.5797119141
2.5470561981,-0.5878906250,0.3559570312,-0.0878906250,3.0364990234,-8.8806152344,28.7322998047
2.5496871471,-0.5878906250,0.3559570312,-0.0878906250,3.0364990234,-8.8806152344,28.7322998047
2.5522511005,-0.5878906250,0.3559570312,-0.0878906250,4.8370361328,-8.1939697266,28.2440185547
2.5548160076,-0.5878906250,0.3559570312,-0.0878906250,4.8370361328,-8.1939697266,28.2440185547
2.5573861599,-0.5991210938,0.2797851562,-0.0952148438,4.8370361328,-6.5155029297,27.3895263672
2.5599930286,-0.5991210938,0.2797851562,-0.0952148438,5.8288574219,-6.5155029297,27.3895263672
2.5625631809,-0.5991210938,0.2797851562,-0.0952148438,5.8288574219,-6.5155029297,25.8483886719
2.5651249886,-0.5991210938,0.2797851562,-0.0952148438,6.8359375000,-5.3100585938,25.8483886719
2.5677480698,-0.7529296875,0.2949218750,0.0239257812,6.8359375000,-5.3100585938,24.0631103516
2.5704741478,-0.7529296875,0.2949218750,0.0239257812,1.8157958984,-3.1738281250,24.0631103516
2.5731761456,-0.7529296875,0.2949218750,0.0239257812,1.8157958984,-3.1738281250,24.1088867188
2.5758759975,-0.7529296875,0.2949218750,0.0239257812,-2.1362304688,-0.8239746094,24.1088867188
2.5786001682,-0.8100585938,0.2846679688,0.0957031250,-2.1362304688,-0.8239746094,24.0631103516
2.5815010071,-0.8100585938,0.2846679688,0.0957031250,-6.9427490234,-1.2512207031,24.0631103516
2.5841910839,-0.8100585938,0.2846679688,0.0957031250,-6.9427490234,-1.2512207031,23.2849121094
2.5868830681,-0.8100585938,0.3032226562,0.1103515625,-11.3220214844,-0.5035400391,23.2849121094
2.5895800591,-0.7788085938,0.3032226562,0.1103515625,-11.3220214844,-0.5035400391,21.6064453125
2.5921680927,-0.7788085938,0.3032226562,0.1103515625,-9.3231201172,-0.7476806641,21.6064453125
2.5948851109,-0.7788085938,0.3032226562,0.1103515625,-9.3231201172,-0.7476806641,17.7001953125
2.5982160568,-0.8046875000,0.3881835938,0.1108398438,-8.7585449219,-1.7700195312,19.4702148438
2.6009662151,-0.8046875000,0.3881835938,0.1108398438,-8.7585449219,-1.6937255859,16.9372558594
2.6035330296,-0.8046875000,0.3881835938,0.1108398438,-7.5531005859,-1.6937255859,16.9372558594
2.6062099934,-0.8046875000,0.3881835938,0.1108398438,-7.5531005859,-1.6937255859,13.8397216797
2.6087841988,-0.7529296875,0.4204101562,0.1059570312,-6.1645507812,-1.4495849609,13.8397216797
2.6114900112,-0.7529296875,0.4204101562,0.1059570312,-6.1645507812,-1.4495849609,10.8642578125
2.6140530109,-0.7529296875,0.4204101562,0.1059570312,-5.4168701172,-1.6174316406,10.8642578125
2.6166121960,-0.7529296875,0.4204101562,0.1059570312,-5.4168701172,-1.6174316406,6.9580078125
2.6191790104,-0.6635742188,0.4306640625,0.0903320312,-5.3863525391,-1.3427734375,7.4615478516
2.6219260693,-0.6635742188,0.4306640625,0.0903320312,-5.3863525391,-1.3427734375,7.4615478516
2.6244840622,-0.6635742188,0.4306640625,0.0903320312,-4.4555664062,-2.2583007812,4.3487548828
2.6270470619,-0.6635742188,0.4306640625,0.0976562500,-4.4555664062,-2.2583007812,4.3487548828
2.6296470165,-0.6191406250,0.4404296875,0.0976562500,-3.2806396484,-3.3416748047,1.4495849609
2.6323339939,-0.6191406250,0.4404296875,0.0976562500,-3.2806396484,-3.3416748047,1.4495849609
2.6348960400,-0.6191406250,0.4404296875,0.0976562500,-2.8686523438,-3.7078857422,-1.2817382812
2.6374862194,-0.6191406250,0.4067382812,0.0976562500,-2.8686523438,-3.7078857422,-1.2817382812
2.6400511265,-0.6264648438,0.4067382812,0.0976562500,-2.3193359375,-4.1809082031,-3.6621093750
2.6426160336,-0.6264648438,0.4067382812,0.0976562500,-2.3193359375,-4.1809082031,-3.6621093750
2.6451752186,-0.6264648438,0.4067382812,0.0976562500,-2.6550292969,-4.6081542969,-4.9743652344
2.6478691101,-0.6264648438,0.3598632812,0.1181640625,-2.6550292969,-4.6081542969,-4.9743652344
2.6504290104,-0.6625976562,0.3598632812,0.1181640625,-3.6621093750,-4.8980712891,-6.3171386719
2.6529932022,-0.6625976562,0.3598632812,0.1181640625,-3.6621093750,-4.8980712891,-6.3171386719
2.6555531025,-0.6625976562,0.3598632812,0.1181640625,-7.5683593750,-5.2185058594,-6.8511962891
2.6582410336,-0.6777343750,0.3300781250,0.1396484375,-4.7149658203,-5.2185058594,-6.8511962891
2.6608071327,-0.6777343750,0.3300781250,0.1396484375,-4.7149658203,-4.9743652344,-7.3089599609
2.6633679867,-0.6777343750,0.3300781250,0.1396484375,-5.4168701172,-4.9743652344,-7.3089599609
2.6659300327,-0.6777343750,0.3300781250,0.1396484375,-5.4168701172,-4.9743652344,-8.2244873047
2.6686270237,-0.6572265625,0.3549804688,0.1391601562,-5.8288574219,-4.7607421875,-8.2244873047
2.6713221073,-0.6572265625,0.3549804688,0.1391601562,-5.8288574219,-4.7607421875,-9.3536376953
2.6738851070,-0.6572265625,0.3549804688,0.1391601562,-5.1269531250,-4.4860839844,-9.3536376953
2.6764461994,-0.6572265625,0.3549804688,0.1391601562,-5.1269531250,-4.4860839844,-9.3536376953
2.6791470051,-0.6674804688,0.3681640625,0.1079101562,-4.8522949219,-3.7689208984,-11.1694335938
2.6818521023,-0.6674804688,0.3681640625,0.1079101562,-4.8522949219,-3.7689208984,-15.0756835938
2.6845550537,-0.6674804688,0.3681640625,0.1079101562,-5.0811767578,-3.0975341797,-12.9241943359
2.6872510910,-0.6674804688,0.3681640625,0.1079101562,-5.0811767578,-3.0975341797,-12.9241943359
2.6899681091,-0.6469726562,0.3789062500,0.0898437500,-5.0964355469,-2.5024414062,-14.0075683594
2.6926691532,-0.6469726562,0.3789062500,0.0898437500,-5.0964355469,-2.5024414062,-17.9138183594
2.6953761578,-0.6469726562,0.3789062500,0.0898437500,-5.3405761719,-1.8157958984,-16.2048339844
2.6981379986,-0.6469726562,0.3525390625,0.1074218750,-5.3405761719,-1.8157958984,-16.2048339844
2.7008371353,-0.6523437500,0.3525390625,0.1074218750,-5.8898925781,-0.5645751953,-17.2119140625
2.7035460472,-0.6523437500,0.3525390625,0.1074218750,-5.8898925781,-0.5645751953,-17.2119140625
2.7062439919,-0.6523437500,0.3525390625,0.1074218750,-6.3476562500,0.0305175781,-17.5781250000
2.7089600563,-0.6782226562,0.3032226562,0.1020507812,-6.3476562500,0.0305175781,-17.5781250000
2.7116692066,-0.6782226562,0.3032226562,0.1020507812,-7.6599121094,0.4577636719,-17.9901123047
2.7144892216,-0.6782226562,0.3032226562,0.1020507812,-7.6599121094,0.4577636719,-17.9901123047
2.7176201344,-0.6782226562,0.3032226562,0.1020507812,-8.3312988281,1.0223388672,-18.1884765625
2.7201981544,-0.7045898438,0.3085937500,0.0971679688,-8.3312988281,1.0223388672,-18.4631347656
2.7227680683,-0.7045898438,0.3085937500,0.0971679688,-8.1176757812,1.2664794922,-18.4631347656
2.7253420353,-0.7045898438,0.3085937500,0.0971679688,-8.1176757812,1.2664794922,-18.4631347656
2.7279720306,-0.7045898438,0.3085937500,0.0761718750,-7.2174072266,1.6326904297,-19.1802978516
2.7306761742,-0.7197265625,0.2944335938,0.0761718750,-7.2174072266,1.6326904297,-19.1802978516
2.7334921360,-0.7197265625,0.2944335938,0.0761718750,-6.3781738281,1.7852783203,-19.7906494141
2.7361881733,-0.7197265625,0.2944335938,0.0761718750,-6.3781738281,1.7852783203,-15.8843994141
2.7389440536,-0.6894531250,0.3085937500,0.0708007812,-5.9509277344,1.4190673828,-19.1955566406
2.7416441441,-0.6894531250,0.3085937500,0.0708007812,-5.9509277344,1.4190673828,-19.1955566406
2.7443470955,-0.6894531250,0.3085937500,0.0708007812,-5.5541992188,0.5035400391,-19.2565917969
2.7470560074,-0.6894531250,0.3085937500,0.0708007812,-5.5541992188,0.5035400391,-19.2565917969
2.7496562004,-0.6601562500,0.3525390625,0.0893554688,-5.0048828125,0.3356933594,-20.1873779297
2.7522351742,-0.6601562500,0.3525390625,0.0893554688,-5.0048828125,0.3356933594,-20.1873779297
2.7548041344,-0.6601562500,0.3525390625,0.0893554688,-3.8604736328,0.3204345703,-21.8048095703
2.7573730946,-0.6601562500,0.3525390625,0.0893554688,-3.8604736328,0.3204345703,-21.8048095703
2.7599530220,-0.6425781250,0.3422851562,0.0830078125,-3.3569335938,0.5645751953,-22.9949951172
2.7625260353,-0.6425781250,0.3422851562,0.0830078125,-3.3569335938,0.5645751953,-22.9949951172
2.7650921345,-0.6425781250,0.3422851562,0.0830078125,-3.9062500000,0.5645751953,-24.5513916016
2.7678401470,-0.6425781250,0.3422851562,0.0830078125,-3.9062500000,0.5645751953,-24.5513916016
2.7704491615,-0.6323242188,0.3066406250,0.0942382812,-3.7994384766,0.2441406250,-25.9246826172
2.7730231285,-0.6323242188,0.3066406250,0.0942382812,-3.7994384766,0.2441406250,-25.9246826172
2.7755939960,-0.6323242188,0.3066406250,0.0942382812,-3.6468505859,-0.0762939453,-27.1301269531
2.7785379887,-0.6323242188,0.3066406250,0.1113281250,-3.6468505859,-0.0762939453,-27.1301269531
2.7824440002,-0.6318359375,0.3403320312,0.1113281250,-2.7770996094,0.0457763672,-28.5034179688
2.7852430344,-0.6318359375,0.3403320312,0.1113281250,-2.7770996094,0.0457763672,-28.5034179688
2.7879531384,-0.6318359375,0.3403320312,0.1113281250,-2.2277832031,0.4882812500,-30.2429199219
2.7906460762,-0.6420898438,0.3515625000,0.0893554688,-2.2277832031,0.4882812500,-30.2429199219
2.7933320999,-0.6420898438,0.3515625000,0.0893554688,-1.4648437500,0.1220703125,-31.6467285156
2.7960240841,-0.6420898438,0.3515625000,0.0893554688,-1.4648437500,0.1220703125,-31.6467285156
2.7988810539,-0.6420898438,0.3515625000,0.0634765625,-1.0986328125,0.0915527344,-32.5622558594
2.8015720844,-0.6596679688,0.3256835938,0.0634765625,-1.0986328125,0.0915527344,-32.5622558594
2.8042590618,-0.6596679688,0.3256835938,0.0634765625,-1.0681152344,0.3204345703,-33.3862304688
2.8069372177,-0.6596679688,0.3256835938,0.0634765625,-1.0681152344,0.3204345703,-33.3862304688
2.8096351624,-0.6596679688,0.3056640625,0.0981445312,-1.0070800781,0.6866455078,-33.9660644531
2.8123281002,-0.6596679688,0.3056640625,0.0981445312,-1.0070800781,0.6866455078,-33.9660644531
2.8150150776,-0.6596679688,0.3056640625,0.0981445312,-0.7171630859,0.2441406250,-34.9121093750
2.8177480698,-0.6596679688,0.3056640625,0.0981445312,-0.7171630859,0.2441406250,-34.9121093750
2.8204309940,-0.6767578125,0.2949218750,0.1201171875,-0.1220703125,0.2899169922,-35.0036621094
2.8231101036,-0.6767578125,0.2949218750,0.1201171875,-0.1220703125,0.2899169922,-35.0036621094
2.8257980347,-0.6767578125,0.2949218750,0.1201171875,0.4119873047,0.1220703125,-35.5682373047
2.8285400867,-0.6767578125,0.2949218750,0.1201171875,0.4119873047,0.1220703125,-35.5682373047
2.8312470913,-0.7021484375,0.2602539062,0.1142578125,0.6561279297,-0.1831054688,-35.6903076172
2.8341891766,-0.7021484375,0.2602539062,0.1142578125,0.6561279297,-0.1831054688,-35.6903076172
2.8368740082,-0.7021484375,0.2602539062,0.1142578125,2.0904541016,-0.1831054688,-35.7055664062
2.8398621082,-0.6787109375,0.2841796875,0.1005859375,2.0904541016,-0.1831054688,-36.1175537109
2.8425660133,-0.6787109375,0.2841796875,0.1005859375,3.0059814453,-0.3204345703,-36.1175537109
2.8452680111,-0.6787109375,0.2841796875,0.1005859375,3.0059814453,-0.3204345703,-36.1175537109
2.8479862213,-0.6787109375,0.2841796875,0.1005859375,3.7536621094,-0.4119873047,-36.7889404297
2.8506882191,-0.6728515625,0.2993164062,0.0976562500,3.7536621094,-0.4119873047,-36.7889404297
2.8533961773,-0.6728515625,0.2993164062,0.0976562500,5.4931640625,-0.3814697266,-37.1704101562
2.8560991287,-0.6728515625,0.2993164062,0.0976562500,5.4931640625,-0.3814697266,-37.1704101562
2.8588161469,-0.6728515625,0.2993164062,0.0976562500,6.7596435547,-0.6561279297,-37.3382568359
2.8615231514,-0.6708984375,0.2792968750,0.0971679688,6.7596435547,-0.6561279297,-37.3382568359
2.8643331528,-0.6708984375,0.2792968750,0.0971679688,7.8887939453,-0.2746582031,-37.5671386719
2.8670341969,-0.6708984375,0.2792968750,0.0971679688,7.8887939453,-0.2746582031,-37.5671386719
2.8696410656,-0.6708984375,0.2924804688,0.0825195312,9.9639892578,0.5035400391,-37.0788574219
2.8722140789,-0.6689453125,0.2924804688,0.0825195312,9.9639892578,0.5035400391,-37.0788574219
2.8747870922,-0.6689453125,0.2924804688,0.0825195312,12.7105712891,1.5258789062,-36.9415283203
2.8773581982,-0.6689453125,0.2924804688,0.0825195312,12.7105712891,1.5258789062,-36.9415283203
2.8799381256,-0.6689453125,0.2451171875,0.0869140625,12.4816894531,1.4038085938,-37.9486083984
2.8825471401,-0.6801757812,0.2451171875,0.0869140625,12.4816894531,1.4038085938,-37.9486083984
2.8851242065,-0.6801757812,0.2451171875,0.0869140625,12.4511718750,1.4801025391,-37.4755859375
2.8878672123,-0.6801757812,0.2451171875,0.0869140625,12.4511718750,1.4801025391,-37.4755859375
2.8904471397,-0.6723632812,0.2358398438,0.0830078125,11.0321044922,1.5258789062,-37.2924804688
2.8930211067,-0.6723632812,0.2358398438,0.0830078125,11.0321044922,1.5258789062,-37.2924804688
2.8956019878,-0.6723632812,0.2358398438,0.0830078125,9.8724365234,1.6937255859,-37.1093750000
2.8983130455,-0.6723632812,0.2358398438,0.0830078125,9.8724365234,1.6937255859,-37.1093750000
2.9010159969,-0.6567382812,0.2797851562,0.0996093750,9.2468261719,2.1820068359,-37.3992919922
2.9037280083,-0.6567382812,0.2797851562,0.0996093750,9.2468261719,2.1820068359,-37.3992919922
2.9064280987,-0.6567382812,0.2797851562,0.0996093750,9.5825195312,2.5177001953,-37.2009277344
2.9091410637,-0.6567382812,0.2797851562,0.0996093750,9.5825195312,2.5177001953,-37.2009277344
2.9118461609,-0.6845703125,0.2656250000,0.1166992188,10.2233886719,2.6245117188,-37.5518798828
2.9145491123,-0.6845703125,0.2656250000,0.1166992188,10.2233886719,2.6245117188,-37.5518798828
2.9172601700,-0.6845703125,0.2656250000,0.1166992188,11.3830566406,2.1514892578,-37.2924804688
2.9198560715,-0.6845703125,0.2656250000,0.1064453125,11.3830566406,2.1514892578,-37.2924804688
2.9224250317,-0.6845703125,0.2182617188,0.1064453125,13.2598876953,2.2888183594,-36.5600585938
2.9250040054,-0.6845703125,0.2182617188,0.1064453125,13.2598876953,2.2888183594,-36.5600585938
2.9277679920,-0.6845703125,0.2182617188,0.1064453125,17.1661376953,1.8005371094,-36.0870361328
2.9304730892,-0.6845703125,0.2397460938,0.0864257812,15.7318115234,1.8005371094,-36.0870361328
2.9331860542,-0.7026367188,0.2397460938,0.0864257812,15.7318115234,1.0375976562,-34.9273681641
2.9358870983,-0.7026367188,0.2397460938,0.0864257812,17.8222656250,1.0375976562,-34.9273681641
2.9386091232,-0.7026367188,0.2397460938,0.0864257812,21.7285156250,0.5493164062,-33.8134765625
2.9413151741,-0.7250976562,0.2333984375,0.0698242188,20.1416015625,0.5493164062,-33.8134765625
2.9440209866,-0.7250976562,0.2333984375,0.0698242188,20.1416015625,0.1373291016,-32.0587158203
2.9467310905,-0.7250976562,0.2333984375,0.0698242188,22.4456787109,0.1373291016,-32.0587158203
2.9494431019,-0.7250976562,0.2333984375,0.0698242188,26.3519287109,-0.0762939453,-30.2886962891
2.9521510601,-0.7319335938,0.1816406250,0.0600585938,23.6511230469,-0.0762939453,-30.2886962891
2.9550971985,-0.7319335938,0.1816406250,0.0600585938,24.6887207031,-0.3051757812,-27.6489257812
2.9581789970,-0.7319335938,0.1816406250,0.0600585938,24.6887207031,-0.3051757812,-27.6489257812
2.9607610703,-0.7319335938,0.1904296875,0.0834960938,24.2614746094,-0.6713867188,-25.9399414062
2.9633359909,-0.7070312500,0.1904296875,0.0834960938,24.2614746094,-0.6713867188,-25.9399414062
2.9659101963,-0.7070312500,0.1904296875,0.0834960938,24.2614746094,-0.4272460938,-24.8870849609
2.9685862064,-0.7070312500,0.1904296875,0.0834960938,23.8647460938,-0.4272460938,-24.8870849609
2.9712910652,-0.7128906250,0.2094726562,0.1137695312,23.8647460938,0.2136230469,-23.0102539062
2.9740090370,-0.7128906250,0.2094726562,0.1137695312,24.0783691406,0.2136230469,-23.0102539062
2.9767169952,-0.7128906250,0.2094726562,0.1137695312,24.0783691406,0.6256103516,-21.1029052734
2.9794380665,-0.7128906250,0.2094726562,0.1137695312,24.2004394531,0.6256103516,-21.1029052734
2.9821519852,-0.7128906250,0.1621093750,0.0927734375,20.2941894531,0.7781982422,-18.8446044922
2.9848580360,-0.7128906250,0.1621093750,0.0927734375,22.9339599609,0.7781982422,-18.8446044922
2.9875791073,-0.7128906250,0.1621093750,0.0927734375,22.9339599609,1.3885498047,-17.2882080078
2.9910190105,-0.7128906250,0.1811523438,0.0942382812,22.8424072266,1.3885498047,-17.2882080078
2.9939861298,-0.7099609375,0.1811523438,0.0942382812,22.4456787109,2.1972656250,-16.7846679688
2.9965610504,-0.7099609375,0.1811523438,0.0942382812,22.4456787109,2.1972656250,-16.7846679688
2.9992361069,-0.7099609375,0.1811523438,0.0942382812,22.7355957031,3.0517578125,-15.9912109375
3.0018110275,-0.7099609375,0.2250976562,0.0932617188,22.7355957031,3.0517578125,-15.9912109375
3.0043821335,-0.7099609375,0.2250976562,0.0932617188,22.7203369141,3.1280517578,-14.7552490234
3.0069520473,-0.7099609375,0.2250976562,0.0932617188,22.7203369141,3.1280517578,-14.7552490234
3.0095300674,-0.7099609375,0.2250976562,0.0932617188,23.2543945312,3.1890869141,-13.2446289062
3.0121002197,-0.6967773438,0.2182617188,0.0971679688,23.2543945312,3.1890869141,-13.2446289062
3.0146691799,-0.6967773438,0.2182617188,0.0971679688,23.2543945312,3.1585693359,-12.8326416016
3.0172350407,-0.6967773438,0.2182617188,0.0971679688,23.8342285156,3.1585693359,-12.8326416016
3.0198490620,-0.6967773438,0.2182617188,0.0971679688,23.8342285156,3.1585693359,-12.2985839844
3.0224161148,-0.6850585938,0.2065429688,0.0908203125,24.4140625000,3.1738281250,-12.2985839844
3.0249860287,-0.6850585938,0.2065429688,0.0908203125,24.4140625000,3.1738281250,-8.3923339844
3.0275452137,-0.6850585938,0.2065429688,0.0908203125,24.1088867188,3.9672851562,-10.7879638672
3.0301191807,-0.6850585938,0.2065429688,0.0908203125,24.1088867188,3.9672851562,-10.7879638672
3.0326890945,-0.6875000000,0.1958007812,0.0849609375,25.1617431641,4.5928955078,-9.3841552734
3.0352511406,-0.6875000000,0.1958007812,0.0849609375,25.1617431641,4.5928955078,-9.3841552734
3.0379080772,-0.6875000000,0.1958007812,0.0849609375,25.5432128906,4.9743652344,-7.5988769531
3.0404820442,-0.6875000000,0.1958007812,0.0849609375,25.5432128906,4.9743652344,-7.5988769531
3.0430550575,-0.7060546875,0.1586914062,0.0795898438,24.6276855469,5.3863525391,-5.3863525391
3.0456221104,-0.7060546875,0.1586914062,0.0795898438,24.6276855469,5.3863525391,-5.3863525391
3.0483880043,-0.7060546875,0.1586914062,0.0795898438,23.0102539062,5.9356689453,-3.8299560547
3.0510962009,-0.7060546875,0.1586914062,0.0786132812,23.0102539062,5.9356689453,-3.8299560547
3.0537950993,-0.7211914062,0.1464843750,0.0786132812,21.0113525391,6.2866210938,-1.8768310547
3.0566120148,-0.7211914062,0.1464843750,0.0786132812,21.0113525391,6.2866210938,-1.8768310547
3.0592391491,-0.7211914062,0.1464843750,0.0786132812,18.7835693359,6.4239501953,0.2746582031
3.0618131161,-0.7211914062,0.1713867188,0.0581054688,18.7835693359,6.4239501953,0.2746582031
3.0643820763,-0.7241210938,0.1713867188,0.0581054688,17.8680419922,6.9427490234,2.2888183594
3.0669500828,-0.7241210938,0.1713867188,0.0581054688,17.8680419922,6.9427490234,2.2888183594
3.0696461201,-0.7241210938,0.1713867188,0.0581054688,18.2800292969,7.3852539062,4.2724609375
3.0723550320,-0.7480468750,0.1938476562,0.0449218750,18.2800292969,7.3852539062,4.2724609375
3.0750582218,-0.7480468750,0.1938476562,0.0449218750,19.6075439453,8.1481933594,6.0119628906
3.0777761936,-0.7480468750,0.1938476562,0.0449218750,19.6075439453,8.1481933594,6.0119628906
3.0804760456,-0.7480468750,0.1938476562,0.0449218750,20.7061767578,8.6669921875,7.6751708984
3.0831761360,-0.7724609375,0.1699218750,0.0400390625,20.7061767578,8.6669921875,7.6751708984
3.0858790874,-0.7724609375,0.1699218750,0.0400390625,21.1639404297,8.6669921875,8.9721679688
3.0885961056,-0.7724609375,0.1699218750,0.0400390625,21.1639404297,8.6669921875,8.9721679688
3.0912961960,-0.7724609375,0.1699218750,0.0400390625,22.0031738281,8.3618164062,10.2386474609
3.0940060616,-0.7602539062,0.1948242188,0.0590820312,22.0031738281,8.3618164062,10.2386474609
3.0967090130,-0.7602539062,0.1948242188,0.0590820312,22.4761962891,8.0261230469,11.3830566406
3.0994331837,-0.7602539062,0.1948242188,0.0590820312,22.4761962891,8.0261230469,11.3830566406
3.1021370888,-0.7602539062,0.1992187500,0.0512695312,22.9034423828,7.9345703125,12.1917724609
3.1048932076,-0.7543945312,0.1992187500,0.0512695312,22.9034423828,7.9345703125,12.1917724609
3.1079690456,-0.7543945312,0.1992187500,0.0512695312,23.7579345703,8.1176757812,13.4277343750
3.1105442047,-0.7543945312,0.1992187500,0.0512695312,23.7579345703,8.1176757812,13.4277343750
3.1131172180,-0.7392578125,0.1972656250,0.0424804688,23.9562988281,6.9885253906,14.2822265625
3.1156899929,-0.7392578125,0.1972656250,0.0424804688,23.9562988281,6.9885253906,14.2822265625
3.1183531284,-0.7392578125,0.1972656250,0.0424804688,24.4750976562,6.4392089844,15.6860351562
3.1211612225,-0.7392578125,0.1972656250,0.0424804688,24.4750976562,6.4392089844,15.6860351562
3.1238641739,-0.7260742188,0.1997070312,0.0415039062,25.0396728516,5.5236816406,17.1813964844
3.1265690327,-0.7260742188,0.1997070312,0.0415039062,25.0396728516,5.5236816406,17.1813964844
3.1292819977,-0.7260742188,0.1997070312,0.0415039062,24.8107910156,5.6762695312,17.3797607422
3.1319880486,-0.7260742188,0.1997070312,0.0322265625,24.8107910156,5.6762695312,17.3797607422
3.1346960068,-0.7504882812,0.2016601562,0.0322265625,23.9868164062,6.7443847656,17.8985595703
3.1374402046,-0.7504882812,0.2016601562,0.0322265625,23.9868164062,6.7443847656,17.8985595703
3.1400160789,-0.7504882812,0.2016601562,0.0322265625,20.0805664062,7.0190429688,18.0816650391
3.1425940990,-0.7504882812,0.2202148438,0.0576171875,23.1018066406,7.0190429688,18.0816650391
3.1451652050,-0.7597656250,0.2202148438,0.0576171875,23.1018066406,7.0190429688,18.0969238281
3.1477730274,-0.7597656250,0.2202148438,0.0576171875,22.4914550781,7.0953369141,18.0969238281
3.1503531933,-0.7597656250,0.2202148438,0.0576171875,22.4914550781,7.0953369141,17.8985595703
3.1529271603,-0.7387695312,0.2729492188,0.0566406250,21.7742919922,7.1411132812,17.8985595703
3.1555039883,-0.7387695312,0.2729492188,0.0566406250,21.7742919922,7.1411132812,17.8985595703
3.1582360268,-0.7387695312,0.2729492188,0.0566406250,21.4996337891,6.7138671875,17.4560546875
3.1608099937,-0.7387695312,0.2729492188,0.0566406250,21.4996337891,6.7138671875,17.4560546875
3.1633810997,-0.7460937500,0.2929687500,0.0419921875,21.4843750000,6.8817138672,16.2658691406
3.1659510136,-0.7460937500,0.2929687500,0.0419921875,21.4843750000,6.8817138672,16.2658691406
3.1686840057,-0.7460937500,0.2929687500,0.0419921875,23.3306884766,7.4615478516,13.9465332031
3.1713910103,-0.7460937500,0.2929687500,0.0419921875,23.3306884766,7.4615478516,13.9465332031
3.1740942001,-0.7646484375,0.3222656250,0.0341796875,25.2838134766,7.3699951172,11.7034912109
3.1768021584,-0.7646484375,0.3222656250,0.0341796875,25.2838134766,7.3699951172,11.7034912109
3.1795461178,-0.7646484375,0.3222656250,0.0341796875,26.5655517578,7.8582763672,9.6282958984
3.1822400093,-0.7646484375,0.3222656250,-0.0058593750,26.5655517578,7.8582763672,9.6282958984
3.1849420071,-0.7915039062,0.3115234375,-0.0058593750,28.0761718750,9.5672607422,7.6751708984
3.1878020763,-0.7915039062,0.3115234375,-0.0058593750,28.0761718750,9.5672607422,7.6751708984
3.1905031204,-0.7915039062,0.3115234375,-0.0058593750,27.3742675781,10.9710693359,6.3323974609
3.1933000088,-0.8642578125,0.2583007812,-0.0419921875,27.3742675781,10.9710693359,6.3323974609
3.1958930492,-0.8642578125,0.2583007812,-0.0419921875,25.4821777344,11.9171142578,5.3558349609
3.1986820698,-0.8642578125,0.2583007812,-0.0419921875,25.4821777344,11.9171142578,5.3558349609
3.2013540268,-0.8642578125,0.2583007812,-0.0419921875,23.3001708984,13.8549804688,5.0964355469
3.2043011189,-0.9194335938,0.2451171875,-0.0004882812,23.3001708984,13.8549804688,5.0964355469
3.2069110870,-0.9194335938,0.2451171875,-0.0004882812,21.7742919922,15.0756835938,3.7384033203
3.2095870972,-0.9194335938,0.2451171875,-0.0004882812,21.7742919922,15.0756835938,3.7384033203
3.2121610641,-0.9194335938,0.2451171875,-0.0004882812,21.0113525391,15.0604248047,1.0681152344
3.2147281170,-0.9306640625,0.2705078125,0.0327148438,21.0113525391,15.0604248047,1.0681152344
3.2173001766,-0.9306640625,0.2705078125,0.0327148438,22.5372314453,14.3737792969,-0.7324218750
3.2198760509,-0.9306640625,0.2705078125,0.0327148438,22.5372314453,14.3737792969,-0.7324218750
3.2224462032,-0.9306640625,0.2705078125,0.0327148438,25.9399414062,14.1448974609,-2.3345947266
3.2250192165,-0.9589843750,0.2714843750,0.0097656250,25.9399414062,14.1448974609,-2.3345947266
3.2275910378,-0.9589843750,0.2714843750,0.0097656250,30.0903320312,13.6871337891,-4.8217773438
3.2301661968,-0.9589843750,0.2714843750,0.0097656250,30.0903320312,13.6871337891,-4.8217773438
3.2327420712,-0.9589843750,0.2714843750,-0.1152343750,33.9202880859,12.2528076172,-7.2479248047
3.2353100777,-0.9873046875,0.2661132812,-0.0092773438,33.9202880859,12.2528076172,-7.2479248047
3.2379372120,-0.9873046875,0.2661132812,-0.0092773438,33.9202880859,10.2539062500,-8.6669921875
3.2405130863,-0.9873046875,0.2661132812,-0.0092773438,37.8417968750,10.2539062500,-8.6669921875
3.2430779934,-0.9873046875,0.2661132812,-0.0429687500,37.8417968750,10.2539062500,-9.7808837891
3.2456500530,-0.9912109375,0.2695312500,-0.0429687500,41.0308837891,7.7056884766,-9.7808837891
3.2482662201,-0.9912109375,0.2695312500,-0.0429687500,41.0308837891,7.7056884766,-9.7961425781
3.2509419918,-0.9912109375,0.2695312500,-0.0429687500,44.6624755859,5.5389404297,-9.7961425781
3.2535150051,-0.9912109375,0.2172851562,-0.0634765625,44.6624755859,5.5389404297,-9.7961425781
3.2560820580,-1.0161132812,0.2172851562,-0.0634765625,48.0499267578,4.1656494141,-9.3536376953
3.2587950230,-1.0161132812,0.2172851562,-0.0634765625,48.0499267578,4.1656494141,-9.3536376953
3.2613601685,-1.0161132812,0.2172851562,-0.0634765625,50.8117675781,3.0059814453,-8.6975097656
3.2639231682,-1.0161132812,0.1376953125,-0.0761718750,50.8117675781,3.0059814453,-8.6975097656
3.2664890289,-1.0644531250,0.1376953125,-0.0761718750,52.5054931641,1.9683837891,-7.2479248047
3.2690961361,-1.0644531250,0.1376953125,-0.0761718750,52.5054931641,1.9683837891,-7.2479248047
3.2716522217,-1.0644531250,0.1376953125,-0.0761718750,52.7954101562,1.6937255859,-5.6762695312
3.2742180824,-1.1064453125,0.0117187500,-0.0512695312,52.7954101562,1.6937255859,-5.6762695312
3.2767810822,-1.1064453125,0.0117187500,-0.0512695312,51.8493652344,1.0986328125,-5.4016113281
3.2794601917,-1.1064453125,0.0117187500,-0.0512695312,51.8493652344,1.0986328125,-5.4016113281
3.2821600437,-1.1064453125,0.0117187500,-0.0512695312,49.3011474609,0.7781982422,-4.4097900391
3.2848570347,-1.1293945312,-0.0600585938,-0.0605468750,49.3011474609,0.7781982422,-4.4097900391
3.2875661850,-1.1293945312,-0.0600585938,-0.0605468750,42.0684814453,1.5563964844,-0.9307861328
3.2902669907,-1.1293945312,-0.0600585938,-0.0605468750,42.0684814453,1.5563964844,-0.9307861328
3.2929730415,-1.1293945312,-0.0600585938,-0.0605468750,33.2946777344,2.3040771484,1.6326904297
3.2956700325,-1.1513671875,-0.1635742188,-0.0844726562,33.2946777344,2.3040771484,1.6326904297
3.2983841896,-1.1513671875,-0.1635742188,-0.0844726562,25.6347656250,3.1585693359,6.3018798828
3.3010911942,-1.1513671875,-0.1635742188,-0.0844726562,25.6347656250,3.1585693359,6.3018798828
3.3037960529,-1.1513671875,-0.0385742188,-0.0444335938,18.2342529297,4.4860839844,15.5334472656
3.3065080643,-1.1420898438,-0.1240234375,-0.0444335938,18.2342529297,4.4860839844,15.5334472656
3.3091480732,-1.1420898438,-0.1240234375,-0.0444335938,11.3677978516,6.2408447266,25.7415771484
3.3117170334,-1.1420898438,-0.1240234375,-0.0444335938,11.3677978516,6.2408447266,25.7415771484
3.3145911694,-1.0170898438,-0.1132812500,0.0893554688,4.8370361328,7.7819824219,35.5072021484
3.3171660900,-1.0170898438,-0.1132812500,0.0893554688,4.8370361328,7.7819824219,35.5072021484
3.3198621273,-1.0170898438,-0.1132812500,0.0893554688,-2.5787353516,10.0097656250,45.2880859375
