# time_stamp before, Acceleration x, Acceleration y, Acceleration z, Gyro x, Gyro y, Gyro z
0.0000000000,-0.7324218750,0.1708984375,-0.0097656250,-3.7231445312,4.1503906250,5.8746337891
0.0025570393,-0.7324218750,0.1708984375,-0.0097656250,-2.6855468750,4.5776367188,6.8817138672
0.0051119328,-0.7358398438,0.1699218750,-0.0014648438,-2.6855468750,4.5776367188,6.8817138672
0.0077359676,-0.7358398438,0.1699218750,-0.0014648438,-1.2512207031,3.8146972656,7.8277587891
0.0102839470,-0.7358398438,0.1699218750,-0.0014648438,-1.2512207031,3.8146972656,7.8277587891
0.0128400326,-0.7358398438,0.1699218750,-0.0014648438,0.9002685547,3.3416748047,8.7127685547
0.0153920650,-0.7416992188,0.1674804688,-0.0053710938,0.9002685547,3.3416748047,8.7127685547
0.0181319714,-0.7416992188,0.1674804688,-0.0053710938,2.5634765625,3.1585693359,9.4909667969
0.0206868649,-0.7416992188,0.1674804688,-0.0053710938,2.5634765625,3.1585693359,9.4909667969
0.0232419968,-0.7416992188,0.1674804688,-0.0063476562,2.5939941406,2.9602050781,10.7727050781
0.0257968903,-0.7421875000,0.1635742188,-0.0063476562,2.5939941406,2.9602050781,10.7727050781
0.0285098553,-0.7421875000,0.1635742188,-0.0063476562,3.0517578125,2.6397705078,11.4440917969
0.0310759544,-0.7421875000,0.1635742188,-0.0063476562,3.0517578125,2.6397705078,11.4440917969
0.0336449146,-0.7421875000,0.1635742188,-0.0092773438,3.0517578125,2.3345947266,12.5732421875
0.0362079144,-0.7495117188,0.1684570312,-0.0092773438,3.6621093750,2.3345947266,12.5732421875
0.0388619900,-0.7495117188,0.1684570312,-0.0092773438,3.6621093750,1.7700195312,14.3127441406
0.0414328575,-0.7495117188,0.1684570312,-0.0092773438,4.0435791016,1.7700195312,14.3127441406
0.0439980030,-0.7495117188,0.1757812500,-0.0146484375,4.0435791016,1.7700195312,16.0217285156
0.0465729237,-0.7402343750,0.1757812500,-0.0146484375,4.1351318359,1.3885498047,16.0217285156
0.0492548943,-0.7402343750,0.1757812500,-0.0146484375,4.1351318359,1.3885498047,16.9830322266
0.0521008968,-0.7402343750,0.1757812500,-0.0146484375,4.2266845703,1.3122558594,16.9830322266
0.0547828674,-0.7343750000,0.1860351562,-0.0156250000,4.2266845703,1.3122558594,17.9290771484
0.0575089455,-0.7343750000,0.1860351562,-0.0156250000,5.6457519531,1.4038085938,17.9290771484
0.0601730347,-0.7343750000,0.1860351562,-0.0156250000,5.6457519531,1.4038085938,19.0429687500
0.0628349781,-0.7343750000,0.1860351562,-0.0156250000,6.5002441406,1.1749267578,19.0429687500
0.0655009747,-0.7290039062,0.1889648438,-0.0043945312,6.5002441406,1.1749267578,19.5159912109
0.0683109760,-0.7290039062,0.1889648438,-0.0043945312,7.7362060547,0.9918212891,19.5159912109
0.0710220337,-0.7290039062,0.1889648438,-0.0043945312,7.7362060547,0.9918212891,20.2026367188
0.0737278461,-0.7290039062,0.1889648438,-0.0126953125,8.8653564453,0.7781982422,20.2026367188
0.0764360428,-0.7329101562,0.1953125000,-0.0126953125,8.8653564453,0.7781982422,20.5078125000
0.0790798664,-0.7329101562,0.1953125000,-0.0126953125,9.0179443359,1.0070800781,20.5078125000
0.0816500187,-0.7329101562,0.1953125000,-0.0126953125,9.0179443359,1.0070800781,20.5078125000
0.0844449997,-0.8579101562,0.1938476562,-0.0043945312,8.3465576172,0.9765625000,20.6451416016
0.0870189667,-0.7514648438,0.1938476562,-0.0043945312,8.3465576172,0.9765625000,21.8505859375
0.0900509357,-0.7514648438,0.1938476562,-0.0043945312,7.9498291016,1.2207031250,21.8505859375
0.0927529335,-0.7514648438,0.1938476562,-0.0043945312,7.9498291016,1.2207031250,22.3846435547
0.0954580307,-0.7412109375,0.1835937500,0.0087890625,8.3160400391,1.2969970703,22.3846435547
0.0982129574,-0.7412109375,0.1835937500,0.0087890625,8.3160400391,1.2969970703,22.8881835938
0.1009109020,-0.7412109375,0.1835937500,0.0087890625,8.5449218750,1.4190673828,22.8881835938
0.1036109924,-0.7412109375,0.1835937500,0.0087890625,8.5449218750,1.4190673828,23.1475830078
0.1063189507,-0.7431640625,0.1840820312,0.0107421875,8.3770751953,1.6021728516,23.1475830078
0.1090340614,-0.7431640625,0.1840820312,0.0107421875,8.3770751953,1.6021728516,23.5443115234
0.1117348671,-0.7431640625,0.1840820312,0.0107421875,8.6822509766,1.9683837891,23.5443115234
0.1144349575,-0.7431640625,0.1904296875,0.0209960938,8.6822509766,1.9683837891,24.5208740234
0.1172530651,-0.7480468750,0.1904296875,0.0209960938,9.7656250000,2.1972656250,24.5208740234
0.1198859215,-0.7480468750,0.1904296875,0.0209960938,9.7656250000,2.1972656250,24.5208740234
0.1224629879,-0.7480468750,0.1904296875,0.0209960938,11.4440917969,2.1972656250,25.2532958984
0.1250438690,-0.7597656250,0.1557617188,0.0102539062,11.4440917969,2.1972656250,25.2532958984
0.1276168823,-0.7597656250,0.1557617188,0.0102539062,10.9863281250,2.2277832031,26.1077880859
0.1301929951,-0.7597656250,0.1557617188,0.0102539062,10.9863281250,2.2277832031,26.1077880859
0.1327600479,-0.7597656250,0.1557617188,0.0102539062,10.7116699219,2.1209716797,26.9012451172
0.1353359222,-0.7729492188,0.1616210938,0.0190429688,10.7116699219,2.1209716797,26.9012451172
0.1380648613,-0.7729492188,0.1616210938,0.0190429688,11.4746093750,2.7160644531,27.0843505859
0.1406488419,-0.7729492188,0.1616210938,0.0190429688,11.4746093750,2.7160644531,27.0843505859
0.1432149410,-0.7729492188,0.1616210938,0.0190429688,11.6882324219,2.9907226562,27.7557373047
0.1457939148,-0.7832031250,0.2133789062,0.0073242188,11.6882324219,2.9907226562,27.7557373047
0.1485819817,-0.7832031250,0.2133789062,0.0073242188,12.9089355469,3.2348632812,28.3050537109
0.1512808800,-0.7832031250,0.2133789062,0.0073242188,12.9089355469,3.2348632812,28.3050537109
0.1539700031,-0.7832031250,0.2133789062,0.0073242188,13.4277343750,3.7994384766,29.1748046875
0.1566569805,-0.7773437500,0.2128906250,0.0083007812,13.4277343750,3.7994384766,29.1748046875
0.1593830585,-0.7773437500,0.2128906250,0.0083007812,13.7939453125,4.1503906250,29.2510986328
0.1620509624,-0.7773437500,0.2128906250,0.0083007812,13.7939453125,4.1503906250,29.2510986328
0.1647219658,-0.7773437500,0.2128906250,-0.0034179688,14.5111083984,4.0283203125,29.0069580078
0.1674170494,-0.7841796875,0.2124023438,-0.0034179688,14.5111083984,4.0283203125,29.0069580078
0.1702158451,-0.7841796875,0.2124023438,-0.0034179688,14.7094726562,4.6539306641,28.9611816406
0.1728079319,-0.7841796875,0.2124023438,-0.0034179688,14.7094726562,4.6539306641,28.9611816406
0.1753818989,-0.7841796875,0.2280273438,-0.0195312500,14.6942138672,4.5623779297,28.6407470703
0.1781609058,-0.7626953125,0.2280273438,-0.0195312500,14.6942138672,4.5623779297,28.6407470703
0.1809530258,-0.7626953125,0.2280273438,-0.0195312500,14.5874023438,4.0893554688,29.0069580078
0.1842310429,-0.7626953125,0.2280273438,-0.0195312500,14.5874023438,4.0893554688,29.0069580078
0.1868028641,-0.7548828125,0.2392578125,-0.0229492188,15.3045654297,4.0130615234,28.6712646484
0.1894910336,-0.7548828125,0.2392578125,-0.0229492188,15.3045654297,4.0130615234,28.6712646484
0.1920599937,-0.7548828125,0.2392578125,-0.0229492188,16.4947509766,4.0130615234,28.6407470703
0.1946358681,-0.7548828125,0.2392578125,-0.0229492188,16.4947509766,4.0130615234,28.6407470703
0.1971988678,-0.7485351562,0.2436523438,-0.0205078125,16.2658691406,4.2724609375,27.9693603516
0.1997768879,-0.7485351562,0.2436523438,-0.0205078125,16.2658691406,4.2724609375,27.9693603516
0.2023580074,-0.7485351562,0.2436523438,-0.0205078125,16.2658691406,3.9825439453,27.4505615234
0.2049269676,-0.7485351562,0.2436523438,-0.0195312500,16.0522460938,3.9825439453,27.4505615234
0.2075369358,-0.7539062500,0.2421875000,-0.0195312500,16.0522460938,3.5247802734,27.7404785156
0.2101130486,-0.7539062500,0.2421875000,-0.0195312500,15.4266357422,3.5247802734,27.7404785156
0.2126839161,-0.7539062500,0.2421875000,-0.0195312500,15.4266357422,3.5247802734,27.1759033203
0.2152578831,-0.7539062500,0.3671875000,-0.0239257812,13.9160156250,3.8452148438,27.1759033203
0.2178509235,-0.7617187500,0.2500000000,-0.0239257812,13.9160156250,3.8452148438,27.1759033203
0.2204189301,-0.7617187500,0.2500000000,-0.0239257812,12.1917724609,3.5858154297,26.9012451172
0.2229938507,-0.7617187500,0.2500000000,-0.0239257812,12.1917724609,3.5858154297,26.9012451172
0.2255618572,-0.7617187500,0.2392578125,-0.0200195312,10.9405517578,3.1585693359,27.0843505859
0.2283070087,-0.7524414062,0.2392578125,-0.0200195312,10.9405517578,3.1585693359,27.0843505859
0.2308828831,-0.7524414062,0.2392578125,-0.0200195312,10.5590820312,2.8839111328,27.1759033203
0.2334549427,-0.7524414062,0.2392578125,-0.0200195312,10.5590820312,2.8839111328,27.1759033203
0.2360279560,-0.7465820312,0.2358398438,-0.0219726562,10.4370117188,2.9907226562,27.1301269531
0.2388100624,-0.7465820312,0.2358398438,-0.0219726562,10.4370117188,2.9907226562,27.1301269531
0.2413849831,-0.7465820312,0.2358398438,-0.0219726562,9.9334716797,3.3416748047,26.9012451172
0.2440769672,-0.7465820312,0.2358398438,-0.0219726562,9.9334716797,3.3416748047,26.9012451172
0.2466399670,-0.7451171875,0.2451171875,-0.0258789062,9.8571777344,3.4942626953,26.9317626953
0.2493009567,-0.7451171875,0.2451171875,-0.0258789062,9.8571777344,3.4942626953,26.9317626953
0.2518730164,-0.7451171875,0.2451171875,-0.0258789062,10.0250244141,3.4332275391,27.5421142578
0.2544450760,-0.7451171875,0.2451171875,-0.0258789062,10.0250244141,3.4332275391,27.5421142578
0.2570240498,-0.7431640625,0.2480468750,-0.0332031250,10.0555419922,3.7078857422,27.9083251953
0.2597010136,-0.7431640625,0.2480468750,-0.0332031250,10.0555419922,3.7078857422,27.9083251953
0.2622749805,-0.7431640625,0.2480468750,-0.0332031250,10.0555419922,4.2724609375,28.2287597656
0.2648439407,-0.7431640625,0.2480468750,-0.0332031250,9.9945068359,4.2724609375,28.2287597656
0.2674050331,-0.7373046875,0.2475585938,-0.0244140625,9.9945068359,4.6691894531,28.7933349609
0.2701070309,-0.7373046875,0.2475585938,-0.0244140625,10.4522705078,4.6691894531,28.7933349609
0.2726800442,-0.7373046875,0.2475585938,-0.0244140625,10.4522705078,4.6691894531,28.5186767578
0.2752449512,-0.7373046875,0.2475585938,-0.0244140625,10.1776123047,4.8522949219,28.5186767578
0.2778520584,-0.7465820312,0.2436523438,-0.0117187500,10.1776123047,4.8522949219,27.8167724609
0.2805669308,-0.7465820312,0.2436523438,-0.0117187500,8.7585449219,5.1727294922,27.8167724609
0.2832529545,-0.7465820312,0.2436523438,-0.0117187500,8.7585449219,5.1727294922,27.1148681641
0.2859439850,-0.7465820312,0.3686523438,-0.0151367188,6.1035156250,5.1879882812,27.1148681641
0.2886469364,-0.7622070312,0.2514648438,-0.0151367188,6.1035156250,5.1879882812,26.8096923828
0.2913520336,-0.7622070312,0.2514648438,-0.0151367188,4.0893554688,5.5541992188,26.8096923828
0.2942969799,-0.7622070312,0.2514648438,-0.0151367188,4.0893554688,5.5541992188,26.9012451172
0.2969930172,-0.7509765625,0.2539062500,-0.0004882812,2.9144287109,5.7830810547,26.9012451172
0.3001198769,-0.7509765625,0.2539062500,-0.0004882812,2.9144287109,5.5847167969,26.9622802734
0.3028230667,-0.7509765625,0.2539062500,-0.0004882812,1.9378662109,5.5847167969,26.9622802734
0.3055329323,-0.7509765625,0.2539062500,0.1245117188,1.9378662109,5.9051513672,26.1535644531
0.3083519936,-0.7597656250,0.2456054688,0.0087890625,0.3204345703,5.9051513672,26.1535644531
0.3110599518,-0.7597656250,0.2456054688,0.0087890625,-3.5858154297,6.4239501953,26.4282226562
0.3137660027,-0.7597656250,0.2456054688,0.0087890625,-2.1057128906,6.4239501953,26.4282226562
0.3164670467,-0.7597656250,0.2592773438,0.0278320312,-6.0119628906,5.6457519531,27.2674560547
0.3192138672,-0.7495117188,0.2592773438,0.0278320312,-3.9367675781,5.6457519531,27.2674560547
0.3219208717,-0.7495117188,0.2592773438,0.0278320312,-3.9367675781,4.9438476562,28.5491943359
0.3246150017,-0.7495117188,0.2592773438,0.0278320312,-4.2114257812,4.9438476562,28.5491943359
0.3273229599,-0.7260742188,0.2802734375,0.0424804688,-4.2114257812,4.7454833984,29.9530029297
0.3299088478,-0.7260742188,0.2802734375,0.0424804688,-3.5552978516,4.7454833984,29.9530029297
0.3324799538,-0.7260742188,0.2802734375,0.0424804688,-3.5552978516,4.7454833984,31.2042236328
0.3350498676,-0.7260742188,0.2802734375,0.0424804688,-2.5939941406,4.2114257812,31.2042236328
0.3376209736,-0.7050781250,0.2875976562,0.0449218750,-2.5939941406,4.2114257812,35.1104736328
0.3401968479,-0.7050781250,0.2875976562,0.0449218750,-0.7781982422,3.1280517578,32.1960449219
0.3427660465,-0.7050781250,0.2875976562,0.0449218750,-0.7781982422,3.1280517578,32.1960449219
0.3453369141,-0.7050781250,0.2875976562,0.0449218750,1.1901855469,1.7242431641,33.5998535156
0.3479568958,-0.7041015625,0.2993164062,0.0673828125,1.1901855469,1.7242431641,33.5998535156
0.3505320549,-0.7041015625,0.2993164062,0.0673828125,3.5095214844,0.6256103516,34.8052978516
0.3531038761,-0.7041015625,0.2993164062,0.0673828125,3.5095214844,0.6256103516,34.8052978516
0.3556809425,-0.7041015625,0.2993164062,0.0673828125,5.4016113281,-0.3356933594,34.6374511719
0.3583710194,-0.7089843750,0.2753906250,0.0458984375,5.4016113281,-0.3356933594,34.6374511719
0.3610758781,-0.7089843750,0.2753906250,0.0458984375,6.9274902344,-1.3427734375,33.5845947266
0.3637809753,-0.7089843750,0.2753906250,0.0458984375,6.9274902344,-1.3427734375,33.5845947266
0.3664810658,-0.7089843750,0.2753906250,0.0410156250,8.6517333984,-2.4261474609,32.2723388672
0.3691499233,-0.6992187500,0.2153320312,0.0410156250,8.6517333984,-2.4261474609,32.2723388672
0.3718218803,-0.6992187500,0.2153320312,0.0410156250,11.7034912109,-3.6163330078,29.7851562500
0.3743970394,-0.6992187500,0.2153320312,0.0410156250,11.7034912109,-3.6163330078,29.7851562500
0.3769779205,-0.6992187500,0.0766601562,0.0214843750,15.8843994141,-4.9896240234,26.2451171875
0.3796780109,-0.6752929688,0.0766601562,0.0214843750,15.8843994141,-4.9896240234,26.2451171875
0.3823750019,-0.6752929688,0.0766601562,0.0214843750,19.7906494141,-6.5307617188,21.7285156250
0.3850798607,-0.6752929688,0.0766601562,0.0214843750,19.7906494141,-6.5307617188,21.7285156250
0.3877968788,-0.6396484375,-0.0380859375,0.0122070312,22.7050781250,-8.0413818359,16.8151855469
0.3905110359,-0.6396484375,-0.0380859375,0.0122070312,22.7050781250,-8.0413818359,16.8151855469
0.3932180405,-0.6396484375,-0.0380859375,0.0122070312,26.1688232422,-9.1400146484,12.5427246094
0.3959209919,-0.6396484375,-0.0380859375,0.0122070312,26.1688232422,-9.1400146484,12.5427246094
0.3986449242,-0.6245117188,0.0063476562,-0.0229492188,29.0527343750,-9.4757080078,9.7656250000
0.4013469219,-0.6245117188,0.0063476562,-0.0229492188,29.0527343750,-9.4757080078,9.7656250000
0.4040489197,-0.6245117188,0.0063476562,-0.0229492188,31.7535400391,-9.9792480469,5.0964355469
0.4067568779,-0.6245117188,0.0063476562,-0.0332031250,31.7535400391,-9.9792480469,5.0964355469
0.4094710350,-0.6362304688,-0.0302734375,-0.0332031250,32.7453613281,-10.5895996094,-0.6561279297
0.4121799469,-0.6362304688,-0.0302734375,-0.0332031250,32.7453613281,-10.5895996094,-0.6561279297
0.4149658680,-0.6362304688,-0.0302734375,-0.0332031250,31.8145751953,-11.3067626953,-6.5002441406
0.4180290699,-0.6479492188,-0.1166992188,-0.0527343750,31.8145751953,-11.3067626953,-6.5002441406
0.4206140041,-0.6479492188,-0.1166992188,-0.0527343750,29.4036865234,-11.9628906250,-11.4440917969
0.4231920242,-0.6479492188,-0.1166992188,-0.0527343750,29.4036865234,-11.9628906250,-11.4440917969
0.4257719517,-0.6479492188,-0.1166992188,-0.0527343750,25.7110595703,-12.7258300781,-16.2506103516
0.4284360409,-0.6450195312,-0.1313476562,-0.0747070312,25.7110595703,-12.7258300781,-16.2506103516
0.4311418533,-0.6450195312,-0.1313476562,-0.0747070312,21.8811035156,-12.9699707031,-20.9655761719
0.4338538647,-0.6450195312,-0.1313476562,-0.0747070312,21.8811035156,-12.9699707031,-20.9655761719
0.4365589619,-0.6450195312,-0.1313476562,-0.0747070312,18.5241699219,-13.1683349609,-25.4669189453
0.4393799305,-0.6386718750,-0.1088867188,-0.0815429688,18.5241699219,-13.1683349609,-25.4669189453
0.4420888424,-0.6386718750,-0.1088867188,-0.0815429688,14.9536132812,-13.1530761719,-29.5867919922
0.4447979927,-0.6386718750,-0.1088867188,-0.0815429688,14.9536132812,-13.1530761719,-29.5867919922
0.4475219250,-0.6386718750,-0.1049804688,-0.1010742188,11.2304687500,-13.6413574219,-33.6914062500
0.4500989914,-0.6328125000,-0.1049804688,-0.1010742188,11.2304687500,-13.6413574219,-33.6914062500
0.4526760578,-0.6328125000,-0.1049804688,-0.1010742188,7.3242187500,-14.0991210938,-38.1469726562
0.4552578926,-0.6328125000,-0.1049804688,-0.1010742188,7.5683593750,-14.0991210938,-38.1469726562
0.4578440189,-0.6328125000,-0.0996093750,-0.1098632812,7.5683593750,-14.0991210938,-42.7551269531
0.4604189396,-0.6420898438,-0.0996093750,-0.1098632812,3.9215087891,-14.3280029297,-42.7551269531
0.4629950523,-0.6420898438,-0.0996093750,-0.1098632812,3.9215087891,-14.3280029297,-47.2564697266
0.4655740261,-0.6420898438,-0.0996093750,-0.1098632812,-0.0457763672,-13.8244628906,-47.2564697266
0.4683179855,-0.6635742188,-0.0981445312,-0.1049804688,-0.0457763672,-13.8244628906,-51.6967773438
0.4708909988,-0.6635742188,-0.0981445312,-0.1049804688,-2.5787353516,-13.1072998047,-51.6967773438
0.4734668732,-0.6635742188,-0.0981445312,-0.1049804688,-2.5787353516,-13.1072998047,-51.6967773438
0.4760508537,-0.6635742188,-0.0981445312,-0.1049804688,-5.0964355469,-13.6871337891,-55.7861328125
0.4787828922,-0.6884765625,-0.0820312500,-0.1064453125,-5.0964355469,-13.6871337891,-55.7861328125
0.4814729691,-0.6884765625,-0.0820312500,-0.1064453125,-7.5683593750,-13.4277343750,-60.1043701172
0.4841659069,-0.6884765625,-0.0820312500,-0.1064453125,-7.5683593750,-13.4277343750,-60.1043701172
0.4868068695,-0.6884765625,-0.0820312500,-0.1064453125,-9.3383789062,-12.6800537109,-63.9801025391
0.4895689487,-0.7001953125,-0.0581054688,-0.1171875000,-9.3383789062,-12.6800537109,-63.9801025391
0.4922399521,-0.7001953125,-0.0581054688,-0.1171875000,-11.9171142578,-11.9628906250,-67.7947998047
0.4951250553,-0.7001953125,-0.0581054688,-0.1171875000,-11.9171142578,-11.9628906250,-67.7947998047
0.4977848530,-0.7001953125,-0.0581054688,-0.1162109375,-13.5040283203,-11.4440917969,-71.3806152344
0.5003619194,-0.7163085938,-0.0332031250,-0.1162109375,-13.5040283203,-11.4440917969,-71.3806152344
0.5030400753,-0.7163085938,-0.0332031250,-0.1162109375,-14.7857666016,-11.0931396484,-74.2187500000
0.5056178570,-0.7163085938,-0.0332031250,-0.1162109375,-14.7857666016,-11.0931396484,-74.2187500000
0.5082290173,-0.7163085938,-0.0107421875,-0.1083984375,-16.7541503906,-9.8266601562,-77.2094726562
0.5108058453,-0.7309570312,-0.0107421875,-0.1083984375,-16.7541503906,-9.8266601562,-77.2094726562
0.5133759975,-0.7309570312,-0.0107421875,-0.1083984375,-18.0358886719,-8.8653564453,-80.2612304688
0.5159480572,-0.7309570312,-0.0107421875,-0.1083984375,-18.0358886719,-8.8653564453,-80.2612304688
0.5185718536,-0.7309570312,0.0185546875,-0.1152343750,-18.4478759766,-8.0871582031,-82.4890136719
0.5211448669,-0.7382812500,0.0185546875,-0.1152343750,-18.4478759766,-8.0871582031,-82.4890136719
0.5237209797,-0.7382812500,0.0185546875,-0.1152343750,-19.0429687500,-7.2021484375,-85.1440429688
0.5262899399,-0.7382812500,0.0185546875,-0.1152343750,-19.0429687500,-7.2021484375,-85.1440429688
0.5288698673,-0.7460937500,0.0112304688,-0.1201171875,-19.0429687500,-6.2866210938,-87.8295898438
0.5314450264,-0.7460937500,0.0112304688,-0.1201171875,-19.3634033203,-6.2866210938,-87.8295898438
0.5340158939,-0.7460937500,0.0112304688,-0.1201171875,-19.3634033203,-6.2866210938,-90.5303955078
0.5365869999,-0.7460937500,0.0112304688,-0.1201171875,-19.2871093750,-6.1035156250,-90.5303955078
0.5392868519,-0.7636718750,-0.0063476562,-0.1147460938,-19.2871093750,-6.1035156250,-92.5903320312
0.5418648720,-0.7636718750,-0.0063476562,-0.1147460938,-20.5078125000,-4.9438476562,-92.5903320312
0.5444419384,-0.7636718750,-0.0063476562,-0.1147460938,-20.5078125000,-4.9438476562,-96.4965820312
0.5470199585,-0.7636718750,-0.0063476562,-0.1147460938,-20.7061767578,-4.5166015625,-95.1690673828
0.5498089790,-0.7641601562,-0.0083007812,-0.1235351562,-20.7061767578,-4.5166015625,-99.0753173828
0.5525200367,-0.7641601562,-0.0083007812,-0.1235351562,-21.0418701172,-3.4942626953,-97.8851318359
0.5552258492,-0.7641601562,-0.0083007812,-0.1235351562,-21.0418701172,-3.4942626953,-97.8851318359
0.5579349995,-0.7641601562,-0.0083007812,-0.2485351562,-22.0184326172,-2.2735595703,-99.9603271484
0.5606420040,-0.7758789062,-0.0102539062,-0.1303710938,-22.0184326172,-2.2735595703,-103.8665771484
0.5633530617,-0.7758789062,-0.0102539062,-0.1303710938,-22.9034423828,-0.9765625000,-102.0660400391
0.5661740303,-0.7758789062,-0.0102539062,-0.1303710938,-22.9034423828,-0.9765625000,-102.0660400391
0.5688300133,-0.7758789062,-0.0068359375,-0.1318359375,-24.7344970703,-0.4425048828,-104.1870117188
0.5714058876,-0.7949218750,-0.0068359375,-0.1318359375,-24.7344970703,-0.4425048828,-104.1870117188
0.5739810467,-0.7949218750,-0.0068359375,-0.1318359375,-26.0925292969,0.2899169922,-106.0943603516
0.5765609741,-0.7949218750,-0.0068359375,-0.1318359375,-26.0925292969,0.2899169922,-106.0943603516
0.5792570114,-0.7968750000,-0.0053710938,-0.1352539062,-26.8249511719,1.2664794922,-108.4136962891
0.5819618702,-0.7968750000,-0.0053710938,-0.1352539062,-26.8249511719,1.2664794922,-108.4136962891
0.5846700668,-0.7968750000,-0.0053710938,-0.1352539062,-27.3895263672,2.4261474609,-111.2518310547
0.5873720646,-0.7968750000,-0.0053710938,-0.1352539062,-27.3895263672,2.4261474609,-111.2518310547
0.5900938511,-0.8154296875,-0.0131835938,-0.1347656250,-28.8391113281,3.1738281250,-113.4185791016
0.5928020477,-0.8154296875,-0.0131835938,-0.1347656250,-28.8391113281,3.1738281250,-113.4185791016
0.5955078602,-0.8154296875,-0.0131835938,-0.1347656250,-30.3344726562,4.2419433594,-115.7836914062
0.5982248783,-0.8154296875,-0.0131835938,-0.0097656250,-30.3344726562,4.2419433594,-115.7836914062
0.6009309292,-0.8354492188,-0.0097656250,-0.1230468750,-31.1584472656,5.5236816406,-117.7978515625
0.6037390232,-0.8354492188,-0.0097656250,-0.1230468750,-31.1584472656,5.5236816406,-117.7978515625
0.6065840721,-0.8354492188,-0.0097656250,-0.1230468750,-32.1044921875,6.7138671875,-119.6594238281
0.6094329357,-0.8354492188,0.0087890625,-0.1098632812,-32.1044921875,6.7138671875,-119.6594238281
0.6121480465,-0.8481445312,0.0087890625,-0.1098632812,-33.0200195312,8.2092285156,-121.2768554688
0.6148588657,-0.8481445312,0.0087890625,-0.1098632812,-33.0200195312,8.2092285156,-121.2768554688
0.6175770760,-0.8481445312,0.0087890625,-0.1098632812,-34.5001220703,9.3231201172,-122.5280761719
0.6201548576,-0.8652343750,0.0390625000,-0.1015625000,-34.5001220703,9.3231201172,-122.5280761719
0.6227319241,-0.8652343750,0.0390625000,-0.1015625000,-35.2630615234,9.9182128906,-122.8485107422
0.6253039837,-0.8652343750,0.0390625000,-0.1015625000,-35.2630615234,9.9182128906,-122.8485107422
0.6279070377,-0.8652343750,0.0390625000,-0.1015625000,-35.8428955078,10.6201171875,-123.1384277344
0.6307330132,-0.8891601562,0.0708007812,-0.0703125000,-35.8428955078,10.6201171875,-123.1384277344
0.6334409714,-0.8891601562,0.0708007812,-0.0703125000,-36.1175537109,11.5051269531,-122.8637695312
0.6361498833,-0.8891601562,0.0708007812,-0.0703125000,-36.1175537109,11.5051269531,-122.8637695312
0.6388130188,-0.8891601562,0.0708007812,-0.0703125000,-36.3311767578,12.0391845703,-122.0855712891
0.6413919926,-0.9086914062,0.0776367188,-0.0590820312,-36.3311767578,12.0391845703,-122.0855712891
0.6439690590,-0.9086914062,0.0776367188,-0.0590820312,-35.9344482422,12.5579833984,-121.7193603516
0.6465458870,-0.9086914062,0.0776367188,-0.0590820312,-35.9344482422,12.5579833984,-121.7193603516
0.6491789818,-0.9086914062,0.0776367188,-0.0532226562,-35.5377197266,13.5803222656,-120.6970214844
0.6523590088,-0.9091796875,0.0781250000,-0.0532226562,-35.5377197266,13.5803222656,-120.6970214844
0.6549420357,-0.9091796875,0.0781250000,-0.0532226562,-35.9954833984,14.3432617188,-119.7814941406
0.6575410366,-0.9091796875,0.0781250000,-0.0532226562,-35.9954833984,14.3432617188,-119.7814941406
0.6602530479,-0.9082031250,0.0600585938,-0.0424804688,-36.3616943359,14.8315429688,-118.9270019531
0.6629588604,-0.9082031250,0.0600585938,-0.0424804688,-36.3616943359,14.8315429688,-118.9270019531
0.6656658649,-0.9082031250,0.0600585938,-0.0424804688,-36.3616943359,15.7165527344,-118.0877685547
0.6683778763,-0.9082031250,0.0600585938,-0.0424804688,-36.3616943359,15.7165527344,-118.0877685547
0.6709549427,-0.8920898438,0.0639648438,-0.0439453125,-35.7818603516,16.9372558594,-116.5466308594
0.6735260487,-0.8920898438,0.0639648438,-0.0439453125,-35.7818603516,16.9372558594,-116.5466308594
0.6761009693,-0.8920898438,0.0639648438,-0.0439453125,-35.0341796875,17.4560546875,-115.6616210938
0.6787450314,-0.8920898438,0.0639648438,-0.0439453125,-35.0341796875,17.4560546875,-115.6616210938
0.6814589500,-0.8857421875,0.0683593750,-0.0439453125,-33.9202880859,18.3715820312,-115.1275634766
0.6841709614,-0.8857421875,0.0683593750,-0.0439453125,-33.9202880859,18.3715820312,-115.1275634766
0.6868829727,-0.8857421875,0.0683593750,-0.0439453125,-32.7148437500,19.2871093750,-114.1510009766
0.6895029545,-0.8857421875,0.0683593750,-0.0205078125,-32.7148437500,19.2871093750,-114.1510009766
0.6920769215,-0.8715820312,0.0874023438,-0.0205078125,-32.7148437500,19.3634033203,-112.7471923828
0.6947720051,-0.8715820312,0.0874023438,-0.0205078125,-31.6467285156,19.3634033203,-112.7471923828
0.6973478794,-0.8715820312,0.0874023438,-0.0205078125,-31.6467285156,19.3176269531,-111.3433837891
0.7000510693,-0.8715820312,0.1044921875,-0.0131835938,-29.6478271484,19.3176269531,-111.3433837891
0.7026250362,-0.8676757812,0.1044921875,-0.0131835938,-29.6478271484,19.3176269531,-110.2294921875
0.7051980495,-0.8676757812,0.1044921875,-0.0131835938,-27.6031494141,19.0429687500,-110.2294921875
0.7079188824,-0.8676757812,0.1044921875,-0.0131835938,-27.6031494141,19.0429687500,-108.5357666016
0.7106308937,-0.8413085938,0.1308593750,0.0000000000,-25.8789062500,18.5699462891,-108.5357666016
0.7133450508,-0.8413085938,0.1308593750,0.0000000000,-25.8789062500,18.5699462891,-107.0098876953
0.7160539627,-0.8413085938,0.1308593750,0.0000000000,-22.5067138672,17.5628662109,-107.0098876953
0.7187478542,-0.8413085938,0.1308593750,0.0000000000,-22.5067138672,17.5628662109,-104.5989990234
0.7213270664,-0.8129882812,0.1411132812,0.0063476562,-19.2108154297,17.3950195312,-104.5989990234
0.7239060402,-0.8129882812,0.1411132812,0.0063476562,-19.2108154297,17.3950195312,-104.5989990234
0.7264850140,-0.8129882812,0.1411132812,0.0063476562,-16.3879394531,17.1051025391,-102.4627685547
0.7291488647,-0.8129882812,0.1411132812,0.0063476562,-16.3879394531,17.1051025391,-102.4627685547
0.7318549156,-0.7905273438,0.1430664062,0.0087890625,-13.3666992188,16.8151855469,-100.3417968750
0.7345619202,-0.7905273438,0.1430664062,0.0087890625,-13.3666992188,16.8151855469,-100.3417968750
0.7372710705,-0.7905273438,0.1430664062,0.0087890625,-10.7421875000,16.2811279297,-98.0224609375
0.7400250435,-0.7905273438,0.1430664062,0.0219726562,-10.7421875000,16.2811279297,-98.0224609375
0.7427289486,-0.7739257812,0.1455078125,0.0219726562,-8.3160400391,15.7165527344,-95.8557128906
0.7454319000,-0.7739257812,0.1455078125,0.0219726562,-8.3160400391,15.7165527344,-95.8557128906
0.7481379509,-0.7739257812,0.1455078125,0.0219726562,-6.6070556641,14.9383544922,-93.4143066406
0.7508449554,-0.7626953125,0.1596679688,0.0249023438,-6.6070556641,14.9383544922,-93.4143066406
0.7535500526,-0.7626953125,0.1596679688,0.0249023438,-4.9133300781,14.2974853516,-90.6677246094
0.7562539577,-0.7626953125,0.1596679688,0.0249023438,-4.9133300781,14.2974853516,-90.6677246094
0.7591109276,-0.7626953125,0.1596679688,0.0249023438,-3.2501220703,13.9923095703,-87.6007080078
0.7618179321,-0.7563476562,0.1879882812,0.0371093750,-3.2501220703,13.9923095703,-87.6007080078
0.7646088600,-0.7563476562,0.1879882812,0.0371093750,-1.1749267578,13.1530761719,-84.6252441406
0.7673158646,-0.7563476562,0.1879882812,0.0371093750,-1.1749267578,13.1530761719,-84.6252441406
0.7699139118,-0.7563476562,0.1879882812,0.0371093750,1.3427734375,11.6119384766,-81.4666748047
0.7724909782,-0.7485351562,0.1997070312,0.0463867188,1.3427734375,11.6119384766,-81.4666748047
0.7750668526,-0.7485351562,0.1997070312,0.0463867188,4.4250488281,10.5743408203,-78.1555175781
0.7778129578,-0.7485351562,0.1997070312,0.0463867188,4.4250488281,10.5743408203,-78.1555175781
0.7805800438,-0.7485351562,0.2021484375,0.0449218750,7.2631835938,9.7045898438,-74.6917724609
0.7837769985,-0.7353515625,0.2021484375,0.0449218750,7.2631835938,9.7045898438,-70.7855224609
0.7864849567,-0.7353515625,0.2021484375,0.0449218750,9.0026855469,8.5906982422,-70.9075927734
0.7891950607,-0.7353515625,0.2021484375,0.0449218750,9.0026855469,8.5906982422,-67.0013427734
0.7923209667,-0.7197265625,0.1918945312,0.0434570312,10.7269287109,7.7209472656,-67.2760009766
0.7955110073,-0.7197265625,0.1918945312,0.0434570312,10.7269287109,7.3089599609,-63.2324218750
0.7982008457,-0.7197265625,0.1918945312,0.0434570312,11.5661621094,7.3089599609,-63.2324218750
0.8007688522,-0.7197265625,0.2104492188,0.0610351562,11.5661621094,7.3089599609,-58.5174560547
0.8033409119,-0.6982421875,0.2104492188,0.0610351562,12.3443603516,6.2103271484,-58.5174560547
0.8059160709,-0.6982421875,0.2104492188,0.0610351562,12.3443603516,6.2103271484,-53.5888671875
0.8084959984,-0.6982421875,0.2104492188,0.0610351562,14.3585205078,5.1422119141,-53.5888671875
0.8110730648,-0.6982421875,0.2446289062,0.0839843750,14.3585205078,5.1422119141,-49.6826171875
0.8136470318,-0.6665039062,0.2446289062,0.0839843750,16.7846679688,3.4790039062,-48.2940673828
0.8162260056,-0.6665039062,0.2446289062,0.0839843750,16.7846679688,3.4790039062,-48.2940673828
0.8188149929,-0.6665039062,0.2446289062,0.0839843750,18.5852050781,2.0294189453,-42.6483154297
0.8213899136,-0.6469726562,0.2656250000,0.1030273438,18.5852050781,2.0294189453,-42.6483154297
0.8240730762,-0.6469726562,0.2656250000,0.1030273438,20.6909179688,0.9155273438,-37.1704101562
0.8266539574,-0.6469726562,0.2656250000,0.1030273438,20.6909179688,0.9155273438,-37.1704101562
0.8294899464,-0.6469726562,0.2656250000,0.1030273438,23.0865478516,-0.5493164062,-31.7535400391
0.8320679665,-0.6333007812,0.2749023438,0.1206054688,23.0865478516,-0.5493164062,-31.7535400391
0.8346469402,-0.6333007812,0.2749023438,0.1206054688,26.1383056641,-1.7852783203,-26.2145996094
0.8372218609,-0.6333007812,0.2749023438,0.1206054688,26.1383056641,-1.7852783203,-26.2145996094
0.8399279118,-0.6333007812,0.2749023438,0.1206054688,29.6936035156,-2.6550292969,-20.5535888672
0.8426308632,-0.6425781250,0.2797851562,0.1298828125,29.6936035156,-2.6550292969,-20.5535888672
0.8453299999,-0.6425781250,0.2797851562,0.1298828125,32.6385498047,-4.2877197266,-14.7399902344
0.8480479717,-0.6425781250,0.2797851562,0.1298828125,32.6385498047,-4.2877197266,-14.7399902344
0.8507549763,-0.6425781250,0.2797851562,0.1357421875,34.9578857422,-6.2561035156,-9.9029541016
0.8534550667,-0.6450195312,0.2636718750,0.1357421875,34.9578857422,-6.2561035156,-9.9029541016
0.8561520576,-0.6450195312,0.2636718750,0.1357421875,37.2009277344,-8.0413818359,-5.0964355469
0.8588068485,-0.6450195312,0.2636718750,0.1357421875,37.2009277344,-8.0413818359,-5.0964355469
0.8613760471,-0.6450195312,0.2622070312,0.1274414062,38.7420654297,-10.1776123047,0.4272460938
0.8639478683,-0.6606445312,0.2622070312,0.1274414062,38.7420654297,-10.1776123047,0.4272460938
0.8665208817,-0.6606445312,0.2622070312,0.1274414062,40.6341552734,-11.8408203125,4.7912597656
0.8691549301,-0.6606445312,0.2622070312,0.1274414062,40.6341552734,-11.8408203125,4.7912597656
0.8717269897,-0.6606445312,0.2504882812,0.1147460938,40.6341552734,-13.3056640625,9.8266601562
0.8743009567,-0.6616210938,0.2504882812,0.1147460938,41.9006347656,-13.3056640625,9.8266601562
0.8768730164,-0.6616210938,0.2504882812,0.1147460938,41.9006347656,-13.3056640625,14.9688720703
0.8794949055,-0.6616210938,0.2504882812,0.1147460938,41.6107177734,-14.7399902344,14.9688720703
0.8820769787,-0.6572265625,0.2573242188,0.0996093750,41.6107177734,-14.7399902344,19.3176269531
0.8846559525,-0.6572265625,0.2573242188,0.0996093750,41.2139892578,-15.5792236328,19.3176269531
0.8873400688,-0.6572265625,0.2573242188,0.0996093750,41.2139892578,-15.5792236328,23.9562988281
0.8902149200,-0.6572265625,0.2573242188,0.0996093750,41.0461425781,-16.5405273438,23.9562988281
0.8927948475,-0.6523437500,0.2783203125,0.0937500000,41.0461425781,-16.5405273438,27.8625488281
0.8953709602,-0.6523437500,0.2783203125,0.0937500000,41.4733886719,-17.3645019531,29.1900634766
0.8981430531,-0.6523437500,0.2783203125,0.0937500000,41.4733886719,-17.3645019531,33.0963134766
0.9008228779,-0.6523437500,0.2783203125,0.0937500000,41.3055419922,-17.9901123047,34.0270996094
0.9035990238,-0.6406250000,0.2700195312,0.0917968750,41.3055419922,-17.9901123047,37.9333496094
0.9061930180,-0.6406250000,0.2700195312,0.0917968750,40.6188964844,-18.7835693359,38.1774902344
0.9088149071,-0.6406250000,0.2700195312,0.0917968750,40.6188964844,-18.7835693359,38.1774902344
0.9114000797,-0.6406250000,0.2700195312,0.0888671875,39.1693115234,-19.1955566406,43.3959960938
0.9139709473,-0.6425781250,0.2680664062,0.0888671875,39.1693115234,-19.1955566406,43.3959960938
0.9165430069,-0.6425781250,0.2680664062,0.0888671875,35.2172851562,-19.1802978516,48.2025146484
0.9191730022,-0.6425781250,0.2680664062,0.0888671875,35.2172851562,-19.1802978516,48.2025146484
0.9217469692,-0.6425781250,0.2680664062,0.0839843750,31.5399169922,-19.2260742188,53.3752441406
0.9243259430,-0.6718750000,0.2680664062,0.0839843750,31.5399169922,-19.2260742188,53.3752441406
0.9268999100,-0.6718750000,0.2680664062,0.0839843750,27.6947021484,-20.7061767578,55.0994873047
0.9295258522,-0.6718750000,0.2680664062,0.0839843750,27.6947021484,-20.7061767578,55.0994873047
0.9321038723,-0.6718750000,-0.1362304688,0.0766601562,24.6582031250,-21.7437744141,47.6531982422
0.9346780777,-0.7958984375,-0.1362304688,0.0766601562,24.6582031250,-21.7437744141,47.6531982422
0.9372508526,-0.7958984375,-0.1362304688,0.0766601562,18.4326171875,-12.7716064453,45.5627441406
0.9398689270,-0.7958984375,-0.1362304688,0.0766601562,18.4326171875,-12.7716064453,45.5627441406
0.9424419403,-0.7958984375,-0.6958007812,-0.1796875000,18.4326171875,-7.1563720703,44.5098876953
0.9450159073,-0.8608398438,-0.6958007812,-0.1796875000,10.7574462891,-7.1563720703,44.5098876953
0.9476630688,-0.8608398438,-0.6958007812,-0.1796875000,10.7574462891,-7.1563720703,40.5883789062
0.9503560066,-0.8608398438,-0.6958007812,-0.1796875000,-6.0119628906,-6.8511962891,40.5883789062
0.9529340267,-0.8784179688,-0.9282226562,-0.2187500000,-6.0119628906,-6.8511962891,38.6047363281
0.9555010796,-0.8784179688,-0.9282226562,-0.2187500000,-22.5372314453,-3.3416748047,38.6047363281
0.9581990242,-0.8784179688,-0.9282226562,-0.2187500000,-22.5372314453,-3.3416748047,39.7796630859
0.9607789516,-0.8784179688,-0.9282226562,-0.2187500000,-34.6374511719,-1.5258789062,39.7796630859
0.9633529186,-0.9121093750,-0.4824218750,-0.1333007812,-34.6374511719,-1.5258789062,39.7796630859
0.9659280777,-0.9121093750,-0.4824218750,-0.1333007812,-51.6204833984,-1.3885498047,46.3409423828
0.9686028957,-0.9121093750,-0.4824218750,-0.1333007812,-51.6204833984,-1.3885498047,46.3409423828
0.9713158607,-0.9121093750,-0.4824218750,-0.1333007812,-67.7337646484,-1.4343261719,54.7485351562
0.9740228653,-0.9077148438,-0.0092773438,-0.0664062500,-67.7337646484,-1.4343261719,54.7485351562
0.9767289162,-0.9077148438,-0.0092773438,-0.0664062500,-72.8607177734,-0.4425048828,62.7136230469
0.9794499874,-0.9077148438,-0.0092773438,-0.0664062500,-72.8607177734,-0.4425048828,62.7136230469
0.9821619987,-0.9077148438,0.2407226562,-0.0673828125,-70.9075927734,0.2136230469,68.3288574219
0.9848649502,-0.9213867188,0.2148437500,-0.0673828125,-70.9075927734,0.2136230469,68.3288574219
0.9875888824,-0.9213867188,0.2148437500,-0.0673828125,-67.6727294922,-1.2969970703,72.0977783203
0.9902980328,-0.9213867188,0.2148437500,-0.0673828125,-67.6727294922,-1.2969970703,72.0977783203
0.9930050373,-0.8862304688,0.1865234375,-0.0361328125,-63.9648437500,-4.7302246094,74.3255615234
0.9957098961,-0.8862304688,0.1865234375,-0.0361328125,-63.9648437500,-4.7302246094,74.3255615234
0.9984319210,-0.8862304688,0.1865234375,-0.0361328125,-55.7098388672,-7.7514648438,74.2950439453
1.0011398792,-0.8862304688,0.1865234375,-0.0361328125,-55.7098388672,-7.7514648438,74.2950439453
1.0038430691,-0.8769531250,0.1206054688,-0.0356445312,-42.3889160156,-10.0402832031,73.0895996094
1.0065510273,-0.8769531250,0.1206054688,-0.0356445312,-42.3889160156,-10.0402832031,73.0895996094
1.0091998577,-0.8769531250,0.1206054688,-0.0356445312,-28.5797119141,-11.8713378906,71.2127685547
1.0117800236,-0.8769531250,0.1206054688,-0.0356445312,-28.5797119141,-11.8713378906,71.2127685547
1.0146188736,-0.8266601562,0.1162109375,-0.0688476562,-18.7683105469,-13.8854980469,68.9697265625
1.0171968937,-0.8266601562,0.1162109375,-0.0688476562,-18.7683105469,-13.8854980469,68.9697265625
1.0198919773,-0.8266601562,0.1162109375,-0.0688476562,-12.5885009766,-17.3797607422,67.3217773438
1.0225908756,-0.8266601562,0.1162109375,-0.0581054688,-12.5885009766,-17.3797607422,67.3217773438
1.0252850056,-0.7592773438,0.0908203125,-0.0581054688,-8.4686279297,-20.6146240234,64.7735595703
1.0280120373,-0.7592773438,0.0908203125,-0.0581054688,-8.4686279297,-20.6146240234,64.7735595703
1.0307040215,-0.7592773438,0.0908203125,-0.0581054688,-5.4931640625,-21.9268798828,62.8509521484
1.0333869457,-0.7324218750,0.1108398438,-0.0932617188,-5.4931640625,-21.9268798828,62.8509521484
1.0360779762,-0.7324218750,0.1108398438,-0.0932617188,-3.9520263672,-22.0031738281,60.8825683594
1.0388660431,-0.7324218750,0.1108398438,-0.0932617188,-3.9520263672,-22.0031738281,60.8825683594
1.0415329933,-0.7324218750,0.1108398438,-0.0932617188,-3.3416748047,-22.3999023438,59.2803955078
1.0442059040,-0.7377929688,0.0830078125,-0.1289062500,-3.3416748047,-22.3999023438,59.2803955078
1.0468728542,-0.7377929688,0.0830078125,-0.1289062500,-3.4484863281,-23.2238769531,57.1746826172
1.0495228767,-0.7377929688,0.0830078125,-0.1289062500,-3.4484863281,-23.2238769531,57.1746826172
1.0521008968,-0.7377929688,0.0830078125,-0.1289062500,-3.8146972656,-22.8881835938,54.9621582031
1.0546760559,-0.7387695312,0.0092773438,-0.1323242188,-3.8146972656,-22.8881835938,54.9621582031
1.0572540760,-0.7387695312,0.0092773438,-0.1323242188,-5.6762695312,-23.5137939453,52.3071289062
1.0598490238,-0.7387695312,0.0092773438,-0.1323242188,-5.6762695312,-23.5137939453,52.3071289062
1.0624229908,-0.7387695312,0.0092773438,-0.1323242188,-9.8266601562,-24.4293212891,50.7659912109
1.0649950504,-0.7050781250,-0.0175781250,-0.0517578125,-9.8266601562,-24.4293212891,50.7659912109
1.0676369667,-0.7050781250,-0.0175781250,-0.0517578125,-9.8266601562,-25.7263183594,49.7589111328
1.0703229904,-0.7050781250,-0.0175781250,-0.0517578125,-14.0380859375,-25.7263183594,49.7589111328
1.0728979111,-0.7050781250,-0.0175781250,0.0170898438,-14.0380859375,-25.7263183594,48.6297607422
1.0754730701,-0.6918945312,0.0273437500,0.0170898438,-17.1051025391,-25.7568359375,48.6297607422
1.0781910419,-0.6918945312,0.0273437500,0.0170898438,-17.1051025391,-25.7568359375,47.8363037109
1.0809009075,-0.6918945312,0.0273437500,0.0170898438,-18.7072753906,-25.7568359375,47.8363037109
1.0836119652,-0.6918945312,0.0639648438,0.0366210938,-18.7072753906,-25.7568359375,46.2341308594
1.0863170624,-0.7080078125,0.0639648438,0.0366210938,-20.5993652344,-25.1770019531,46.2341308594
1.0890350342,-0.7080078125,0.0639648438,0.0366210938,-20.5993652344,-25.1770019531,43.9910888672
1.0917420387,-0.7080078125,0.0639648438,0.0366210938,-21.5301513672,-24.2309570312,43.9910888672
1.0946178436,-0.7485351562,0.0869140625,0.0522460938,-21.5301513672,-24.2309570312,42.6635742188
1.0971980095,-0.7485351562,0.0869140625,0.0522460938,-22.1557617188,-23.6206054688,42.6635742188
1.0998959541,-0.7485351562,0.0869140625,0.0522460938,-22.1557617188,-23.6206054688,41.3055419922
1.1024780273,-0.7485351562,0.0869140625,0.0522460938,-23.0102539062,-24.1088867188,41.3055419922
1.1051709652,-0.7846679688,0.1264648438,0.1254882812,-23.0102539062,-24.1088867188,40.9851074219
1.1080348492,-0.7846679688,0.1264648438,0.1254882812,-23.3154296875,-24.7344970703,40.9851074219
1.1107459068,-0.7846679688,0.1264648438,0.1254882812,-23.3154296875,-24.7344970703,40.7562255859
1.1134560108,-0.7846679688,0.1264648438,0.1284179688,-21.8200683594,-24.8870849609,40.7562255859
1.1161689758,-0.8095703125,0.1733398438,0.1284179688,-21.8200683594,-24.8870849609,39.4744873047
1.1188929081,-0.8095703125,0.1733398438,0.1284179688,-16.7541503906,-23.8494873047,39.4744873047
1.1216030121,-0.8095703125,0.1733398438,0.1284179688,-16.7541503906,-23.8494873047,37.9180908203
1.1243100166,-0.8037109375,0.1469726562,0.0766601562,-10.9558105469,-23.3459472656,37.9180908203
1.1270170212,-0.8037109375,0.1469726562,0.0766601562,-10.9558105469,-23.3459472656,36.5142822266
1.1297318935,-0.8037109375,0.1469726562,0.0766601562,-6.3781738281,-22.9492187500,36.5142822266
1.1324439049,-0.8037109375,0.1469726562,0.0766601562,-6.3781738281,-22.9492187500,34.6984863281
1.1351499557,-0.7568359375,0.0878906250,0.0585937500,-2.5787353516,-22.9644775391,34.6984863281
1.1378669739,-0.7568359375,0.0878906250,0.0585937500,-2.5787353516,-22.9644775391,32.7453613281
1.1404318810,-0.7568359375,0.0878906250,0.0585937500,0.7324218750,-23.0102539062,32.7453613281
1.1430099010,-0.7568359375,0.0878906250,0.0585937500,0.7324218750,-23.0102539062,30.7769775391
1.1460480690,-0.7333984375,0.1035156250,0.0678710938,3.6926269531,-22.9492187500,30.7769775391
1.1486320496,-0.7333984375,0.1035156250,0.0678710938,3.6926269531,-22.9492187500,30.7769775391
1.1512179375,-0.7333984375,0.1035156250,0.0678710938,7.8582763672,-22.5524902344,28.8848876953
1.1537959576,-0.7333984375,0.1035156250,0.0541992188,7.8582763672,-22.5524902344,28.8848876953
1.1563708782,-0.7397460938,0.1083984375,0.0541992188,10.5743408203,-22.2015380859,27.7709960938
1.1591038704,-0.7397460938,0.1083984375,0.0541992188,10.5743408203,-22.2015380859,27.7709960938
1.1616790295,-0.7397460938,0.1083984375,0.0541992188,11.5203857422,-21.4385986328,27.6489257812
1.1642589569,-0.7397460938,0.0776367188,0.0322265625,11.5203857422,-21.4385986328,27.6489257812
1.1668429375,-0.7504882812,0.0776367188,0.0322265625,11.8408203125,-21.3012695312,26.8859863281
1.1696209908,-0.7504882812,0.0776367188,0.0322265625,11.8408203125,-21.3012695312,26.8859863281
1.1723439693,-0.7504882812,0.0776367188,0.0322265625,11.1999511719,-21.5301513672,27.0233154297
1.1750550270,-0.7387695312,0.0581054688,0.0087890625,11.1999511719,-21.5301513672,27.0233154297
1.1778030396,-0.7387695312,0.0581054688,0.0087890625,9.0637207031,-22.0031738281,26.9470214844
1.1805129051,-0.7387695312,0.0581054688,0.0087890625,9.0637207031,-22.0031738281,26.9470214844
1.1832239628,-0.7387695312,0.0581054688,0.0087890625,5.9509277344,-22.3999023438,27.1759033203
1.1859359741,-0.7358398438,0.0834960938,0.0244140625,5.9509277344,-22.3999023438,27.1759033203
1.1886548996,-0.7358398438,0.0834960938,0.0244140625,3.1585693359,-22.3388671875,27.6336669922
1.1913578510,-0.7358398438,0.0834960938,0.0244140625,3.1585693359,-22.3388671875,27.6336669922
1.1942160130,-0.7358398438,0.0834960938,0.0341796875,0.9460449219,-22.2625732422,27.6794433594
1.1967890263,-0.7377929688,0.0747070312,0.0341796875,0.9460449219,-22.2625732422,27.6794433594
1.1994590759,-0.7377929688,0.0747070312,0.0341796875,0.2136230469,-22.1405029297,27.3590087891
1.2020339966,-0.7377929688,0.0747070312,0.0341796875,0.2136230469,-22.1405029297,27.3590087891
1.2054948807,-0.7460937500,0.0600585938,0.0346679688,-0.6713867188,-21.8353271484,26.8402099609
1.2082049847,-0.7460937500,0.0600585938,0.0346679688,-0.6713867188,-21.8353271484,26.8402099609
1.2108850479,-0.7460937500,0.0600585938,0.0346679688,-0.6713867188,-21.5148925781,26.5960693359
1.2134568691,-0.7460937500,0.0600585938,0.0346679688,-0.6713867188,-21.5148925781,26.5960693359
1.2160270214,-0.7290039062,0.0854492188,0.0415039062,0.9002685547,-21.9879150391,26.0162353516
1.2186119556,-0.7290039062,0.0854492188,0.0415039062,0.9002685547,-21.9879150391,26.0162353516
1.2211799622,-0.7290039062,0.0854492188,0.0415039062,3.1738281250,-22.7050781250,24.9328613281
1.2237520218,-0.7290039062,0.0854492188,0.0415039062,3.1738281250,-22.7050781250,24.9328613281
1.2263228893,-0.7324218750,0.1074218750,0.0537109375,8.7738037109,-23.0712890625,23.9257812500
1.2289400101,-0.7324218750,0.1074218750,0.0537109375,8.7738037109,-23.0712890625,23.9257812500
1.2315099239,-0.7324218750,0.1074218750,0.0537109375,15.7623291016,-22.2930908203,23.4069824219
1.2340860367,-0.7324218750,0.1074218750,0.0537109375,15.7623291016,-22.2930908203,23.4069824219
1.2366609573,-0.7490234375,0.0737304688,0.0439453125,21.0876464844,-22.1557617188,21.6979980469
1.2392439842,-0.7490234375,0.0737304688,0.0439453125,21.0876464844,-22.1557617188,21.6979980469
1.2418160439,-0.7490234375,0.0737304688,0.0439453125,21.0876464844,-22.2167968750,21.1791992188
1.2443890572,-0.7490234375,0.0737304688,0.0478515625,23.8189697266,-22.2167968750,21.1791992188
1.2469599247,-0.7441406250,0.0649414062,0.0478515625,23.8189697266,-22.2167968750,21.3317871094
1.2496759892,-0.7441406250,0.0649414062,0.0478515625,25.6958007812,-21.9879150391,21.3317871094
1.2522459030,-0.7441406250,0.0649414062,0.0478515625,25.6958007812,-21.9879150391,21.5911865234
1.2548189163,-0.7441406250,0.0649414062,0.0639648438,27.6641845703,-21.2402343750,21.5911865234
1.2573928833,-0.7504882812,0.0688476562,0.0639648438,27.6641845703,-21.2402343750,21.5911865234
1.2600769997,-0.7504882812,0.0688476562,0.0639648438,28.9764404297,-20.1110839844,21.4080810547
1.2626440525,-0.7504882812,0.0688476562,0.0639648438,28.9764404297,-20.1110839844,21.4080810547
1.2652149200,-0.6254882812,0.0434570312,0.0844726562,30.3344726562,-19.0887451172,22.8729248047
1.2678458691,-0.7500000000,0.0434570312,0.0844726562,30.3344726562,-19.0887451172,22.8729248047
1.2704210281,-0.7500000000,0.0434570312,0.0844726562,30.8685302734,-18.2037353516,24.2004394531
1.2730989456,-0.7500000000,0.0434570312,0.0844726562,30.8685302734,-18.2037353516,24.2004394531
1.2756679058,-0.7539062500,0.0283203125,0.0683593750,29.3273925781,-17.2729492188,24.0325927734
1.2782840729,-0.7539062500,0.0283203125,0.0683593750,29.3273925781,-17.2729492188,24.0325927734
1.2809760571,-0.7539062500,0.0283203125,0.0683593750,26.5655517578,-16.8304443359,23.6968994141
1.2836699486,-0.7539062500,0.0283203125,0.0683593750,26.5655517578,-16.8304443359,23.6968994141
1.2863609791,-0.7348632812,0.0971679688,0.0688476562,22.4609375000,-16.0675048828,23.7121582031
1.2890629768,-0.7348632812,0.0971679688,0.0688476562,22.4609375000,-16.0675048828,23.7121582031
1.2917580605,-0.7348632812,0.0971679688,0.0688476562,19.8669433594,-15.8233642578,24.2004394531
1.2944488525,-0.7348632812,0.0971679688,0.0688476562,19.8669433594,-15.8233642578,24.2004394531
1.2971379757,-0.7124023438,0.1264648438,0.0688476562,18.7377929688,-15.2893066406,23.9105224609
1.2998449802,-0.7124023438,0.1264648438,0.0688476562,18.7377929688,-15.2893066406,23.9105224609
1.3025400639,-0.7124023438,0.1264648438,0.0688476562,16.9372558594,-14.6179199219,23.0865478516
1.3052279949,-0.7124023438,0.0014648438,0.0610351562,16.9372558594,-14.6179199219,23.0865478516
1.3079328537,-0.7265625000,0.1152343750,0.0610351562,15.6402587891,-14.0991210938,22.5372314453
1.3106279373,-0.7265625000,0.1152343750,0.0610351562,15.6402587891,-14.0991210938,22.5372314453
1.3133220673,-0.7265625000,0.1152343750,0.0610351562,15.6555175781,-13.6260986328,21.3623046875
1.3161640167,-0.7373046875,0.1147460938,0.0556640625,15.6555175781,-13.6260986328,21.3623046875
1.3190279007,-0.7373046875,0.1147460938,0.0556640625,16.0369873047,-13.4582519531,20.6298828125
1.3217389584,-0.7373046875,0.1147460938,0.0556640625,16.0369873047,-13.4582519531,20.6298828125
1.3244428635,-0.7373046875,0.1147460938,0.0556640625,16.6473388672,-13.4582519531,20.0500488281
1.3271548748,-0.7265625000,0.1225585938,0.0610351562,16.6473388672,-13.4582519531,20.0500488281
1.3298759460,-0.7265625000,0.1225585938,0.0610351562,16.9067382812,-13.1225585938,18.9666748047
1.3325860500,-0.7265625000,0.1225585938,0.0610351562,16.9067382812,-13.1225585938,18.9666748047
1.3352999687,-0.7265625000,0.1225585938,0.0688476562,16.7236328125,-13.4887695312,17.9901123047
1.3381240368,-0.7246093750,0.1191406250,0.0688476562,16.7236328125,-13.4887695312,17.9901123047
1.3408348560,-0.7246093750,0.1191406250,0.0688476562,16.7083740234,-13.3056640625,17.3950195312
1.3435389996,-0.7246093750,0.1191406250,0.0688476562,16.7083740234,-13.3056640625,17.3950195312
1.3462429047,-0.7104492188,0.1293945312,0.0761718750,16.7083740234,-13.4582519531,16.9219970703
1.3489198685,-0.7104492188,0.1293945312,0.0761718750,16.7083740234,-13.4582519531,16.9219970703
1.3515009880,-0.7104492188,0.1293945312,0.0761718750,16.9830322266,-13.5955810547,16.6625976562
1.3540768623,-0.7104492188,0.1293945312,0.0761718750,16.9830322266,-13.5955810547,16.6625976562
1.3566529751,-0.7094726562,0.1054687500,0.0761718750,17.4255371094,-13.0004882812,16.2658691406
1.3592419624,-0.7094726562,0.1054687500,0.0761718750,17.4255371094,-13.0004882812,16.2658691406
1.3618240356,-0.7094726562,0.1054687500,0.0761718750,16.7846679688,-12.5427246094,16.1743164062
1.3644008636,-0.7094726562,0.1054687500,0.0761718750,16.7846679688,-12.5427246094,16.1743164062
1.3669729233,-0.7270507812,0.1054687500,0.0717773438,16.7846679688,-12.1765136719,15.8538818359
1.3696489334,-0.7270507812,0.1054687500,0.0717773438,15.7623291016,-12.1765136719,15.8538818359
1.3722259998,-0.7270507812,0.1054687500,0.0717773438,15.7623291016,-8.2702636719,16.2200927734
1.3747980595,-0.7270507812,0.1054687500,0.0717773438,14.6484375000,-11.4746093750,16.2200927734
1.3773748875,-0.7255859375,0.1132812500,0.0766601562,14.6484375000,-11.4746093750,15.9454345703
1.3802330494,-0.7255859375,0.1132812500,0.0766601562,13.6718750000,-11.1083984375,15.9454345703
1.3829410076,-0.7255859375,0.1132812500,0.0766601562,13.6718750000,-11.1083984375,16.1590576172
1.3856499195,-0.7255859375,0.1132812500,0.0864257812,11.8713378906,-10.6658935547,16.1590576172
1.3884019852,-0.7319335938,0.1074218750,0.0864257812,11.8713378906,-10.6658935547,16.6778564453
1.3911099434,-0.7319335938,0.1074218750,0.0864257812,10.5895996094,-10.3302001953,16.6778564453
1.3938169479,-0.7319335938,0.1074218750,0.0864257812,10.5895996094,-10.3302001953,17.3034667969
1.3965158463,-0.7319335938,0.1010742188,0.0932617188,10.0860595703,-10.3149414062,17.3034667969
1.3991639614,-0.7128906250,0.1010742188,0.0932617188,10.0860595703,-10.3149414062,18.1274414062
1.4018480778,-0.7128906250,0.1010742188,0.0932617188,9.9487304688,-9.8724365234,18.1274414062
1.4044220448,-0.7128906250,0.1010742188,0.0932617188,9.9487304688,-9.8724365234,18.1274414062
1.4069938660,-0.7177734375,0.1108398438,0.0976562500,8.7585449219,-9.3841552734,18.6462402344
1.4095740318,-0.7177734375,0.1108398438,0.0976562500,8.7585449219,-9.3841552734,18.6462402344
1.4121420383,-0.7177734375,0.1108398438,0.0976562500,7.7209472656,-9.4146728516,19.1345214844
1.4147109985,-0.7177734375,0.1108398438,0.0976562500,7.7209472656,-9.4146728516,19.1345214844
1.4172809124,-0.7065429688,0.1171875000,0.0839843750,6.8359375000,-8.8653564453,19.4091796875
1.4200360775,-0.7065429688,0.1171875000,0.0839843750,6.8359375000,-8.8653564453,19.4091796875
1.4227359295,-0.7065429688,0.1171875000,0.0839843750,5.8441162109,-8.6975097656,20.2026367188
1.4254410267,-0.7065429688,0.1171875000,0.0839843750,5.8441162109,-8.6975097656,20.2026367188
1.4281878471,-0.7114257812,0.1113281250,0.0791015625,4.7149658203,-8.1939697266,20.5688476562
1.4308910370,-0.7114257812,0.1113281250,0.0791015625,4.7149658203,-8.1939697266,20.5688476562
1.4337918758,-0.7114257812,0.1113281250,0.0791015625,3.5247802734,-7.9345703125,21.1639404297
1.4364829063,-0.7114257812,0.1342773438,0.0888671875,3.5247802734,-7.9345703125,21.1639404297
1.4396388531,-0.6953125000,0.1342773438,0.0888671875,2.3803710938,-7.8887939453,21.8658447266
1.4423439503,-0.6953125000,0.1342773438,0.0888671875,2.3803710938,-7.8887939453,21.8658447266
1.4450440407,-0.6953125000,0.1342773438,0.0888671875,1.7700195312,-7.8277587891,21.5454101562
1.4477829933,-0.7080078125,0.1450195312,0.0791015625,1.7700195312,-7.8277587891,21.5454101562
1.4503519535,-0.7080078125,0.1450195312,0.0791015625,2.0446777344,-7.2937011719,21.3623046875
1.4529218674,-0.7080078125,0.1450195312,0.0791015625,2.0446777344,-7.2937011719,21.3623046875
1.4554920197,-0.7080078125,0.1450195312,0.0791015625,2.6245117188,-7.0495605469,21.3775634766
1.4581060410,-0.7070312500,0.1455078125,0.0727539062,2.6245117188,-7.0495605469,21.3775634766
1.4608108997,-0.7070312500,0.1455078125,0.0727539062,2.5024414062,-6.6070556641,21.4843750000
1.4635069370,-0.7070312500,0.1455078125,0.0727539062,2.5024414062,-6.6070556641,21.4843750000
1.4663178921,-0.7070312500,0.1455078125,0.0786132812,2.6397705078,-7.3852539062,20.9197998047
1.4689629078,-0.7001953125,0.1547851562,0.0786132812,2.6397705078,-7.3852539062,20.9197998047
1.4715280533,-0.7001953125,0.1547851562,0.0786132812,3.0364990234,-7.4768066406,20.5993652344
1.4740939140,-0.7001953125,0.1547851562,0.0786132812,3.0364990234,-7.4768066406,20.5993652344
1.4766619205,-0.7001953125,0.1547851562,0.0673828125,3.4484863281,-6.6833496094,20.7061767578
1.4792358875,-0.6962890625,0.1748046875,0.0673828125,3.4484863281,-6.6833496094,20.7061767578
1.4818048477,-0.6962890625,0.1748046875,0.0673828125,2.6855468750,-5.6610107422,20.2026367188
1.4843759537,-0.6962890625,0.1748046875,0.0673828125,2.6855468750,-5.6610107422,20.2026367188
1.4869399071,-0.6962890625,0.1748046875,0.0478515625,2.0294189453,-4.9896240234,19.5617675781
1.4896659851,-0.7226562500,0.1723632812,0.0478515625,2.0294189453,-4.9896240234,19.5617675781
1.4922358990,-0.7226562500,0.1723632812,0.0478515625,2.0294189453,-4.9896240234,19.7753906250
1.4948060513,-0.7226562500,0.1723632812,0.0478515625,2.0904541016,-4.9896240234,19.7753906250
1.4973790646,-0.7226562500,0.1625976562,0.0556640625,2.0904541016,-4.9896240234,19.5312500000
1.5000839233,-0.7241210938,0.1625976562,0.0556640625,2.6550292969,-5.3558349609,19.5312500000
1.5028150082,-0.7241210938,0.1625976562,0.0556640625,2.6550292969,-5.3558349609,19.7753906250
1.5053870678,-0.7241210938,0.1625976562,0.0556640625,3.1738281250,-5.6610107422,19.7753906250
1.5081548691,-0.7246093750,0.1420898438,0.0717773438,3.1738281250,-5.6610107422,19.7753906250
1.5108258724,-0.7246093750,0.1420898438,0.0717773438,3.7994384766,-6.0272216797,19.7753906250
1.5135779381,-0.7246093750,0.1420898438,0.0717773438,3.7994384766,-6.0272216797,20.3704833984
1.5162749290,-0.7246093750,0.1420898438,0.0717773438,4.3029785156,-6.1950683594,20.3704833984
1.5188429356,-0.7207031250,0.1420898438,0.0708007812,4.3029785156,-6.1950683594,20.9503173828
1.5214109421,-0.7207031250,0.1420898438,0.0708007812,4.2266845703,-6.6223144531,20.9503173828
1.5239799023,-0.7207031250,0.1420898438,0.0708007812,4.2266845703,-6.6223144531,20.9503173828
1.5265419483,-0.7207031250,0.1420898438,0.0708007812,3.9520263672,-6.5460205078,20.8740234375
1.5292680264,-0.7207031250,0.1596679688,0.0708007812,3.9520263672,-6.5460205078,20.8740234375
1.5318360329,-0.7207031250,0.1596679688,0.0708007812,3.5858154297,-6.5307617188,20.4772949219
1.5343990326,-0.7207031250,0.1596679688,0.0708007812,3.5858154297,-6.5307617188,20.4772949219
1.5369720459,-0.7207031250,0.1596679688,0.0878906250,3.4332275391,-6.4086914062,20.1416015625
1.5395410061,-0.7114257812,0.1708984375,0.0878906250,3.4332275391,-6.4086914062,20.1416015625
1.5421090126,-0.7114257812,0.1708984375,0.0878906250,3.8146972656,-6.5460205078,20.5993652344
1.5446839333,-0.7114257812,0.1708984375,0.0878906250,3.8146972656,-6.5460205078,20.5993652344
1.5472500324,-0.7114257812,0.1708984375,0.0878906250,3.8299560547,-6.4849853516,20.8435058594
1.5498209000,-0.7197265625,0.1577148438,0.0878906250,3.8299560547,-6.4849853516,20.8435058594
1.5523889065,-0.7197265625,0.1577148438,0.0878906250,4.3640136719,-6.6375732422,20.5841064453
1.5549490452,-0.7197265625,0.1577148438,0.0878906250,4.3640136719,-6.6375732422,20.5841064453
1.5576429367,-0.7197265625,0.1723632812,0.0976562500,4.3640136719,-6.9580078125,20.1416015625
1.5602109432,-0.7109375000,0.1723632812,0.0976562500,5.7220458984,-6.9580078125,20.1416015625
1.5627770424,-0.7109375000,0.1723632812,0.0976562500,5.7220458984,-6.9580078125,19.6685791016
1.5653479099,-0.7109375000,0.1723632812,0.0976562500,7.2174072266,-7.4920654297,19.6685791016
1.5679359436,-0.7109375000,0.1616210938,0.0878906250,7.2174072266,-7.4920654297,19.5159912109
1.5705049038,-0.7177734375,0.1616210938,0.0878906250,8.8348388672,-7.8887939453,19.5159912109
1.5730779171,-0.7177734375,0.1616210938,0.0878906250,8.8348388672,-7.8887939453,19.5159912109
1.5756418705,-0.7177734375,0.1616210938,0.0878906250,10.4827880859,-7.6141357422,18.8903808594
1.5782568455,-0.7236328125,0.1645507812,0.0922851562,10.4827880859,-7.6141357422,18.8903808594
1.5808219910,-0.7236328125,0.1645507812,0.0922851562,11.9476318359,-7.6446533203,19.5007324219
1.5833868980,-0.7236328125,0.1645507812,0.0922851562,11.9476318359,-7.6446533203,19.5007324219
1.5859580040,-0.7236328125,0.1645507812,0.0922851562,13.7176513672,-7.6446533203,20.0653076172
1.5885798931,-0.7216796875,0.1445312500,0.1005859375,13.7176513672,-7.6446533203,20.0653076172
1.5912718773,-0.7216796875,0.1445312500,0.1005859375,15.1214599609,-7.5836181641,20.3704833984
1.5938520432,-0.7216796875,0.1445312500,0.1005859375,15.1214599609,-7.5836181641,20.3704833984
1.5964238644,-0.7216796875,0.1445312500,0.1005859375,15.2740478516,-7.1868896484,21.3317871094
1.5991010666,-0.7309570312,0.1328125000,0.1083984375,15.2740478516,-7.1868896484,21.3317871094
1.6018068790,-0.7309570312,0.1328125000,0.1083984375,14.7705078125,-7.1105957031,22.4304199219
1.6045150757,-0.7309570312,0.1328125000,0.1083984375,14.7705078125,-7.1105957031,22.4304199219
1.6072280407,-0.7309570312,0.1328125000,0.1083984375,14.6179199219,-7.0953369141,24.0783691406
1.6099369526,-0.7226562500,0.1459960938,0.0854492188,14.6179199219,-7.0953369141,24.0783691406
1.6126449108,-0.7226562500,0.1459960938,0.0854492188,15.3350830078,-7.0800781250,25.0244140625
1.6153500080,-0.7226562500,0.1459960938,0.0854492188,15.3350830078,-7.0800781250,25.0244140625
1.6180670261,-0.7226562500,0.1459960938,0.0981445312,15.7470703125,-6.5155029297,26.7028808594
1.6207790375,-0.7187500000,0.1572265625,0.0981445312,15.7470703125,-6.5155029297,26.7028808594
1.6235280037,-0.7187500000,0.1572265625,0.0981445312,16.1437988281,-5.7830810547,28.4881591797
1.6264090538,-0.7187500000,0.1572265625,0.0981445312,16.1437988281,-5.7830810547,28.4881591797
1.6291949749,-0.7314453125,0.1347656250,0.1010742188,16.3574218750,-5.2642822266,30.8227539062
1.6319010258,-0.7314453125,0.1347656250,0.1010742188,16.3574218750,-5.2642822266,30.8227539062
1.6346089840,-0.7314453125,0.1347656250,0.1010742188,17.7764892578,-5.1116943359,31.9213867188
1.6373150349,-0.7314453125,0.1347656250,0.1010742188,17.7764892578,-5.1116943359,31.9213867188
1.6399080753,-0.7392578125,0.1416015625,0.1025390625,19.3023681641,-5.3558349609,33.3709716797
1.6424880028,-0.7392578125,0.1416015625,0.1025390625,19.3023681641,-5.3558349609,33.3709716797
1.6450600624,-0.7392578125,0.1416015625,0.1025390625,20.4772949219,-4.4708251953,34.9121093750
1.6476368904,-0.7392578125,0.1416015625,0.1025390625,20.4772949219,-4.4708251953,34.9121093750
1.6503469944,-0.7304687500,0.1567382812,0.0952148438,22.3846435547,-4.0435791016,37.4755859375
1.6530480385,-0.7304687500,0.1567382812,0.0952148438,22.3846435547,-4.0435791016,37.4755859375
1.6558668613,-0.7304687500,0.1567382812,0.0952148438,22.6287841797,-3.8146972656,39.0472412109
1.6585659981,-0.7304687500,0.1469726562,0.0937500000,22.6287841797,-3.8146972656,39.0472412109
1.6611380577,-0.7392578125,0.1469726562,0.0937500000,22.6287841797,-3.5552978516,41.0461425781
1.6637148857,-0.7392578125,0.1469726562,0.0937500000,22.8271484375,-3.5552978516,41.0461425781
1.6662838459,-0.7392578125,0.1469726562,0.0937500000,22.8271484375,-3.0212402344,42.7398681641
1.6688630581,-0.7392578125,0.1157226562,0.0991210938,22.2778320312,-3.0212402344,42.7398681641
1.6714429855,-0.7524414062,0.1157226562,0.0991210938,22.2778320312,-3.0212402344,44.5251464844
1.6740159988,-0.7524414062,0.1157226562,0.0991210938,20.4925537109,-3.2196044922,44.5251464844
1.6765980721,-0.7524414062,0.1157226562,0.0991210938,20.4925537109,-3.2196044922,45.7458496094
1.6793038845,-0.7592773438,0.1186523438,0.1186523438,18.8903808594,-2.6855468750,45.7458496094
1.6818759441,-0.7592773438,0.1186523438,0.1186523438,18.8903808594,-2.6855468750,45.7458496094
1.6844539642,-0.7592773438,0.1186523438,0.1186523438,17.6849365234,-2.4261474609,47.2412109375
1.6870229244,-0.7592773438,0.1186523438,0.1186523438,17.6849365234,-2.4261474609,47.2412109375
1.6898200512,-0.7480468750,0.1850585938,0.0864257812,17.0440673828,-1.9989013672,48.0957031250
1.6925349236,-0.7480468750,0.1850585938,0.0864257812,17.0440673828,-1.9989013672,48.0957031250
1.6952359676,-0.7480468750,0.1850585938,0.0864257812,16.8151855469,-1.0986328125,49.1790771484
1.6979470253,-0.7480468750,0.1850585938,0.0864257812,16.8151855469,-1.0986328125,49.1790771484
1.7006480694,-0.7236328125,0.2382812500,0.0927734375,18.1121826172,-0.9460449219,49.6673583984
1.7033569813,-0.7236328125,0.2382812500,0.0927734375,18.1121826172,-0.9460449219,49.6673583984
1.7060630322,-0.7236328125,0.2382812500,0.0927734375,19.6838378906,-0.9002685547,49.1180419922
1.7088160515,-0.7236328125,0.2382812500,0.0864257812,19.6838378906,-0.9002685547,49.1180419922
1.7115218639,-0.7182617188,0.2470703125,0.0864257812,21.3470458984,-0.9765625000,48.3551025391
1.7142288685,-0.7182617188,0.2470703125,0.0864257812,21.3470458984,-0.9765625000,48.3551025391
1.7169320583,-0.7182617188,0.2470703125,0.0864257812,22.6135253906,-1.0833740234,47.9888916016
1.7196519375,-0.7109375000,0.2348632812,0.0800781250,22.6135253906,-1.0833740234,47.9888916016
1.7222268581,-0.7109375000,0.2348632812,0.0800781250,23.2543945312,-1.1596679688,47.9583740234
1.7247979641,-0.7109375000,0.2348632812,0.0800781250,23.2543945312,-1.1596679688,47.9583740234
1.7273778915,-0.7109375000,0.2348632812,0.0800781250,22.6135253906,-0.5340576172,47.3632812500
1.7300410271,-0.7270507812,0.2587890625,0.0976562500,22.6135253906,-0.5340576172,47.3632812500
1.7326149940,-0.7270507812,0.2587890625,0.0976562500,22.7508544922,-0.5187988281,46.9665527344
1.7351958752,-0.7270507812,0.2587890625,0.0976562500,22.7508544922,-0.5187988281,46.9665527344
1.7378270626,-0.7270507812,0.2587890625,0.0976562500,22.8271484375,-1.0223388672,47.0275878906
1.7405200005,-0.7329101562,0.2451171875,0.0903320312,22.8271484375,-1.0223388672,47.0275878906
1.7432088852,-0.7329101562,0.2451171875,0.0903320312,22.2625732422,-0.5798339844,47.4548339844
1.7459919453,-0.7329101562,0.2451171875,0.0903320312,22.2625732422,-0.5798339844,47.4548339844
1.7490210533,-0.7329101562,0.2451171875,0.0844726562,22.1862792969,-0.5645751953,47.9278564453
1.7517318726,-0.7314453125,0.2504882812,0.0844726562,22.1862792969,-0.5645751953,47.9278564453
1.7544479370,-0.7314453125,0.2504882812,0.0844726562,22.4304199219,-0.3051757812,48.6297607422
1.7571499348,-0.7314453125,0.2504882812,0.0844726562,22.4304199219,-0.3051757812,48.6297607422
1.7598679066,-0.7314453125,0.2773437500,0.0893554688,23.3001708984,-0.0610351562,49.1943359375
1.7625739574,-0.7250976562,0.2773437500,0.0893554688,23.3001708984,-0.0610351562,49.1943359375
1.7652769089,-0.7250976562,0.2773437500,0.0893554688,24.2767333984,-0.2593994141,48.8433837891
1.7679998875,-0.7250976562,0.2773437500,0.0893554688,24.2767333984,-0.2593994141,48.8433837891
1.7707078457,-0.7304687500,0.2641601562,0.0712890625,24.5513916016,-0.3051757812,48.9196777344
1.7734110355,-0.7304687500,0.2641601562,0.0712890625,24.5513916016,-0.3051757812,48.9196777344
1.7761259079,-0.7304687500,0.2641601562,0.0712890625,23.8647460938,-0.5187988281,49.0570068359
1.7787840366,-0.7304687500,0.2641601562,0.0712890625,23.8647460938,-0.5187988281,49.0570068359
1.7813549042,-0.7714843750,0.2309570312,0.0585937500,21.8811035156,0.3051757812,49.9420166016
1.7839310169,-0.7714843750,0.2309570312,0.0585937500,21.8811035156,0.3051757812,49.9420166016
1.7866070271,-0.7714843750,0.2309570312,0.0585937500,19.4702148438,0.7171630859,51.0559082031
1.7891888618,-0.7714843750,0.2309570312,0.0585937500,19.4702148438,0.7171630859,51.0559082031
1.7917640209,-0.7563476562,0.2719726562,0.0478515625,19.4702148438,0.7019042969,52.2003173828
1.7943358421,-0.7563476562,0.2719726562,0.0478515625,17.6544189453,0.7019042969,52.2003173828
1.7969110012,-0.7563476562,0.2719726562,0.0478515625,17.6544189453,0.4577636719,52.7343750000
1.7996399403,-0.7563476562,0.2719726562,0.0502929688,18.0358886719,0.4577636719,52.7343750000
1.8022110462,-0.7431640625,0.3046875000,0.0502929688,18.0358886719,0.4577636719,52.8259277344
1.8047900200,-0.7431640625,0.3046875000,0.0502929688,18.7225341797,0.4119873047,52.8259277344
1.8073589802,-0.7431640625,0.3046875000,0.0502929688,18.7225341797,0.4119873047,52.1850585938
1.8101530075,-0.7431640625,0.3222656250,0.0395507812,19.3786621094,0.5798339844,52.1850585938
1.8128509521,-0.7402343750,0.3222656250,0.0395507812,19.3786621094,0.5798339844,51.7425537109
1.8155519962,-0.7402343750,0.3222656250,0.0395507812,20.6604003906,0.7324218750,51.7425537109
1.8182718754,-0.7402343750,0.3222656250,0.0395507812,20.6604003906,0.7324218750,51.5594482422
1.8209688663,-0.7475585938,0.3100585938,0.0546875000,21.3470458984,0.8392333984,51.5594482422
1.8236739635,-0.7475585938,0.3100585938,0.0546875000,21.3470458984,0.8392333984,51.6662597656
1.8263790607,-0.7475585938,0.3100585938,0.0546875000,21.8200683594,0.7934570312,51.6662597656
1.8290240765,-0.7475585938,0.3100585938,0.0546875000,21.8200683594,0.7934570312,51.6662597656
1.8315980434,-0.7451171875,0.3081054688,0.0664062500,22.5982666016,0.9307861328,52.0629882812
1.8341720104,-0.7451171875,0.3081054688,0.0664062500,22.5982666016,0.9307861328,52.0629882812
1.8367440701,-0.7451171875,0.3081054688,0.0664062500,23.4375000000,0.9002685547,52.7038574219
1.8394589424,-0.7451171875,0.3081054688,0.0664062500,23.4375000000,0.9002685547,52.7038574219
1.8421599865,-0.7612304688,0.3032226562,0.0883789062,24.2919921875,0.9460449219,53.0700683594
1.8448629379,-0.7612304688,0.3032226562,0.0883789062,24.2919921875,0.9460449219,53.0700683594
1.8475780487,-0.7612304688,0.3032226562,0.0883789062,25.8636474609,0.8239746094,53.5888671875
1.8503980637,-0.7612304688,0.3056640625,0.0854492188,25.8636474609,0.8239746094,53.5888671875
1.8531110287,-0.7719726562,0.3056640625,0.0854492188,26.6571044922,1.1291503906,54.5043945312
1.8558180332,-0.7719726562,0.3056640625,0.0854492188,26.6571044922,1.1291503906,54.5043945312
1.8585388660,-0.7719726562,0.3056640625,0.0854492188,27.8015136719,1.8310546875,55.8166503906
1.8612480164,-0.7705078125,0.3056640625,0.0737304688,27.8015136719,1.8310546875,55.8166503906
1.8639650345,-0.7705078125,0.3056640625,0.0737304688,29.2968750000,2.1667480469,56.7321777344
1.8666729927,-0.7705078125,0.3056640625,0.0737304688,29.2968750000,2.1667480469,58.3648681641
1.8698170185,-0.7705078125,0.3056640625,0.0737304688,30.0598144531,2.4414062500,58.3648681641
1.8725218773,-0.7954101562,0.2919921875,0.0668945312,30.0598144531,2.4414062500,62.2711181641
1.8752319813,-0.7954101562,0.2919921875,0.0668945312,30.7312011719,3.3264160156,59.9670410156
1.8779230118,-0.7954101562,0.2919921875,0.0668945312,30.7312011719,3.3264160156,59.9670410156
1.8804910183,-0.7954101562,0.2919921875,0.0659179688,31.0974121094,4.3945312500,62.3016357422
1.8830699921,-0.8398437500,0.2763671875,0.0659179688,31.0974121094,4.3945312500,62.3016357422
1.8856449127,-0.8398437500,0.2763671875,0.0659179688,31.1279296875,5.6304931641,64.2395019531
1.8882789612,-0.8398437500,0.2763671875,0.0659179688,31.1279296875,5.6304931641,64.2395019531
1.8909800053,-0.9648437500,0.2480468750,0.0795898438,30.9753417969,6.2713623047,66.2384033203
1.8936810493,-0.8930664062,0.2480468750,0.0795898438,30.9753417969,6.2713623047,66.2384033203
1.8963959217,-0.8930664062,0.2480468750,0.0795898438,30.5175781250,6.7138671875,68.7866210938
1.8990449905,-0.8930664062,0.2480468750,0.0795898438,30.5175781250,6.7138671875,68.7866210938
1.9016170502,-0.9233398438,0.2626953125,0.0810546875,29.6173095703,6.9885253906,71.7773437500
1.9041919708,-0.9233398438,0.2626953125,0.0810546875,29.6173095703,6.9885253906,71.7773437500
1.9067649841,-0.9233398438,0.2626953125,0.0810546875,29.6630859375,6.8511962891,73.7609863281
1.9093859196,-0.9233398438,0.2626953125,0.0810546875,29.6630859375,6.8511962891,73.7609863281
1.9126079082,-0.9472656250,0.2509765625,0.0737304688,30.4412841797,6.1035156250,75.6378173828
1.9152898788,-0.9472656250,0.2509765625,0.0737304688,30.4412841797,6.1035156250,75.6378173828
1.9180300236,-0.9472656250,0.2509765625,0.0737304688,31.4941406250,5.6152343750,77.5451660156
1.9206130505,-0.9472656250,0.2509765625,0.0561523438,31.4941406250,5.6152343750,77.5451660156
1.9231889248,-0.9799804688,0.2514648438,0.0561523438,33.3404541016,5.2490234375,80.2307128906
1.9257569313,-0.9799804688,0.2514648438,0.0561523438,33.3404541016,5.2490234375,80.2307128906
1.9283828735,-0.9799804688,0.2514648438,0.0561523438,35.7208251953,4.4097900391,83.2672119141
1.9309589863,-0.9799804688,0.1264648438,0.0273437500,35.7208251953,4.4097900391,83.2672119141
1.9335269928,-1.0073242188,0.2319335938,0.0273437500,37.5061035156,3.1738281250,86.2884521484
1.9361000061,-1.0073242188,0.2319335938,0.0273437500,37.5061035156,3.1738281250,86.2884521484
1.9386799335,-1.0073242188,0.2319335938,0.0273437500,37.5061035156,1.8615722656,89.4775390625
1.9412510395,-1.0073242188,0.2065429688,0.0009765625,38.5742187500,1.8615722656,89.4775390625
1.9438278675,-1.0385742188,0.2065429688,0.0009765625,38.5742187500,1.8615722656,93.9941406250
1.9463908672,-1.0385742188,0.2065429688,0.0009765625,39.5355224609,0.8087158203,93.9941406250
1.9490108490,-1.0385742188,0.2065429688,0.0009765625,39.5355224609,0.8087158203,98.0072021484
1.9515919685,-1.0385742188,0.1884765625,0.0014648438,41.4581298828,-0.4119873047,98.0072021484
1.9541618824,-1.0708007812,0.1884765625,0.0014648438,41.4581298828,-0.4119873047,98.0072021484
1.9567320347,-1.0708007812,0.1884765625,0.0014648438,43.7622070312,-1.8005371094,100.7385253906
1.9594640732,-1.0708007812,0.1884765625,0.0014648438,43.7622070312,-1.8005371094,100.7385253906
1.9620339870,-1.0732421875,0.1694335938,0.0195312500,46.6156005859,-4.3487548828,103.0426025391
1.9646079540,-1.0732421875,0.1694335938,0.0195312500,46.6156005859,-4.3487548828,103.0426025391
1.9671750069,-1.0732421875,0.1694335938,0.0195312500,49.5452880859,-6.4697265625,105.5908203125
1.9698710442,-1.0732421875,0.1694335938,0.0195312500,49.5452880859,-6.4697265625,105.5908203125
1.9724440575,-1.0976562500,0.1567382812,0.0151367188,51.1322021484,-7.3089599609,107.5744628906
1.9750149250,-1.0976562500,0.1567382812,0.0151367188,51.1322021484,-7.3089599609,107.5744628906
1.9777600765,-1.0976562500,0.1567382812,0.0151367188,52.6885986328,-7.8582763672,109.3902587891
1.9803369045,-1.0976562500,0.1567382812,0.0151367188,52.6885986328,-7.8582763672,109.3902587891
1.9829030037,-1.0991210938,0.1621093750,0.0336914062,55.4351806641,-8.8348388672,110.8856201172
1.9854800701,-1.0991210938,0.1621093750,0.0336914062,55.4351806641,-8.8348388672,110.8856201172
1.9880840778,-1.0991210938,0.1621093750,0.0336914062,57.9376220703,-11.5203857422,111.9079589844
1.9907948971,-1.0991210938,0.1621093750,0.0336914062,57.9376220703,-11.5203857422,111.9079589844
1.9935009480,-1.0771484375,0.1870117188,0.0761718750,61.1267089844,-13.1988525391,113.3422851562
1.9962110519,-1.0771484375,0.1870117188,0.0761718750,61.1267089844,-13.1988525391,113.3422851562
1.9989249706,-1.0771484375,0.1870117188,0.0761718750,61.6760253906,-12.5274658203,112.8234863281
2.0016410351,-1.0771484375,0.1870117188,0.1000976562,61.6760253906,-12.5274658203,112.8234863281
2.0043499470,-1.1098632812,0.1821289062,0.1000976562,56.2896728516,-11.9781494141,111.4501953125
2.0070619583,-1.1098632812,0.1821289062,0.1000976562,56.2896728516,-11.9781494141,111.4501953125
2.0098738670,-1.1098632812,0.1821289062,0.1000976562,52.0782470703,-11.6577148438,111.1755371094
2.0125870705,-1.0698242188,0.1997070312,0.1533203125,52.0782470703,-11.6577148438,111.1755371094
2.0153000355,-1.0698242188,0.1997070312,0.1533203125,53.0548095703,-9.6282958984,111.7095947266
2.0180180073,-1.0698242188,0.1997070312,0.1533203125,53.0548095703,-9.6282958984,111.7095947266
2.0207209587,-1.0698242188,0.1997070312,0.1533203125,53.5736083984,-6.7596435547,112.5030517578
2.0234310627,-1.0361328125,0.2050781250,0.1640625000,53.5736083984,-6.7596435547,112.5030517578
2.0262839794,-1.0361328125,0.2050781250,0.1640625000,52.3681640625,-3.2653808594,111.9079589844
2.0293419361,-1.0361328125,0.2050781250,0.1640625000,52.3681640625,-3.2653808594,111.9079589844
2.0319149494,-1.0361328125,0.2050781250,0.1572265625,50.6744384766,-0.3814697266,111.2518310547
2.0344860554,-0.9619140625,0.2065429688,0.1572265625,50.6744384766,-0.3814697266,111.2518310547
2.0370628834,-0.9619140625,0.2065429688,0.1572265625,52.3529052734,1.4038085938,110.4736328125
2.0397160053,-0.9619140625,0.2065429688,0.1572265625,52.3529052734,1.4038085938,110.4736328125
2.0425028801,-0.9619140625,0.3432617188,0.2041015625,57.4645996094,0.7781982422,111.0687255859
2.0451660156,-0.8876953125,0.3432617188,0.2041015625,57.4645996094,0.7781982422,111.0687255859
2.0478520393,-0.8876953125,0.3432617188,0.2041015625,61.1572265625,-0.7019042969,113.0523681641
2.0505578518,-0.8876953125,0.3432617188,0.2041015625,61.1572265625,-0.7019042969,113.0523681641
2.0532598495,-0.8364257812,0.4062500000,0.2700195312,59.1735839844,-1.6632080078,113.7695312500
2.0559668541,-0.8364257812,0.4062500000,0.2700195312,59.1735839844,-1.6632080078,113.7695312500
2.0586440563,-0.8364257812,0.4062500000,0.2700195312,56.1370849609,-4.0588378906,112.0147705078
2.0612199306,-0.8364257812,0.4062500000,0.2700195312,56.1370849609,-4.0588378906,112.0147705078
2.0637998581,-0.7163085938,0.3217773438,0.3408203125,56.1370849609,-8.2550048828,108.2458496094
2.0663728714,-0.7163085938,0.3217773438,0.3408203125,55.9387207031,-8.2550048828,108.2458496094
2.0689830780,-0.7163085938,0.3217773438,0.3408203125,55.9387207031,-8.2550048828,100.6011962891
2.0715630054,-0.7163085938,0.3217773438,0.3408203125,55.7403564453,-11.3983154297,100.6011962891
2.0741369724,-0.6220703125,0.0825195312,0.3413085938,55.7403564453,-11.3983154297,89.9047851562
2.0767168999,-0.6220703125,0.0825195312,0.3413085938,59.9670410156,-13.4582519531,89.9047851562
2.0794570446,-0.6220703125,0.0825195312,0.3413085938,59.9670410156,-13.4582519531,78.1860351562
2.0820310116,-0.6220703125,0.0825195312,0.3413085938,62.4237060547,-16.2963867188,78.6437988281
2.0846128464,-0.5444335938,-0.0551757812,0.3081054688,62.4237060547,-16.2963867188,78.6437988281
2.0871908665,-0.5444335938,-0.0551757812,0.3081054688,66.0858154297,-19.2871093750,66.3299560547
2.0899779797,-0.5444335938,-0.0551757812,0.3081054688,66.0858154297,-19.2871093750,66.3299560547
2.0926899910,-0.5444335938,-0.1025390625,0.2290039062,74.7985839844,-21.9268798828,53.7261962891
2.0953979492,-0.5234375000,-0.1025390625,0.2290039062,74.7985839844,-21.9268798828,53.7261962891
2.0981180668,-0.5234375000,-0.1025390625,0.2290039062,82.3364257812,-21.6522216797,40.2832031250
2.1008288860,-0.5234375000,-0.1025390625,0.2290039062,82.3364257812,-21.6522216797,40.2832031250
2.1035330296,-0.5112304688,-0.2832031250,0.0878906250,87.1276855469,-19.2565917969,26.1383056641
2.1063590050,-0.5112304688,-0.2832031250,0.0878906250,87.1276855469,-19.2565917969,26.1383056641
2.1090779305,-0.5112304688,-0.2832031250,0.0878906250,92.2698974609,-17.1051025391,13.8397216797
2.1117839813,-0.5112304688,-0.2832031250,0.0878906250,92.2698974609,-17.1051025391,13.8397216797
2.1144938469,-0.4467773438,-0.3022460938,0.0219726562,93.4448242188,-15.9149169922,4.7149658203
2.1171929836,-0.4467773438,-0.3022460938,0.0219726562,93.4448242188,-15.9149169922,4.7149658203
2.1199078560,-0.4467773438,-0.3022460938,0.0219726562,91.3848876953,-15.6250000000,-2.6092529297
2.1226139069,-0.4467773438,-0.3022460938,-0.0122070312,91.3848876953,-15.6250000000,-2.6092529297
2.1253190041,-0.3867187500,-0.2817382812,-0.0122070312,87.4938964844,-14.9383544922,-11.2609863281
2.1280448437,-0.3867187500,-0.2817382812,-0.0122070312,87.4938964844,-14.9383544922,-11.2609863281
2.1307508945,-0.3867187500,-0.2817382812,-0.0122070312,83.2366943359,-14.0838623047,-21.6522216797
2.1334600449,-0.3593750000,-0.1840820312,-0.0405273438,83.2366943359,-14.0838623047,-21.6522216797
2.1361770630,-0.3593750000,-0.1840820312,-0.0405273438,80.4748535156,-12.5122070312,-31.4178466797
2.1389029026,-0.3593750000,-0.1840820312,-0.0405273438,80.4748535156,-12.5122070312,-31.4178466797
2.1416120529,-0.3593750000,-0.1840820312,-0.0405273438,77.4841308594,-10.8184814453,-40.1611328125
2.1444559097,-0.3281250000,-0.0869140625,-0.0532226562,77.4841308594,-10.8184814453,-40.1611328125
2.1471660137,-0.3281250000,-0.0869140625,-0.0532226562,73.3489990234,-9.8876953125,-47.9278564453
2.1498858929,-0.3281250000,-0.0869140625,-0.0532226562,73.3489990234,-9.8876953125,-47.9278564453
2.1525878906,-0.3281250000,-0.0869140625,-0.0532226562,68.2830810547,-9.5367431641,-56.5948486328
2.1552908421,-0.3481445312,-0.0312500000,-0.0708007812,68.2830810547,-9.5367431641,-56.5948486328
2.1580069065,-0.3481445312,-0.0312500000,-0.0708007812,61.7828369141,-8.4838867188,-63.6291503906
2.1607320309,-0.3481445312,-0.0312500000,-0.0708007812,61.7828369141,-8.4838867188,-63.6291503906
2.1637840271,-0.3886718750,-0.0532226562,-0.0683593750,55.3588867188,-8.4838867188,-71.0906982422
2.1664988995,-0.3886718750,-0.0532226562,-0.0683593750,55.3588867188,-8.4838867188,-80.2917480469
2.1692180634,-0.3886718750,-0.0532226562,-0.0683593750,51.8646240234,-8.5906982422,-80.2917480469
2.1720380783,-0.3886718750,-0.0532226562,-0.0683593750,51.8646240234,-8.5906982422,-90.1336669922
2.1747460365,-0.3911132812,-0.1171875000,-0.0883789062,46.0662841797,-8.8653564453,-90.1336669922
2.1774518490,-0.3911132812,-0.1171875000,-0.0883789062,46.0662841797,-8.8653564453,-99.4720458984
2.1800918579,-0.3911132812,-0.1171875000,-0.0883789062,36.8804931641,-10.0402832031,-99.4720458984
2.1826629639,-0.3911132812,-0.1171875000,-0.0883789062,36.8804931641,-10.0402832031,-99.4720458984
2.1852500439,-0.4243164062,-0.1284179688,-0.0947265625,25.8789062500,-10.4980468750,-108.7951660156
2.1878490448,-0.4243164062,-0.1284179688,-0.0947265625,25.8789062500,-10.4980468750,-108.7951660156
2.1904258728,-0.4243164062,-0.1284179688,-0.0947265625,13.4735107422,-10.9558105469,-117.2027587891
2.1930088997,-0.4243164062,-0.1284179688,-0.0947265625,13.4735107422,-10.9558105469,-117.2027587891
2.1955878735,-0.4633789062,-0.0791015625,-0.0820312500,1.3122558594,-10.7116699219,-124.2828369141
2.1982140541,-0.4633789062,-0.0791015625,-0.0820312500,1.3122558594,-10.7116699219,-124.2828369141
2.2007830143,-0.4633789062,-0.0791015625,-0.0820312500,-9.2926025391,-10.5590820312,-130.2642822266
2.2033510208,-0.4633789062,-0.0791015625,-0.0605468750,-9.2926025391,-10.5590820312,-130.2642822266
2.2059268951,-0.4809570312,0.0126953125,-0.0605468750,-18.6462402344,-11.2152099609,-135.8032226562
2.2086939812,-0.4809570312,0.0126953125,-0.0605468750,-18.6462402344,-11.2152099609,-135.8032226562
2.2112660408,-0.4809570312,0.0126953125,-0.0605468750,-27.9235839844,-11.5814208984,-141.0217285156
2.2138450146,-0.4809570312,0.0781250000,-0.0131835938,-27.9235839844,-11.5814208984,-141.0217285156
2.2164230347,-0.5200195312,0.0781250000,-0.0131835938,-37.9486083984,-11.7950439453,-145.7977294922
2.2190909386,-0.5200195312,0.0781250000,-0.0131835938,-37.9486083984,-11.7950439453,-145.7977294922
2.2217829227,-0.5200195312,0.0781250000,-0.0131835938,-49.6673583984,-12.0697021484,-150.4821777344
2.2243568897,-0.5683593750,0.1108398438,0.0058593750,-47.5158691406,-12.0697021484,-150.4821777344
2.2269308567,-0.5683593750,0.1108398438,0.0058593750,-55.3283691406,-12.5427246094,-155.1361083984
2.2296900749,-0.5683593750,0.1108398438,0.0058593750,-56.6406250000,-12.5427246094,-155.1361083984
2.2322669029,-0.5683593750,0.1108398438,0.0058593750,-64.4531250000,-12.3748779297,-159.2407226562
2.2353038788,-0.6289062500,0.1342773438,0.0351562500,-65.3839111328,-12.3748779297,-159.2407226562
2.2378840446,-0.6289062500,0.1342773438,0.0351562500,-65.3839111328,-12.6037597656,-163.6199951172
2.2404620647,-0.6289062500,0.1342773438,0.0351562500,-73.7152099609,-12.6037597656,-163.6199951172
2.2430369854,-0.6289062500,0.1342773438,0.0351562500,-73.7152099609,-12.6037597656,-167.1752929688
2.2456059456,-0.6684570312,0.2089843750,0.0297851562,-79.9865722656,-11.9323730469,-167.1752929688
2.2482559681,-0.6684570312,0.2089843750,0.0297851562,-79.9865722656,-11.9323730469,-170.2575683594
2.2508339882,-0.6684570312,0.2089843750,0.0297851562,-84.0148925781,-12.1002197266,-170.2575683594
2.2534070015,-0.6684570312,0.2089843750,0.0297851562,-84.0148925781,-12.1002197266,-170.2575683594
2.2559819221,-0.7084960938,0.2836914062,0.0341796875,-85.2813720703,-11.4898681641,-174.2858886719
2.2586019039,-0.7084960938,0.2836914062,0.0341796875,-85.2813720703,-11.4898681641,-174.2858886719
2.2611708641,-0.7084960938,0.2836914062,0.0341796875,-84.4879150391,-10.2386474609,-177.7496337891
2.2637488842,-0.7084960938,0.2836914062,0.0341796875,-84.4879150391,-10.2386474609,-177.7496337891
2.2663168907,-0.7514648438,0.3525390625,0.0405273438,-81.9091796875,-8.9721679688,-180.8166503906
2.2689409256,-0.7514648438,0.3525390625,0.0405273438,-81.9091796875,-8.9721679688,-180.8166503906
2.2715060711,-0.7514648438,0.3525390625,0.0405273438,-78.7200927734,-7.7514648438,-183.5174560547
2.2740750313,-0.7514648438,0.3525390625,0.0620117188,-78.7200927734,-7.7514648438,-183.5174560547
2.2766458988,-0.7866210938,0.3710937500,0.0620117188,-75.9735107422,-7.3242187500,-185.9741210938
2.2792899609,-0.7866210938,0.3710937500,0.0620117188,-75.9735107422,-7.3242187500,-185.9741210938
2.2818629742,-0.7866210938,0.3710937500,0.0620117188,-72.4792480469,-6.5155029297,-188.1866455078
2.2844290733,-0.7866210938,0.3813476562,0.0771484375,-72.4792480469,-6.5155029297,-188.1866455078
2.2869989872,-0.8183593750,0.3813476562,0.0771484375,-70.5108642578,-5.3710937500,-189.3920898438
2.2897858620,-0.8183593750,0.3813476562,0.0771484375,-70.5108642578,-5.3710937500,-189.3920898438
2.2924950123,-0.8183593750,0.3813476562,0.0771484375,-66.6046142578,-4.7454833984,-191.0400390625
2.2952039242,-0.8452148438,0.3881835938,0.0976562500,-69.4885253906,-4.7454833984,-191.0400390625
2.2980289459,-0.8452148438,0.3881835938,0.0976562500,-68.6187744141,-4.2877197266,-192.5354003906
2.3007390499,-0.8452148438,0.3881835938,0.0976562500,-68.6187744141,-4.2877197266,-192.5354003906
2.3034410477,-0.8452148438,0.3881835938,0.0976562500,-67.8100585938,-3.7841796875,-193.8171386719
2.3061459064,-0.8466796875,0.4086914062,0.0922851562,-67.8100585938,-3.7841796875,-193.8171386719
2.3088619709,-0.8466796875,0.4086914062,0.0922851562,-66.0858154297,-3.6468505859,-195.2819824219
2.3115739822,-0.8466796875,0.4086914062,0.0922851562,-66.0858154297,-3.6468505859,-195.2819824219
2.3142838478,-0.8466796875,0.4086914062,0.1093750000,-66.0858154297,-3.6163330078,-196.1517333984
2.3169889450,-0.8510742188,0.4155273438,0.1093750000,-64.4073486328,-3.6163330078,-196.1517333984
2.3197090626,-0.8510742188,0.4155273438,0.1093750000,-62.8509521484,-4.1198730469,-196.7926025391
2.3223688602,-0.8510742188,0.4155273438,0.1093750000,-62.8509521484,-4.1198730469,-196.7926025391
2.3249549866,-0.8510742188,0.4062500000,0.1137695312,-62.8509521484,-5.0048828125,-197.6470947266
2.3276660442,-0.8593750000,0.4062500000,0.1137695312,-61.5844726562,-5.0048828125,-197.6470947266
2.3303389549,-0.8593750000,0.4062500000,0.1137695312,-61.5844726562,-5.8746337891,-198.6999511719
2.3335759640,-0.8593750000,0.4062500000,0.1137695312,-60.2416992188,-5.8746337891,-198.6999511719
2.3361549377,-0.8798828125,0.3896484375,0.1240234375,-58.7158203125,-6.7138671875,-199.4323730469
2.3388068676,-0.8798828125,0.3896484375,0.1240234375,-58.7158203125,-6.7138671875,-199.4323730469
2.3413770199,-0.8798828125,0.3896484375,0.1240234375,-58.7158203125,-7.5683593750,-200.3173828125
2.3439400196,-0.8798828125,0.3896484375,0.1240234375,-58.0596923828,-7.5683593750,-200.3173828125
2.3465168476,-0.8964843750,0.3530273438,0.1240234375,-58.0596923828,-11.4746093750,-200.8514404297
2.3491420746,-0.8964843750,0.3530273438,0.1240234375,-58.5327148438,-9.0637207031,-200.8514404297
2.3517110348,-0.8964843750,0.3530273438,0.1240234375,-58.5327148438,-9.0637207031,-200.6225585938
2.3542900085,-0.8964843750,0.3530273438,0.1240234375,-60.6689453125,-10.0097656250,-200.6225585938
2.3568639755,-0.9194335938,0.3325195312,0.1337890625,-60.6689453125,-10.0097656250,-200.6225585938
2.3594460487,-0.9194335938,0.3325195312,0.1337890625,-63.4613037109,-10.8795166016,-201.1871337891
2.3621299267,-0.9194335938,0.3325195312,0.1337890625,-63.4613037109,-10.8795166016,-201.1871337891
2.3647089005,-0.9194335938,0.3325195312,0.1337890625,-66.0095214844,-12.0544433594,-201.6906738281
2.3672859669,-0.9199218750,0.3256835938,0.1347656250,-66.0095214844,-12.0544433594,-201.6906738281
2.3699049950,-0.9199218750,0.3256835938,0.1347656250,-68.2830810547,-13.7329101562,-201.5533447266
2.3724808693,-0.9199218750,0.3256835938,0.1347656250,-68.2830810547,-13.7329101562,-201.5533447266
2.3750638962,-0.9199218750,0.3256835938,0.1171875000,-70.0378417969,-14.9078369141,-201.6906738281
2.3776750565,-0.9204101562,0.3129882812,0.1171875000,-70.0378417969,-14.9078369141,-201.6906738281
2.3802659512,-0.9204101562,0.3129882812,0.1171875000,-72.2961425781,-15.8843994141,-201.5991210938
2.3828449249,-0.9204101562,0.3129882812,0.1171875000,-72.2961425781,-15.8843994141,-201.5991210938
2.3854229450,-0.9204101562,0.3188476562,0.1245117188,-74.0814208984,-16.7388916016,-202.4078369141
2.3881678581,-0.9453125000,0.3188476562,0.1245117188,-74.0814208984,-16.7388916016,-202.4078369141
2.3908829689,-0.9453125000,0.3188476562,0.1245117188,-74.2797851562,-17.2271728516,-203.0639648438
2.3935980797,-0.9453125000,0.3188476562,0.1245117188,-74.2797851562,-17.2271728516,-203.0639648438
2.3963148594,-0.9726562500,0.3085937500,0.1059570312,-74.5697021484,-18.1884765625,-203.5675048828
2.3990359306,-0.9726562500,0.3085937500,0.1059570312,-74.5697021484,-18.1884765625,-203.5675048828
2.4017529488,-0.9726562500,0.3085937500,0.1059570312,-75.7598876953,-18.9361572266,-203.2928466797
2.4044609070,-0.9726562500,0.3085937500,0.1059570312,-75.7598876953,-18.9361572266,-203.2928466797
2.4071669579,-0.9965820312,0.2846679688,0.0917968750,-75.9582519531,-19.3939208984,-203.3691406250
2.4098968506,-0.9965820312,0.2846679688,0.0917968750,-75.9582519531,-19.3939208984,-203.3691406250
2.4126038551,-0.9965820312,0.2846679688,0.0917968750,-77.1179199219,-19.1802978516,-202.9266357422
2.4153199196,-0.9965820312,0.2846679688,0.0795898438,-77.1179199219,-19.1802978516,-202.9266357422
2.4180400372,-1.0146484375,0.2626953125,0.0795898438,-78.2470703125,-18.5394287109,-202.9571533203
2.4207479954,-1.0146484375,0.2626953125,0.0795898438,-78.2470703125,-18.5394287109,-202.9571533203
2.4235739708,-1.0146484375,0.2626953125,0.0795898438,-78.6437988281,-18.1579589844,-203.0639648438
2.4262678623,-1.0454101562,0.2407226562,0.0610351562,-78.6437988281,-18.1579589844,-203.0639648438
2.4289970398,-1.0454101562,0.2407226562,0.0610351562,-80.4901123047,-17.3950195312,-202.0111083984
2.4315760136,-1.0454101562,0.2407226562,0.0610351562,-80.4901123047,-17.3950195312,-202.0111083984
2.4344959259,-1.0454101562,0.2407226562,0.0610351562,-82.9010009766,-17.1051025391,-201.3549804688
2.4370729923,-1.0654296875,0.2270507812,0.0595703125,-82.9010009766,-17.1051025391,-201.3549804688
2.4397358894,-1.0654296875,0.2270507812,0.0595703125,-85.5712890625,-15.6402587891,-200.3784179688
2.4423148632,-1.0654296875,0.2270507812,0.0595703125,-85.5712890625,-15.6402587891,-200.3784179688
2.4448928833,-1.0654296875,0.2270507812,0.0595703125,-89.4775390625,-13.8092041016,-199.1577148438
2.4474589825,-1.0825195312,0.2319335938,0.0468750000,-87.9974365234,-13.8092041016,-199.1577148438
2.4500830173,-1.0825195312,0.2319335938,0.0468750000,-87.9974365234,-9.9029541016,-198.0133056641
2.4526529312,-1.0825195312,0.2319335938,0.0468750000,-89.2181396484,-11.6119384766,-198.0133056641
2.4552259445,-1.0825195312,0.2319335938,0.0468750000,-89.2181396484,-11.6119384766,-195.3887939453
2.4578468800,-1.0883789062,0.2553710938,0.0410156250,-89.8284912109,-10.0097656250,-195.3887939453
2.4604220390,-1.0883789062,0.2553710938,0.0410156250,-89.8284912109,-10.0097656250,-191.4825439453
2.4629950523,-1.0883789062,0.2553710938,0.0410156250,-92.5140380859,-9.4909667969,-191.6503906250
2.4655649662,-1.0883789062,0.2553710938,0.0410156250,-92.5140380859,-9.4909667969,-191.6503906250
2.4681818485,-1.0644531250,0.2998046875,0.0175781250,-90.9271240234,-8.0108642578,-187.4847412109
2.4707539082,-1.0644531250,0.2998046875,0.0175781250,-90.9271240234,-8.0108642578,-187.4847412109
2.4733269215,-1.0644531250,0.2998046875,0.0175781250,-86.0290527344,-3.4332275391,-182.6782226562
2.4758980274,-1.0644531250,0.2998046875,-0.0205078125,-86.0290527344,-3.4332275391,-182.6782226562
2.4785330296,-1.0742187500,0.3266601562,-0.0205078125,-82.2906494141,0.1220703125,-175.7049560547
2.4811148643,-1.0742187500,0.3266601562,-0.0205078125,-82.2906494141,0.1220703125,-175.7049560547
2.4836859703,-1.0742187500,0.3266601562,-0.0205078125,-82.0312500000,1.6632080078,-167.8466796875
2.4862639904,-1.0742187500,0.3266601562,0.0083007812,-82.0312500000,1.6632080078,-167.8466796875
2.4890089035,-1.0400390625,0.3134765625,0.0083007812,-81.6345214844,2.5939941406,-160.5224609375
2.4918289185,-1.0400390625,0.3134765625,0.0083007812,-81.6345214844,2.5939941406,-160.5224609375
2.4945380688,-1.0400390625,0.3134765625,0.0083007812,-80.9020996094,2.9449462891,-153.3203125000
2.4972419739,-0.9804687500,0.4106445312,0.0708007812,-80.9020996094,2.9449462891,-153.3203125000
2.4999520779,-0.9804687500,0.4106445312,0.0708007812,-77.5604248047,2.7618408203,-145.5383300781
2.5026528835,-0.9804687500,0.4106445312,0.0708007812,-77.5604248047,2.7618408203,-145.5383300781
2.5053620338,-0.9804687500,0.4106445312,0.0708007812,-74.7375488281,1.1291503906,-137.1154785156
2.5080819130,-0.8505859375,0.5312500000,0.1396484375,-74.7375488281,1.1291503906,-137.1154785156
2.5107829571,-0.8505859375,0.5312500000,0.1396484375,-71.1669921875,-1.8310546875,-129.2419433594
2.5134830475,-0.8505859375,0.5312500000,0.1396484375,-71.1669921875,-1.8310546875,-129.2419433594
2.5161919594,-0.8505859375,0.5312500000,0.2309570312,-64.1021728516,-6.2408447266,-121.5667724609
2.5188510418,-0.7446289062,0.6542968750,0.2309570312,-64.1021728516,-6.2408447266,-121.5667724609
2.5214269161,-0.7446289062,0.6542968750,0.2309570312,-51.0101318359,-10.9405517578,-112.4877929688
2.5240058899,-0.7446289062,0.6542968750,0.2309570312,-51.0101318359,-10.9405517578,-112.4877929688
2.5265789032,-0.7446289062,0.7792968750,0.2236328125,-31.4788818359,-15.7623291016,-102.2186279297
2.5292580128,-0.6772460938,0.8325195312,0.2236328125,-33.1268310547,-15.7623291016,-102.2186279297
2.5319609642,-0.6772460938,0.8325195312,0.2236328125,-13.5955810547,-20.0805664062,-91.1407470703
2.5346679688,-0.6772460938,0.8325195312,0.2236328125,-13.4887695312,-20.0805664062,-91.1407470703
2.5373718739,-0.6411132812,0.9121093750,0.1430664062,6.0424804688,-23.6663818359,-78.0181884766
2.5400879383,-0.6411132812,0.9121093750,0.1430664062,5.4168701172,-23.6663818359,-78.0181884766
2.5427958965,-0.6411132812,0.9121093750,0.1430664062,24.5208740234,-26.1993408203,-64.2700195312
2.5455999374,-0.6411132812,0.9121093750,0.1430664062,24.5208740234,-26.1993408203,-64.2700195312
2.5484058857,-0.6655273438,0.8598632812,0.0703125000,42.2668457031,-26.8249511719,-50.3692626953
2.5511338711,-0.6655273438,0.8598632812,0.0703125000,42.2668457031,-26.8249511719,-50.3692626953
2.5538408756,-0.6655273438,0.8598632812,0.0703125000,55.1605224609,-25.4058837891,-37.0788574219
2.5566630363,-0.6655273438,0.8598632812,0.0249023438,55.1605224609,-25.4058837891,-37.0788574219
2.5594198704,-0.7519531250,0.7617187500,0.0249023438,63.7664794922,-22.5677490234,-22.6745605469
2.5621259212,-0.7519531250,0.7617187500,0.0249023438,63.7664794922,-22.5677490234,-22.6745605469
2.5648329258,-0.7519531250,0.7617187500,0.0249023438,67.4285888672,-19.0887451172,-8.5906982422
2.5675480366,-0.7705078125,0.6821289062,-0.0317382812,67.4285888672,-19.0887451172,-8.5906982422
2.5701279640,-0.7705078125,0.6821289062,-0.0317382812,67.4285888672,-14.0686035156,4.1809082031
2.5727028847,-0.7705078125,0.6821289062,-0.0317382812,67.5811767578,-14.0686035156,4.1809082031
2.5752758980,-0.7705078125,0.6821289062,-0.0317382812,67.5811767578,-10.1623535156,16.9067382812
2.5778660774,-0.7719726562,0.6166992188,-0.0625000000,64.7583007812,-8.9721679688,16.9067382812
2.5804450512,-0.7719726562,0.6166992188,-0.0625000000,64.7583007812,-8.9721679688,30.3192138672
2.5830159187,-0.7719726562,0.6166992188,-0.0625000000,59.7229003906,-3.8452148438,30.3192138672
2.5855920315,-0.7719726562,0.6166992188,-0.0625000000,59.7229003906,-3.8452148438,45.9442138672
2.5882148743,-0.7597656250,0.5893554688,-0.0781250000,52.9327392578,-0.0762939453,44.2352294922
2.5907900333,-0.7597656250,0.5893554688,-0.0781250000,52.9327392578,-0.0762939453,44.2352294922
2.5933659077,-0.7597656250,0.5893554688,-0.0781250000,44.3572998047,2.9907226562,57.3883056641
2.5959448814,-0.7597656250,0.5893554688,-0.0781250000,44.3572998047,2.9907226562,57.3883056641
2.5986859798,-0.7617187500,0.5434570312,-0.0546875000,34.5001220703,4.9133300781,70.0225830078
2.6012599468,-0.7617187500,0.5434570312,-0.0546875000,34.5001220703,4.9133300781,70.0225830078
2.6038339138,-0.7617187500,0.5434570312,-0.0546875000,25.2838134766,5.8441162109,82.6416015625
2.6064119339,-0.7617187500,0.5434570312,-0.0546875000,25.2838134766,5.8441162109,82.6416015625
2.6091558933,-0.7670898438,0.5029296875,-0.0161132812,16.2811279297,6.4392089844,94.3298339844
2.6118569374,-0.7670898438,0.5029296875,-0.0161132812,16.2811279297,6.4392089844,94.3298339844
2.6145570278,-0.7670898438,0.5029296875,-0.0161132812,8.1787109375,5.9356689453,105.2551269531
2.6172568798,-0.7670898438,0.5029296875,0.1118164062,8.1787109375,5.9356689453,105.2551269531
2.6199948788,-0.7700195312,0.3256835938,0.1118164062,0.6408691406,2.8533935547,109.0698242188
2.6225659847,-0.7700195312,0.3256835938,0.1118164062,0.6408691406,2.8533935547,109.0698242188
2.6251380444,-0.7700195312,0.3256835938,0.1118164062,-8.1939697266,-3.6315917969,104.6600341797
2.6277909279,-0.7700195312,-0.1123046875,0.2314453125,-8.1939697266,-3.6315917969,104.6600341797
2.6304869652,-0.8227539062,-0.1123046875,0.2314453125,-20.6298828125,-2.4414062500,106.0943603516
2.6331889629,-0.8227539062,-0.1123046875,0.2314453125,-20.6298828125,-2.4414062500,106.0943603516
2.6358990669,-0.8227539062,-0.1123046875,0.2314453125,-19.5465087891,-1.2359619141,103.1036376953
2.6386110783,-0.8710937500,-0.8549804688,0.0756835938,-19.5465087891,-1.2359619141,103.1036376953
2.6413118839,-0.8710937500,-0.8549804688,0.0756835938,-26.3061523438,1.3275146484,91.5374755859
2.6440150738,-0.8710937500,-0.8549804688,0.0756835938,-26.3061523438,1.3275146484,91.5374755859
2.6467258930,-0.8710937500,-0.8549804688,0.0756835938,-35.7666015625,8.0413818359,82.4890136719
2.6494479179,-1.0415039062,-1.2294921875,-0.3374023438,-35.7666015625,8.0413818359,82.4890136719
2.6521458626,-1.0415039062,-1.2294921875,-0.3374023438,-48.8128662109,11.2304687500,81.1157226562
2.6548550129,-1.0415039062,-1.2294921875,-0.3374023438,-48.8128662109,11.2304687500,81.1157226562
2.6575739384,-1.0415039062,-1.2294921875,-0.3178710938,-74.9053955078,10.0402832031,88.5162353516
2.6601510048,-0.9619140625,-0.5473632812,-0.3178710938,-74.9053955078,10.0402832031,88.5162353516
2.6627240181,-0.9619140625,-0.5473632812,-0.3178710938,-105.8502197266,7.9650878906,103.2562255859
2.6655209064,-0.9619140625,-0.5473632812,-0.3178710938,-105.8502197266,7.9650878906,103.2562255859
2.6684439182,-0.9682617188,0.1103515625,-0.1435546875,-121.8566894531,7.9193115234,116.9586181641
2.6711509228,-0.9682617188,0.1103515625,-0.1435546875,-121.8566894531,7.9193115234,116.9586181641
2.6738600731,-0.9682617188,0.1103515625,-0.1435546875,-123.8708496094,7.5073242188,125.3662109375
2.6765639782,-0.9682617188,0.1103515625,-0.1435546875,-123.8708496094,7.5073242188,125.3662109375
2.6792888641,-0.9912109375,0.3994140625,0.0498046875,-124.4659423828,3.8299560547,127.9449462891
2.6819989681,-0.9912109375,0.3994140625,0.0498046875,-124.4659423828,3.8299560547,127.9449462891
2.6848170757,-0.9912109375,0.3994140625,0.0498046875,-120.0103759766,-4.3945312500,128.0822753906
2.6875329018,-0.9912109375,0.3994140625,0.0498046875,-120.0103759766,-4.3945312500,128.0822753906
2.6902480125,-0.9462890625,0.3437500000,0.0732421875,-104.5532226562,-11.3983154297,127.2277832031
2.6929609776,-0.9462890625,0.3437500000,0.0732421875,-104.5532226562,-11.3983154297,127.2277832031
2.6956648827,-0.9462890625,0.3437500000,0.0732421875,-81.2072753906,-13.8549804688,127.0141601562
2.6983819008,-0.9462890625,0.3378906250,-0.1547851562,-81.2072753906,-13.8549804688,127.0141601562
2.7009580135,-0.9199218750,0.3378906250,-0.1547851562,-59.1735839844,-14.0686035156,124.9084472656
2.7035329342,-0.9199218750,0.3378906250,-0.1547851562,-59.1735839844,-14.0686035156,124.9084472656
2.7061128616,-0.9199218750,0.3378906250,-0.1547851562,-39.6423339844,-15.1367187500,120.5902099609
2.7086930275,-0.7949218750,0.2968750000,-0.1816406250,-40.5578613281,-15.1367187500,120.5902099609
2.7112710476,-0.8276367188,0.2968750000,-0.1816406250,-40.5578613281,-19.0429687500,114.2425537109
2.7138490677,-0.8276367188,0.2968750000,-0.1816406250,-27.3132324219,-18.0664062500,114.2425537109
2.7164289951,-0.8276367188,0.2968750000,-0.1816406250,-27.3132324219,-18.0664062500,107.3913574219
2.7191500664,-0.7485351562,0.1621093750,0.0087890625,-18.8903808594,-22.0336914062,107.3913574219
2.7217309475,-0.7485351562,0.1621093750,0.0087890625,-18.8903808594,-22.0336914062,103.4851074219
2.7243039608,-0.7485351562,0.1621093750,0.0087890625,-14.0228271484,-27.1911621094,101.9592285156
2.7268838882,-0.7485351562,0.1621093750,0.0087890625,-14.0228271484,-27.1911621094,98.0529785156
2.7296319008,-0.7475585938,0.1196289062,0.1416015625,-11.4746093750,-30.1818847656,98.2971191406
2.7322080135,-0.7475585938,0.1196289062,0.1416015625,-11.4746093750,-30.1818847656,98.2971191406
2.7347810268,-0.7475585938,0.1196289062,0.1416015625,-11.7187500000,-29.7241210938,94.5587158203
2.7373619080,-0.7475585938,0.1196289062,0.1416015625,-11.7187500000,-29.7241210938,94.5587158203
2.7400889397,-0.7822265625,0.1376953125,0.1606445312,-14.8620605469,-28.9306640625,91.1102294922
2.7426588535,-0.7822265625,0.1376953125,0.1606445312,-14.8620605469,-28.9306640625,91.1102294922
2.7452318668,-0.7822265625,0.1376953125,0.1606445312,-19.1955566406,-28.0456542969,88.5162353516
2.7479610443,-0.7822265625,0.1376953125,0.1606445312,-19.1955566406,-28.0456542969,88.5162353516
2.7505359650,-0.8032226562,0.1801757812,0.1875000000,-22.2625732422,-27.4200439453,87.6312255859
2.7530989647,-0.8032226562,0.1801757812,0.1875000000,-22.2625732422,-27.4200439453,87.6312255859
2.7556688786,-0.8032226562,0.1801757812,0.1875000000,-23.2543945312,-26.2603759766,86.8530273438
2.7582459450,-0.8032226562,0.1801757812,0.1875000000,-23.2543945312,-26.2603759766,86.8530273438
2.7608208656,-0.8110351562,0.2680664062,0.2104492188,-21.1944580078,-24.8413085938,85.9069824219
2.7633919716,-0.8110351562,0.2680664062,0.2104492188,-21.1944580078,-24.8413085938,85.9069824219
2.7659649849,-0.8110351562,0.2680664062,0.2104492188,-17.2882080078,-22.6898193359,83.5266113281
2.7686300278,-0.8110351562,0.2680664062,0.2089843750,-17.4102783203,-22.6898193359,83.5266113281
2.7712049484,-0.7871093750,0.2768554688,0.2089843750,-17.4102783203,-22.6898193359,79.9102783203
2.7737779617,-0.7871093750,0.2768554688,0.2089843750,-12.4359130859,-21.8200683594,79.9102783203
2.7763540745,-0.7871093750,0.2768554688,0.2089843750,-12.4359130859,-21.8200683594,75.5462646484
2.7790479660,-0.7871093750,0.2988281250,0.1464843750,-8.2092285156,-21.4233398438,75.5462646484
2.7817509174,-0.7622070312,0.2988281250,0.1464843750,-8.2092285156,-21.4233398438,71.1212158203
2.7846760750,-0.7622070312,0.2988281250,0.1464843750,-3.0670166016,-19.5922851562,71.1212158203
2.7878038883,-0.7622070312,0.2988281250,0.1464843750,0.8392333984,-16.7846679688,64.5904541016
2.7905168533,-0.7373046875,0.2143554688,0.0341796875,3.6773681641,-16.7846679688,64.5904541016
2.7932219505,-0.7373046875,0.2143554688,0.0341796875,11.4898681641,-15.3045654297,58.3190917969
2.7959358692,-0.7373046875,0.2143554688,0.0341796875,10.7116699219,-15.3045654297,58.3190917969
2.7986569405,-0.7373046875,0.2143554688,-0.0908203125,14.6179199219,-15.2282714844,53.2379150391
2.8013648987,-0.7124023438,0.2006835938,-0.0073242188,15.5639648438,-15.2282714844,53.2379150391
2.8040819168,-0.7124023438,0.2006835938,-0.0073242188,19.4702148438,-16.8457031250,48.4008789062
2.8067929745,-0.7124023438,0.2006835938,-0.0073242188,18.0053710938,-16.8457031250,48.4008789062
2.8094270229,-0.7124023438,0.1801757812,0.0146484375,18.0053710938,-18.2037353516,43.3349609375
2.8121140003,-0.7221679688,0.1801757812,0.0146484375,21.7895507812,-18.2037353516,43.3349609375
2.8146948814,-0.7221679688,0.1801757812,0.0146484375,21.7895507812,-18.2037353516,38.2232666016
2.8172788620,-0.7221679688,0.1801757812,0.0146484375,25.8178710938,-18.1427001953,38.2232666016
2.8199079037,-0.7495117188,0.1752929688,0.0253906250,25.8178710938,-18.1427001953,33.7066650391
2.8224868774,-0.7495117188,0.1752929688,0.0253906250,29.0374755859,-18.1732177734,33.7066650391
2.8250670433,-0.7495117188,0.1752929688,0.0253906250,29.0374755859,-18.1732177734,29.8004150391
2.8276460171,-0.7495117188,0.1752929688,0.0253906250,31.2042236328,-18.3258056641,30.0903320312
2.8302209377,-0.7534179688,0.1254882812,0.0180664062,31.2042236328,-18.3258056641,30.0903320312
2.8327949047,-0.7534179688,0.1254882812,0.0180664062,31.6162109375,-18.8293457031,27.3895263672
2.8364849091,-0.7534179688,0.1254882812,0.0180664062,31.6162109375,-18.8293457031,25.5126953125
2.8390629292,-0.7534179688,0.1254882812,0.0180664062,29.3426513672,-19.2565917969,25.5126953125
2.8416378498,-0.7475585938,0.0791015625,0.0136718750,29.3426513672,-19.2565917969,24.3835449219
2.8442089558,-0.7475585938,0.0791015625,0.0136718750,25.9094238281,-20.3857421875,24.3835449219
2.8467779160,-0.7475585938,0.0791015625,0.0136718750,25.9094238281,-20.3857421875,24.3835449219
2.8493790627,-0.7475585938,0.0791015625,0.0263671875,20.7519531250,-21.3775634766,24.2462158203
2.8519530296,-0.7392578125,0.0556640625,0.0263671875,20.7519531250,-21.3775634766,24.2462158203
2.8545198441,-0.7392578125,0.0556640625,0.0263671875,15.5029296875,-21.6064453125,24.2919921875
2.8570899963,-0.7392578125,0.0556640625,0.0263671875,15.5029296875,-21.6064453125,24.2919921875
2.8597118855,-0.7392578125,0.0556640625,0.0483398438,10.6048583984,-21.8505859375,24.5513916016
2.8622829914,-0.7265625000,0.0463867188,0.0483398438,10.6048583984,-21.8505859375,24.5513916016
2.8648519516,-0.7265625000,0.0463867188,0.0483398438,6.0119628906,-22.1252441406,24.3530273438
2.8674199581,-0.7265625000,0.0463867188,0.0483398438,6.0119628906,-22.1252441406,24.3530273438
2.8699998856,-0.7265625000,0.0478515625,0.0678710938,1.9226074219,-22.2015380859,24.3530273438
2.8725678921,-0.7329101562,0.0478515625,0.0678710938,1.9226074219,-22.2015380859,24.3530273438
2.8752460480,-0.7329101562,0.0478515625,0.0678710938,-0.1831054688,-21.4996337891,24.6887207031
2.8779799938,-0.7329101562,0.0478515625,0.0678710938,-0.1831054688,-21.4996337891,24.6887207031
2.8805520535,-0.7265625000,0.0615234375,0.0830078125,-1.0375976562,-20.5688476562,24.4750976562
2.8831169605,-0.7265625000,0.0615234375,0.0830078125,-1.0375976562,-20.5688476562,24.4750976562
2.8856859207,-0.7265625000,0.0615234375,0.0830078125,-1.0375976562,-19.3023681641,23.9410400391
2.8883450031,-0.7265625000,0.0615234375,0.0830078125,-1.6937255859,-19.3023681641,23.9410400391
2.8909158707,-0.7285156250,0.0727539062,0.0976562500,-1.6937255859,-19.3023681641,23.5900878906
2.8934829235,-0.7285156250,0.0727539062,0.0976562500,-1.3580322266,-18.0053710938,23.5900878906
2.8960499763,-0.7285156250,0.0727539062,0.0976562500,-1.3580322266,-18.0053710938,22.9339599609
2.8986239433,-0.7285156250,0.0727539062,0.0976562500,0.3356933594,-16.8914794922,22.9339599609
2.9011929035,-0.7182617188,0.0849609375,0.0981445312,0.3356933594,-16.8914794922,22.9339599609
2.9037609100,-0.7182617188,0.0849609375,0.0981445312,2.2735595703,-16.2963867188,22.3999023438
2.9063289165,-0.7182617188,0.0849609375,0.0981445312,2.2735595703,-16.2963867188,22.3999023438
2.9089438915,-0.7182617188,0.0849609375,0.0981445312,5.3253173828,-15.1519775391,21.6369628906
2.9115109444,-0.7153320312,0.0976562500,0.1079101562,5.3253173828,-15.1519775391,21.6369628906
2.9140889645,-0.7153320312,0.0976562500,0.1079101562,10.0860595703,-13.7481689453,19.4854736328
2.9166588783,-0.7153320312,0.0976562500,0.1079101562,10.0860595703,-13.7481689453,19.4854736328
2.9193210602,-0.7153320312,0.0976562500,0.1079101562,15.2893066406,-12.4359130859,17.7154541016
2.9218919277,-0.7231445312,0.1010742188,0.1000976562,15.2893066406,-12.4359130859,17.7154541016
2.9244599342,-0.7231445312,0.1010742188,0.1000976562,20.2789306641,-11.9781494141,16.3726806641
2.9270339012,-0.7231445312,0.1010742188,0.1000976562,20.2789306641,-11.9781494141,16.3726806641
2.9296150208,-0.7231445312,0.1010742188,0.1000976562,25.9246826172,-12.0239257812,15.3808593750
2.9321868420,-0.7119140625,0.1040039062,0.0966796875,25.9246826172,-12.0239257812,15.3808593750
2.9347598553,-0.7119140625,0.1040039062,0.0966796875,29.8309326172,-12.1002197266,14.6942138672
2.9374530315,-0.7119140625,0.1040039062,0.0966796875,30.3649902344,-12.1002197266,14.6942138672
2.9400858879,-0.7119140625,0.1040039062,0.1015625000,30.3649902344,-11.8103027344,14.0075683594
2.9426610470,-0.7124023438,0.0961914062,0.1015625000,33.3251953125,-11.8103027344,14.0075683594
2.9453649521,-0.7124023438,0.0961914062,0.1015625000,33.3251953125,-7.9040527344,13.7481689453
2.9487540722,-0.7124023438,0.0961914062,0.1015625000,35.6140136719,-11.7187500000,13.7481689453
2.9513299465,-0.7055664062,0.0888671875,0.0922851562,36.5295410156,-11.2609863281,13.9465332031
2.9539010525,-0.7055664062,0.0888671875,0.0922851562,36.5295410156,-11.2609863281,13.9465332031
2.9564659595,-0.7055664062,0.0888671875,0.0922851562,36.5295410156,-11.7034912109,14.8468017578
2.9590480328,-0.7055664062,0.0888671875,0.0922851562,37.5823974609,-11.7034912109,14.8468017578
2.9616210461,-0.7202148438,0.0600585938,0.0874023438,37.5823974609,-15.6097412109,15.5181884766
2.9641940594,-0.7202148438,0.0600585938,0.0874023438,36.1633300781,-11.8103027344,15.5181884766
2.9667689800,-0.7202148438,0.0600585938,0.0874023438,36.1633300781,-11.8103027344,16.2811279297
2.9693689346,-0.7202148438,0.0600585938,0.0874023438,34.8052978516,-11.5966796875,16.2811279297
2.9719450474,-0.7109375000,0.0610351562,0.0820312500,34.8052978516,-11.5966796875,16.2811279297
2.9745190144,-0.7109375000,0.0610351562,0.0820312500,33.4625244141,-11.6729736328,18.4936523438
2.9770970345,-0.7109375000,0.0610351562,0.0820312500,33.4625244141,-11.6729736328,18.4936523438
2.9797098637,-0.7109375000,0.0610351562,0.0820312500,30.7006835938,-11.9171142578,20.9960937500
2.9822800159,-0.7172851562,0.0849609375,0.0771484375,30.7006835938,-11.9171142578,20.9960937500
2.9848499298,-0.7172851562,0.0849609375,0.0771484375,28.5644531250,-11.9018554688,23.1170654297
2.9874229431,-0.7172851562,0.0849609375,0.0771484375,28.5644531250,-11.9018554688,23.1170654297
2.9900059700,-0.7172851562,0.0849609375,0.0771484375,27.7557373047,-12.0239257812,24.2919921875
2.9925758839,-0.7255859375,0.0834960938,0.0791015625,27.7557373047,-12.0239257812,24.2919921875
2.9951510429,-0.7255859375,0.0834960938,0.0791015625,29.1137695312,-11.7797851562,24.7039794922
2.9979140759,-0.7255859375,0.0834960938,0.0791015625,29.1137695312,-11.7797851562,24.7039794922
3.0006048679,-0.7255859375,0.0834960938,0.0791015625,31.2042236328,-11.7034912109,24.9023437500
3.0031878948,-0.7329101562,0.0932617188,0.0771484375,31.2042236328,-11.7034912109,24.9023437500
3.0057609081,-0.7329101562,0.0932617188,0.0771484375,33.2641601562,-11.1999511719,25.6805419922
3.0084919930,-0.7329101562,0.0932617188,0.0771484375,33.2641601562,-11.1999511719,25.6805419922
3.0110709667,-0.7329101562,0.0932617188,0.0947265625,35.4156494141,-11.2915039062,25.8636474609
3.0136470795,-0.7246093750,0.0937500000,0.0947265625,35.4156494141,-11.2915039062,25.8636474609
3.0162279606,-0.7246093750,0.0937500000,0.0947265625,35.4156494141,-10.3607177734,27.7099609375
3.0188739300,-0.7246093750,0.0937500000,0.0947265625,38.9404296875,-10.3607177734,27.7099609375
3.0215649605,-0.7246093750,0.0722656250,0.1040039062,38.9404296875,-8.8653564453,28.3355712891
3.0242538452,-0.7333984375,0.0722656250,0.1040039062,43.4265136719,-8.8653564453,28.3355712891
3.0269370079,-0.7333984375,0.0722656250,0.1040039062,43.4265136719,-4.9591064453,28.5186767578
3.0296359062,-0.7333984375,0.0722656250,0.1040039062,45.7305908203,-7.4005126953,28.5186767578
3.0323300362,-0.7646484375,0.0346679688,0.0859375000,45.7305908203,-7.4005126953,29.4799804688
3.0350189209,-0.7646484375,0.0346679688,0.0859375000,44.3420410156,-6.6986083984,29.4799804688
3.0379998684,-0.7646484375,0.0346679688,0.0859375000,44.3420410156,-6.9885253906,30.3039550781
3.0406680107,-0.7646484375,0.0346679688,0.0859375000,41.2902832031,-6.9885253906,30.3039550781
3.0441820621,-0.7382812500,0.0908203125,0.0771484375,37.7349853516,-6.6528320312,32.5317382812
3.0467610359,-0.7382812500,0.0908203125,0.0771484375,37.7349853516,-6.6528320312,32.5317382812
3.0493948460,-0.7382812500,0.0908203125,0.0771484375,35.8581542969,-6.0729980469,34.1949462891
3.0519690514,-0.7382812500,0.1274414062,0.0698242188,35.8581542969,-6.0729980469,34.1949462891
3.0545380116,-0.7270507812,0.1274414062,0.0698242188,31.9519042969,-5.3558349609,35.4003906250
3.0571129322,-0.7270507812,0.1274414062,0.0698242188,34.0423583984,-5.3558349609,35.4003906250
3.0597319603,-0.7270507812,0.1274414062,0.0698242188,34.0423583984,-5.3558349609,35.9802246094
3.0623018742,-0.7280273438,0.1035156250,0.0810546875,31.4636230469,-4.8980712891,35.9802246094
3.0649769306,-0.7280273438,0.1035156250,0.0810546875,31.4636230469,-4.8980712891,37.2924804688
3.0675458908,-0.7280273438,0.1035156250,0.0810546875,29.1442871094,-5.0354003906,37.2924804688
3.0701198578,-0.7280273438,0.1035156250,0.0810546875,29.1442871094,-5.0354003906,37.2924804688
3.0726978779,-0.7314453125,0.1230468750,0.0781250000,27.5878906250,-5.1116943359,37.6129150391
3.0752689838,-0.7314453125,0.1230468750,0.0781250000,27.5878906250,-5.1116943359,37.6129150391
3.0778429508,-0.7314453125,0.1230468750,0.0781250000,25.9857177734,-5.0659179688,38.7573242188
3.0804190636,-0.7314453125,0.1230468750,0.0781250000,25.9857177734,-5.0659179688,38.7573242188
3.0829880238,-0.7211914062,0.1533203125,0.0786132812,24.8413085938,-4.4403076172,39.6728515625
3.0855619907,-0.7211914062,0.1533203125,0.0786132812,24.8413085938,-4.4403076172,39.6728515625
3.0883190632,-0.7211914062,0.1533203125,0.0786132812,24.5513916016,-4.5318603516,39.5507812500
3.0908939838,-0.7211914062,0.1533203125,0.0786132812,24.5513916016,-4.5318603516,39.5507812500
3.0934729576,-0.7177734375,0.1430664062,0.0913085938,24.6887207031,-4.4555664062,39.9475097656
3.0960509777,-0.7177734375,0.1430664062,0.0913085938,24.6887207031,-4.4555664062,39.9475097656
3.0987110138,-0.7177734375,0.1430664062,0.0913085938,24.9328613281,-4.3029785156,40.2679443359
3.1012849808,-0.7177734375,0.1430664062,0.0913085938,24.9328613281,-4.3029785156,40.2679443359
3.1038570404,-0.7270507812,0.1430664062,0.1020507812,25.6652832031,-4.4555664062,40.4663085938
3.1064300537,-0.7270507812,0.1430664062,0.1020507812,25.6652832031,-4.4555664062,40.4663085938
3.1090948582,-0.7270507812,0.1430664062,0.1020507812,26.4587402344,-3.9825439453,40.0695800781
3.1118030548,-0.7270507812,0.1430664062,0.0878906250,26.4587402344,-3.9825439453,40.0695800781
3.1145038605,-0.7299804688,0.1518554688,0.0878906250,27.8625488281,-3.8299560547,39.7644042969
3.1172039509,-0.7299804688,0.1518554688,0.0878906250,27.8625488281,-3.8299560547,39.7644042969
3.1199200153,-0.7299804688,0.1518554688,0.0878906250,28.6712646484,-3.4790039062,39.9475097656
3.1226229668,-0.7299804688,0.1562500000,0.0952148438,28.6712646484,-3.4790039062,39.9475097656
3.1253299713,-0.7226562500,0.1562500000,0.0952148438,28.9611816406,-3.1280517578,40.9851074219
3.1281509399,-0.7226562500,0.1562500000,0.0952148438,28.9611816406,-3.1280517578,40.9851074219
3.1308560371,-0.7226562500,0.1562500000,0.0952148438,28.7322998047,-3.0822753906,41.3360595703
3.1335589886,-0.7329101562,0.1323242188,0.0917968750,28.7322998047,-3.0822753906,41.3360595703
3.1362600327,-0.7329101562,0.1323242188,0.0917968750,27.7557373047,-3.2043457031,41.2597656250
3.1390080452,-0.7329101562,0.1323242188,0.0917968750,27.7557373047,-3.2043457031,41.2597656250
3.1417100430,-0.7329101562,0.1323242188,0.0917968750,25.9246826172,-2.9754638672,42.2515869141
3.1444149017,-0.7363281250,0.1464843750,0.0825195312,25.9246826172,-2.9754638672,42.2515869141
3.1471199989,-0.7363281250,0.1464843750,0.0825195312,24.7497558594,-2.8686523438,43.1213378906
3.1497290134,-0.7363281250,0.1464843750,0.0825195312,24.7497558594,-2.8686523438,43.1213378906
3.1523108482,-0.7363281250,0.1464843750,0.0654296875,23.9410400391,-2.5939941406,43.2281494141
3.1552350521,-0.7451171875,0.1513671875,0.0654296875,23.9410400391,-2.5939941406,43.2281494141
3.1579558849,-0.7451171875,0.1513671875,0.0654296875,23.5748291016,-2.5482177734,43.5791015625
3.1606609821,-0.7451171875,0.1513671875,0.0654296875,23.5748291016,-2.5482177734,43.5791015625
3.1632330418,-0.7426757812,0.1689453125,0.0708007812,19.6685791016,-2.6855468750,43.8232421875
3.1658918858,-0.7426757812,0.1689453125,0.0708007812,23.1018066406,-2.6855468750,43.8232421875
3.1684679985,-0.7426757812,0.1689453125,0.0708007812,23.1018066406,-2.6855468750,44.2962646484
3.1710400581,-0.7426757812,0.1689453125,0.0708007812,22.8729248047,-2.9144287109,44.2962646484
3.1736118793,-0.7216796875,0.1914062500,0.0791015625,22.8729248047,-2.9144287109,45.0439453125
3.1762678623,-0.7216796875,0.1914062500,0.0791015625,22.9492187500,-3.1890869141,45.0439453125
3.1788430214,-0.7216796875,0.1914062500,0.0791015625,22.9492187500,-3.1890869141,45.0439453125
3.1814129353,-0.7216796875,0.1914062500,0.0791015625,23.0407714844,-3.4637451172,46.3104248047
3.1839828491,-0.7031250000,0.2084960938,0.0737304688,23.0407714844,-3.4637451172,46.3104248047
3.1866579056,-0.7031250000,0.2084960938,0.0737304688,23.8342285156,-3.2196044922,46.8750000000
3.1892290115,-0.7031250000,0.2084960938,0.0737304688,23.8342285156,-3.2196044922,46.8750000000
3.1917970181,-0.7031250000,0.2084960938,0.0737304688,25.5126953125,-2.9754638672,47.0123291016
3.1944849491,-0.7192382812,0.2109375000,0.0815429688,25.5126953125,-2.9754638672,47.0123291016
3.1970548630,-0.7192382812,0.2109375000,0.0815429688,27.1453857422,-2.5787353516,47.1649169922
3.1996309757,-0.7192382812,0.2109375000,0.0815429688,27.1453857422,-2.5787353516,47.1649169922
3.2021958828,-0.7192382812,0.2109375000,0.0815429688,28.8848876953,-2.4414062500,48.7213134766
3.2047948837,-0.7177734375,0.2006835938,0.0874023438,28.8848876953,-2.4414062500,48.7213134766
3.2073619366,-0.7177734375,0.2006835938,0.0874023438,28.8848876953,-2.4871826172,50.2777099609
3.2100570202,-0.7177734375,0.2006835938,0.0874023438,28.8848876953,-2.4871826172,50.2777099609
3.2126250267,-0.7177734375,0.2006835938,0.0971679688,28.6560058594,-2.1514892578,52.0935058594
3.2151908875,-0.7290039062,0.1811523438,0.0971679688,28.6560058594,-2.1514892578,52.0935058594
3.2179129124,-0.7290039062,0.1811523438,0.0971679688,27.9693603516,-2.0751953125,54.0008544922
3.2204840183,-0.7290039062,0.1811523438,0.0971679688,27.9693603516,-2.0751953125,54.0008544922
3.2230548859,-0.7290039062,0.1811523438,0.0986328125,27.9693603516,-1.4648437500,55.4046630859
3.2256250381,-0.7358398438,0.1899414062,0.0986328125,27.1606445312,-1.4648437500,55.4046630859
3.2282209396,-0.7358398438,0.1899414062,0.0986328125,27.1606445312,-1.4648437500,57.3730468750
3.2307858467,-0.7358398438,0.1899414062,0.0986328125,26.4129638672,-1.2512207031,57.3730468750
3.2333569527,-0.7358398438,0.1767578125,0.1098632812,26.4129638672,-1.2512207031,61.2792968750
3.2359230518,-0.7387695312,0.1767578125,0.1098632812,24.6124267578,-1.2817382812,60.1043701172
3.2385878563,-0.7387695312,0.1767578125,0.1098632812,24.6124267578,-1.2817382812,60.1043701172
3.2412929535,-0.7387695312,0.1767578125,0.1098632812,22.6593017578,-1.2054443359,62.4389648438
3.2439930439,-0.7509765625,0.1826171875,0.1225585938,22.6593017578,-1.2054443359,62.4389648438
3.2466959953,-0.7509765625,0.1826171875,0.1225585938,21.8505859375,-1.1291503906,63.9648437500
3.2493259907,-0.7509765625,0.1826171875,0.1225585938,21.8505859375,-1.1291503906,63.9648437500
3.2518968582,-0.7509765625,0.1826171875,0.1225585938,21.2402343750,-0.5950927734,65.0177001953
3.2544729710,-0.7534179688,0.2392578125,0.0991210938,21.2402343750,-0.5950927734,65.0177001953
3.2571549416,-0.7534179688,0.2392578125,0.0991210938,21.4080810547,-0.6103515625,65.8416748047
3.2598719597,-0.7534179688,0.2392578125,0.0991210938,21.4080810547,-0.6103515625,65.8416748047
3.2625789642,-0.7534179688,0.2392578125,0.0991210938,22.1862792969,-0.5950927734,66.6198730469
3.2652790546,-0.7553710938,0.2509765625,0.0869140625,22.1862792969,-0.5950927734,66.6198730469
3.2680270672,-0.7553710938,0.2509765625,0.0869140625,22.6745605469,-0.4272460938,66.3299560547
3.2707328796,-0.7553710938,0.2509765625,0.0869140625,22.6745605469,-0.4272460938,66.3299560547
3.2735040188,-0.7553710938,0.2695312500,0.0761718750,24.0783691406,-0.1525878906,66.1926269531
3.2763490677,-0.7529296875,0.2695312500,0.0761718750,24.0783691406,-0.1525878906,66.1926269531
3.2793579102,-0.7529296875,0.2695312500,0.0761718750,24.6124267578,-0.0610351562,66.5893554688
3.2820708752,-0.7529296875,0.2695312500,0.0761718750,24.6124267578,-0.0610351562,66.5893554688
3.2847800255,-0.7670898438,0.2758789062,0.0546875000,25.4669189453,-0.0762939453,66.1926269531
3.2875008583,-0.7670898438,0.2758789062,0.0546875000,25.4669189453,-0.0762939453,66.1926269531
3.2902090549,-0.7670898438,0.2758789062,0.0546875000,26.6876220703,0.3509521484,66.8640136719
3.2929120064,-0.7670898438,0.2758789062,0.0546875000,26.6876220703,0.3509521484,66.8640136719
3.2956209183,-0.7836914062,0.2954101562,0.0361328125,27.5115966797,0.5798339844,67.4591064453
3.2982990742,-0.7836914062,0.2954101562,0.0361328125,27.5115966797,0.5798339844,67.4591064453
3.3008730412,-0.7836914062,0.2954101562,0.0361328125,27.9541015625,0.8697509766,68.0389404297
3.3034479618,-0.7836914062,0.2954101562,0.0361328125,27.9541015625,0.8697509766,68.0389404297
3.3060219288,-0.8007812500,0.2929687500,0.0292968750,28.7170410156,1.3427734375,68.5729980469
3.3086049557,-0.8007812500,0.2929687500,0.0292968750,28.7170410156,1.3427734375,68.5729980469
3.3111798763,-0.8007812500,0.2929687500,0.0292968750,28.7322998047,2.1667480469,69.1986083984
3.3137569427,-0.8007812500,0.2929687500,0.0107421875,28.7322998047,2.1667480469,69.1986083984
