# time_stamp before, Acceleration x, Acceleration y, Acceleration z, Gyro x, Gyro y, Gyro z
0.0000000000,-0.7148437500,0.1694335938,0.0693359375,6.7749023438,-6.5155029297,5.8288574219
0.0032620430,-0.7148437500,0.1694335938,0.0800781250,6.7749023438,-6.5155029297,6.3781738281
0.0058171749,-0.7084960938,0.1835937500,0.0800781250,5.4931640625,-6.2713623047,6.3781738281
0.0084631443,-0.7084960938,0.1835937500,0.0800781250,5.4931640625,-6.2713623047,6.3781738281
0.0110070705,-0.7084960938,0.1835937500,0.0800781250,5.6152343750,-6.3323974609,6.8969726562
0.0135631561,-0.7084960938,0.1835937500,0.0776367188,5.6152343750,-6.3323974609,6.8969726562
0.0161221027,-0.7070312500,0.1757812500,0.0776367188,6.2866210938,-5.8898925781,7.4768066406
0.0186841488,-0.7070312500,0.1757812500,0.0776367188,6.2866210938,-5.8898925781,7.4768066406
0.0212399960,-0.7070312500,0.1757812500,0.0776367188,7.2021484375,-5.1422119141,8.7432861328
0.0237951279,-0.7070312500,0.1757812500,0.0815429688,7.2021484375,-5.1422119141,8.7432861328
0.0263462067,-0.7133789062,0.1567382812,0.0815429688,7.2479248047,-4.6386718750,9.9639892578
0.0289001465,-0.7133789062,0.1567382812,0.0815429688,7.2479248047,-4.6386718750,9.9639892578
0.0314550400,-0.7133789062,0.1567382812,0.0815429688,8.0566406250,-4.2572021484,11.0931396484
0.0340201855,-0.7133789062,0.1826171875,0.0830078125,8.0566406250,-4.2572021484,11.0931396484
0.0367310047,-0.7119140625,0.1826171875,0.0830078125,8.6669921875,-4.6844482422,11.6271972656
0.0393061638,-0.7119140625,0.1826171875,0.0830078125,8.6669921875,-4.6844482422,11.6271972656
0.0418720245,-0.7119140625,0.1826171875,0.0830078125,8.6669921875,-4.6844482422,11.5966796875
0.0444431305,-0.7119140625,0.2099609375,0.0600585938,9.2620849609,-4.6844482422,11.5966796875
0.0470759869,-0.6962890625,0.2099609375,0.0600585938,9.2620849609,-4.6844482422,12.1459960938
0.0496451855,-0.6962890625,0.2099609375,0.0600585938,10.6048583984,-4.5318603516,12.1459960938
0.0523710251,-0.6962890625,0.2099609375,0.0600585938,10.6048583984,-4.5318603516,12.2680664062
0.0549449921,-0.6918945312,0.2084960938,0.0566406250,11.5966796875,-4.1198730469,12.2680664062
0.0577239990,-0.6918945312,0.2084960938,0.0566406250,11.5966796875,-4.1198730469,12.2985839844
0.0604131222,-0.6918945312,0.2084960938,0.0566406250,11.8103027344,-4.0740966797,12.2985839844
0.0631031990,-0.6918945312,0.2084960938,0.0566406250,11.8103027344,-4.0740966797,12.1154785156
0.0657920837,-0.7133789062,0.1987304688,0.0756835938,11.7797851562,-4.6844482422,12.1154785156
0.0685241222,-0.7133789062,0.1987304688,0.0756835938,11.7797851562,-4.6844482422,12.2680664062
0.0712161064,-0.7133789062,0.1987304688,0.0756835938,12.5885009766,-4.8065185547,12.2680664062
0.0739021301,-0.7133789062,0.1987304688,0.0634765625,12.5885009766,-4.8065185547,12.7410888672
0.0766069889,-0.7124023438,0.1933593750,0.0634765625,12.6037597656,-4.6081542969,12.7410888672
0.0792942047,-0.7124023438,0.1933593750,0.0634765625,12.6037597656,-4.6081542969,13.5803222656
0.0819840431,-0.7124023438,0.1933593750,0.0634765625,12.7258300781,-4.0435791016,13.5803222656
0.0846681595,-0.7124023438,0.1855468750,0.0527343750,12.7258300781,-4.0435791016,14.8925781250
0.0873701572,-0.7089843750,0.1855468750,0.0527343750,12.0697021484,-3.7078857422,14.8925781250
0.0900561810,-0.7089843750,0.1855468750,0.0527343750,12.0697021484,-3.7078857422,18.7988281250
0.0927422047,-0.7089843750,0.1855468750,0.0527343750,10.9405517578,-3.9215087891,16.2048339844
0.0954291821,-0.7045898438,0.1972656250,0.0566406250,10.9405517578,-3.9215087891,16.2048339844
0.0981271267,-0.7045898438,0.1972656250,0.0566406250,10.2386474609,-3.8146972656,17.6696777344
0.1008141041,-0.7045898438,0.1972656250,0.0566406250,10.2386474609,-3.8146972656,21.5759277344
0.1035001278,-0.7045898438,0.1972656250,0.0566406250,10.0708007812,-3.6926269531,19.9737548828
0.1062281132,-0.7114257812,0.1625976562,0.0766601562,10.0708007812,-3.6926269531,19.9737548828
0.1088960171,-0.7114257812,0.1625976562,0.0766601562,9.0484619141,-3.3569335938,21.0723876953
0.1116399765,-0.7114257812,0.1625976562,0.0766601562,9.0484619141,-3.3569335938,21.0723876953
0.1144351959,-0.7114257812,0.1625976562,0.1186523438,8.7585449219,-2.8381347656,21.6522216797
0.1172611713,-0.7470703125,0.1406250000,0.1186523438,8.7585449219,-2.8381347656,21.6522216797
0.1199641228,-0.7470703125,0.1406250000,0.1186523438,9.1247558594,-2.5482177734,22.5219726562
0.1226720810,-0.7470703125,0.1406250000,0.1186523438,9.1247558594,-2.5482177734,22.5219726562
0.1253709793,-0.7421875000,0.1899414062,0.0952148438,9.6893310547,-2.7008056641,23.3306884766
0.1280341148,-0.7421875000,0.1899414062,0.0952148438,9.6893310547,-2.7008056641,23.3306884766
0.1306040287,-0.7421875000,0.1899414062,0.0952148438,10.8184814453,-2.3803710938,24.0325927734
0.1331770420,-0.7421875000,0.1899414062,0.0952148438,10.8184814453,-2.3803710938,24.0325927734
0.1357550621,-0.7553710938,0.1655273438,0.0898437500,11.8255615234,-1.4953613281,24.6887207031
0.1384119987,-0.7553710938,0.1655273438,0.0898437500,11.8255615234,-1.4953613281,24.6887207031
0.1410751343,-0.7553710938,0.1655273438,0.0898437500,11.8713378906,-1.0681152344,25.1464843750
0.1437489986,-0.7553710938,0.1655273438,0.0898437500,11.8713378906,-1.0681152344,25.1464843750
0.1465110779,-0.7470703125,0.1928710938,0.0810546875,12.0086669922,-1.2054443359,26.2756347656
0.1490921974,-0.7470703125,0.1928710938,0.0810546875,12.0086669922,-1.2054443359,26.2756347656
0.1516690254,-0.7470703125,0.1928710938,0.0810546875,13.3666992188,-1.2359619141,27.1759033203
0.1542429924,-0.7470703125,0.1928710938,0.0810546875,13.3666992188,-1.2359619141,27.1759033203
0.1570391655,-0.7299804688,0.2216796875,0.0761718750,14.9841308594,-0.9460449219,27.4047851562
0.1596140862,-0.7299804688,0.2216796875,0.0761718750,14.9841308594,-0.9460449219,27.4047851562
0.1621880531,-0.7299804688,0.2216796875,0.0761718750,16.7388916016,-1.4648437500,28.4118652344
0.1647701263,-0.7299804688,0.2216796875,0.0644531250,16.7388916016,-1.4648437500,28.4118652344
0.1675651073,-0.7324218750,0.2104492188,0.0644531250,17.2424316406,-1.4038085938,29.3579101562
0.1702680588,-0.7324218750,0.2104492188,0.0644531250,17.2424316406,-1.4038085938,29.3579101562
0.1729531288,-0.7324218750,0.2104492188,0.0644531250,17.8375244141,-0.6408691406,30.7617187500
0.1756420135,-0.7324218750,0.2001953125,0.0737304688,17.8375244141,-0.6408691406,30.7617187500
0.1782650948,-0.7329101562,0.2001953125,0.0737304688,18.0969238281,-0.4577636719,32.5317382812
0.1809489727,-0.7329101562,0.2001953125,0.0737304688,18.0969238281,-0.4577636719,32.5317382812
0.1835219860,-0.7329101562,0.2001953125,0.0737304688,18.2800292969,-0.1678466797,34.1186523438
0.1861000061,-0.7231445312,0.2133789062,0.0830078125,18.2800292969,-0.1678466797,34.1186523438
0.1887931824,-0.7231445312,0.2133789062,0.0830078125,18.2800292969,0.3967285156,35.9497070312
0.1914930344,-0.7231445312,0.2133789062,0.0830078125,18.9514160156,0.3967285156,35.9497070312
0.1941821575,-0.7231445312,0.2133789062,0.0830078125,18.9514160156,1.0681152344,37.7502441406
0.1970770359,-0.7167968750,0.2202148438,0.0742187500,19.4244384766,1.0681152344,37.7502441406
0.1996510029,-0.7167968750,0.2202148438,0.0742187500,19.4244384766,1.7242431641,39.0777587891
0.2022280693,-0.7167968750,0.2202148438,0.0742187500,19.5159912109,1.7242431641,39.0777587891
0.2047951221,-0.7167968750,0.2202148438,0.0742187500,19.5159912109,1.7242431641,40.6188964844
0.2075340748,-0.7192382812,0.2197265625,0.0795898438,19.8364257812,2.0599365234,40.6188964844
0.2101991177,-0.7192382812,0.2197265625,0.0795898438,19.8364257812,2.0599365234,42.0837402344
0.2129530907,-0.7192382812,0.2197265625,0.0795898438,19.3328857422,2.3193359375,42.0837402344
0.2168459892,-0.7192382812,0.2089843750,0.0874023438,19.0277099609,3.0364990234,43.3654785156
0.2194311619,-0.7192382812,0.2089843750,0.0874023438,19.0277099609,3.0364990234,43.3654785156
0.2220041752,-0.7192382812,0.2089843750,0.0874023438,18.6004638672,3.4179687500,44.6166992188
0.2245731354,-0.7192382812,0.2089843750,0.0874023438,18.6004638672,3.4179687500,44.6166992188
0.2271530628,-0.7324218750,0.2182617188,0.1025390625,17.5781250000,4.0893554688,46.2036132812
0.2297210693,-0.7324218750,0.2182617188,0.1025390625,17.5781250000,4.0893554688,46.2036132812
0.2322871685,-0.7324218750,0.2182617188,0.1025390625,17.5781250000,4.8217773438,46.9512939453
0.2348601818,-0.7324218750,0.2182617188,0.1025390625,17.5628662109,4.8217773438,46.9512939453
0.2374830246,-0.7382812500,0.2470703125,0.0878906250,17.5628662109,4.8217773438,47.2412109375
0.2400619984,-0.7382812500,0.2470703125,0.0878906250,17.8222656250,4.6081542969,47.2412109375
0.2426362038,-0.7382812500,0.2470703125,0.0878906250,17.8222656250,4.6081542969,47.9125976562
0.2453150749,-0.7382812500,0.2470703125,0.0878906250,17.8680419922,4.1961669922,47.9125976562
0.2479021549,-0.7451171875,0.2465820312,0.0859375000,17.8680419922,4.1961669922,47.9125976562
0.2504720688,-0.7451171875,0.2465820312,0.0859375000,18.0358886719,3.9978027344,48.1719970703
0.2530481815,-0.7451171875,0.2465820312,0.0859375000,18.0358886719,3.9978027344,48.1719970703
0.2556250095,-0.7451171875,0.2465820312,0.0708007812,18.6462402344,4.2114257812,48.1109619141
0.2582800388,-0.7329101562,0.2690429688,0.0708007812,18.6462402344,4.2114257812,48.1109619141
0.2608580589,-0.7329101562,0.2690429688,0.0708007812,19.9737548828,4.0435791016,48.2025146484
0.2634291649,-0.7329101562,0.2690429688,0.0708007812,19.9737548828,4.0435791016,48.2025146484
0.2659959793,-0.7329101562,0.2822265625,0.0600585938,21.3317871094,4.0588378906,48.7365722656
0.2687439919,-0.7338867188,0.2822265625,0.0600585938,21.3317871094,4.0588378906,48.7365722656
0.2713119984,-0.7338867188,0.2822265625,0.0600585938,21.2554931641,4.0435791016,48.8586425781
0.2738862038,-0.7338867188,0.2822265625,0.0600585938,21.2554931641,4.0435791016,48.8586425781
0.2766351700,-0.7338867188,0.2778320312,0.0600585938,22.0336914062,4.3487548828,48.9196777344
0.2792019844,-0.7290039062,0.2778320312,0.0600585938,22.0336914062,4.3487548828,48.9196777344
0.2817771435,-0.7290039062,0.2778320312,0.0600585938,22.3846435547,4.8370361328,49.3774414062
0.2843561172,-0.7290039062,0.2778320312,0.0600585938,22.3846435547,4.8370361328,49.3774414062
0.2869482040,-0.7436523438,0.2773437500,0.0561523438,22.3846435547,5.1574707031,49.1180419922
0.2895250320,-0.7436523438,0.2773437500,0.0561523438,22.1557617188,5.1574707031,49.1180419922
0.2920961380,-0.7436523438,0.2773437500,0.0561523438,22.1557617188,5.5236816406,49.8962402344
0.2946660519,-0.7436523438,0.2773437500,0.0561523438,21.6979980469,5.5236816406,49.8962402344
0.2973489761,-0.7612304688,0.2851562500,0.0239257812,21.6979980469,6.1950683594,50.9033203125
0.3001070023,-0.7612304688,0.2851562500,0.0239257812,20.6298828125,6.1950683594,50.9033203125
0.3026840687,-0.7612304688,0.2851562500,0.0239257812,20.6298828125,6.1950683594,51.8646240234
0.3052539825,-0.7612304688,0.2851562500,0.0239257812,19.9890136719,6.4697265625,51.8646240234
0.3081171513,-0.7724609375,0.2939453125,0.0161132812,19.9890136719,6.4697265625,52.5360107422
0.3106951714,-0.7724609375,0.2939453125,0.0161132812,18.9056396484,6.8359375000,52.5360107422
0.3138620853,-0.7724609375,0.2939453125,0.0161132812,18.9056396484,6.7443847656,53.4362792969
0.3165230751,-0.7724609375,0.2939453125,0.0156250000,18.0816650391,6.7443847656,53.4362792969
0.3190879822,-0.7617187500,0.2958984375,0.0156250000,18.0816650391,6.7443847656,54.0161132812
0.3216540813,-0.7617187500,0.2958984375,0.0156250000,17.5323486328,6.0882568359,54.0161132812
0.3242251873,-0.7617187500,0.2958984375,0.0156250000,17.5323486328,6.0882568359,57.9223632812
0.3267991543,-0.7617187500,0.3041992188,0.0043945312,17.3645019531,5.6152343750,54.7332763672
0.3293781281,-0.7705078125,0.3041992188,0.0043945312,17.3645019531,5.6152343750,54.7332763672
0.3319480419,-0.7705078125,0.3041992188,0.0043945312,16.6931152344,5.1116943359,55.3436279297
0.3345160484,-0.7705078125,0.3041992188,0.0043945312,16.6931152344,5.1116943359,55.3436279297
0.3371319771,-0.7705078125,0.3125000000,-0.0073242188,16.5252685547,5.4626464844,55.4199218750
0.3397080898,-0.7812500000,0.3125000000,-0.0073242188,16.5252685547,5.4626464844,55.4199218750
0.3422780037,-0.7812500000,0.3125000000,-0.0073242188,16.3269042969,5.4931640625,56.3659667969
0.3448550701,-0.7812500000,0.3125000000,-0.0073242188,16.3269042969,5.4931640625,56.3659667969
0.3474731445,-0.7768554688,0.3125000000,0.0043945312,16.1590576172,5.7830810547,56.9152832031
0.3500430584,-0.7768554688,0.3125000000,0.0043945312,16.1590576172,5.7830810547,56.9152832031
0.3526129723,-0.7768554688,0.3125000000,0.0043945312,15.2587890625,6.1798095703,58.2580566406
0.3551790714,-0.7768554688,0.3125000000,0.0043945312,15.2587890625,6.1798095703,58.2580566406
0.3578321934,-0.7880859375,0.3041992188,0.0205078125,14.6789550781,6.6986083984,59.3109130859
0.3604130745,-0.7880859375,0.3041992188,0.0205078125,14.6789550781,6.6986083984,59.3109130859
0.3629920483,-0.7880859375,0.3041992188,0.0205078125,14.6789550781,7.4005126953,60.6079101562
0.3655691147,-0.7880859375,0.3041992188,0.0205078125,13.7023925781,7.4005126953,60.6079101562
0.3683340549,-0.8208007812,0.2905273438,0.0292968750,13.7023925781,8.4228515625,61.9964599609
0.3711400032,-0.8208007812,0.2905273438,0.0292968750,11.6577148438,8.4228515625,61.9964599609
0.3738501072,-0.8208007812,0.2905273438,0.0292968750,11.6577148438,8.6822509766,64.3920898438
0.3765711784,-0.8208007812,0.2905273438,0.0292968750,10.1013183594,8.6822509766,64.3920898438
0.3792719841,-0.8081054688,0.3061523438,0.0449218750,10.1013183594,9.5214843750,66.7877197266
0.3819730282,-0.8081054688,0.3061523438,0.0449218750,8.8348388672,9.5214843750,66.7877197266
0.3846731186,-0.8081054688,0.3061523438,0.0449218750,8.8348388672,9.8724365234,69.1833496094
0.3873810768,-0.8081054688,0.2978515625,0.0595703125,7.3089599609,9.8724365234,69.1833496094
0.3900790215,-0.8271484375,0.2978515625,0.0595703125,7.3089599609,10.5438232422,71.2585449219
0.3927731514,-0.8271484375,0.2978515625,0.0595703125,6.2866210938,10.5438232422,71.2585449219
0.3954792023,-0.8271484375,0.2978515625,0.0595703125,6.2866210938,10.7421875000,73.3489990234
0.3981041908,-0.8559570312,0.2783203125,0.0834960938,5.4779052734,10.7421875000,73.3489990234
0.4008331299,-0.8559570312,0.2783203125,0.0834960938,5.4779052734,10.7421875000,75.4699707031
0.4034080505,-0.8559570312,0.2783203125,0.0834960938,4.4555664062,11.1694335938,75.4699707031
0.4059791565,-0.8559570312,0.2783203125,0.0834960938,4.4555664062,11.1694335938,77.7587890625
0.4087221622,-0.8818359375,0.2954101562,0.1127929688,4.4708251953,11.2152099609,77.7587890625
0.4113900661,-0.8818359375,0.2954101562,0.1127929688,4.4708251953,11.2152099609,80.2307128906
0.4143869877,-0.8818359375,0.2954101562,0.1127929688,5.7983398438,10.8184814453,80.2307128906
0.4170520306,-0.8818359375,0.2954101562,0.2377929688,5.7983398438,10.8184814453,82.7178955078
0.4196240902,-0.8935546875,0.2817382812,0.1337890625,6.6833496094,9.9029541016,82.7178955078
0.4221930504,-0.8935546875,0.2817382812,0.1337890625,6.6833496094,9.9029541016,82.7178955078
0.4247620106,-0.8935546875,0.2817382812,0.1337890625,8.3007812500,8.2397460938,85.6323242188
0.4273421764,-0.8935546875,0.2817382812,0.1293945312,8.3007812500,8.2397460938,85.6323242188
0.4299151897,-0.9228515625,0.2641601562,0.1293945312,10.0402832031,7.0037841797,87.7685546875
0.4324841499,-0.9228515625,0.2641601562,0.1293945312,10.0402832031,7.0037841797,87.7685546875
0.4350571632,-0.9228515625,0.2641601562,0.1293945312,11.9781494141,5.6457519531,90.1336669922
0.4377830029,-0.9228515625,0.2783203125,0.0971679688,11.9781494141,5.6457519531,90.1336669922
0.4403541088,-0.9594726562,0.2783203125,0.0971679688,14.0228271484,3.8452148438,92.9565429688
0.4429271221,-0.9594726562,0.2783203125,0.0971679688,14.0228271484,3.8452148438,92.9565429688
0.4454920292,-0.9594726562,0.2783203125,0.0971679688,17.4560546875,1.7852783203,95.1080322266
0.4480991364,-0.9594726562,0.2612304688,0.0908203125,17.4560546875,1.7852783203,95.1080322266
0.4506740570,-0.9863281250,0.2612304688,0.0908203125,21.2707519531,0.2136230469,98.0224609375
0.4532461166,-0.9863281250,0.2612304688,0.0908203125,21.2707519531,0.2136230469,98.0224609375
0.4558200836,-0.9863281250,0.2612304688,0.0908203125,23.9257812500,-2.2277832031,100.2960205078
0.4585490227,-1.0097656250,0.2402343750,0.0815429688,23.9257812500,-2.2277832031,100.2960205078
0.4611151218,-1.0097656250,0.2402343750,0.0815429688,27.8320312500,-4.8065185547,102.6916503906
0.4636960030,-1.0097656250,0.2402343750,0.0815429688,27.6031494141,-4.8065185547,102.6916503906
0.4663591385,-1.0097656250,0.2402343750,0.0815429688,27.6031494141,-7.7514648438,103.6224365234
0.4689300060,-1.0488281250,0.2309570312,0.0839843750,31.4788818359,-7.7514648438,103.6224365234
0.4715030193,-1.0488281250,0.2309570312,0.0839843750,31.4788818359,-7.7514648438,104.8278808594
0.4740700722,-1.0488281250,0.2309570312,0.0839843750,34.6221923828,-11.0931396484,104.8278808594
0.4766511917,-1.0488281250,0.2309570312,0.0839843750,34.6221923828,-11.0931396484,108.7341308594
0.4792251587,-1.0717773438,0.2416992188,0.0581054688,37.9943847656,-13.8397216797,107.0709228516
0.4817941189,-1.0717773438,0.2416992188,0.0581054688,37.9943847656,-13.8397216797,107.0709228516
0.4843699932,-1.0717773438,0.2416992188,0.0581054688,43.1365966797,-16.7541503906,108.5968017578
0.4869899750,-1.0717773438,0.2416992188,0.0581054688,43.1365966797,-16.7541503906,108.5968017578
0.4896960258,-1.0688476562,0.2255859375,0.0913085938,53.3905029297,-20.6146240234,107.9864501953
0.4924101830,-1.0688476562,0.2255859375,0.0913085938,53.3905029297,-20.6146240234,107.9864501953
0.4951150417,-1.0688476562,0.2255859375,0.0913085938,62.6525878906,-24.1699218750,108.6120605469
0.4977710247,-1.0688476562,0.2255859375,0.0913085938,62.6525878906,-24.1699218750,108.6120605469
0.5004611015,-1.0957031250,0.2485351562,0.0600585938,72.3419189453,-26.8249511719,110.1684570312
0.5030660629,-1.0957031250,0.2485351562,0.0600585938,72.3419189453,-26.8249511719,110.1684570312
0.5056471825,-1.0957031250,0.2485351562,0.0600585938,82.8704833984,-28.4729003906,110.9466552734
0.5084850788,-1.0957031250,0.2807617188,0.0712890625,82.8704833984,-28.4729003906,110.9466552734
0.5111670494,-1.1127929688,0.2807617188,0.0712890625,92.2088623047,-29.6783447266,111.4349365234
0.5145161152,-1.1127929688,0.2807617188,0.0712890625,92.2088623047,-29.6783447266,111.4349365234
0.5171611309,-1.1127929688,0.2807617188,0.0712890625,102.2033691406,-29.2053222656,111.6027832031
0.5197410583,-1.1347656250,0.2553710938,0.1108398438,102.2033691406,-29.2053222656,111.6027832031
0.5223121643,-1.1347656250,0.2553710938,0.1108398438,103.9428710938,-28.0609130859,109.7106933594
0.5248870850,-1.1347656250,0.2553710938,0.1108398438,103.9428710938,-28.0609130859,109.7106933594
0.5275151730,-1.1347656250,0.2553710938,0.1108398438,94.8181152344,-28.8391113281,105.0415039062
0.5300900936,-1.1010742188,0.0795898438,0.1767578125,94.8181152344,-28.8391113281,105.0415039062
0.5326700211,-1.1010742188,0.0795898438,0.1767578125,90.5761718750,-28.1982421875,99.7314453125
0.5352389812,-1.1010742188,0.0795898438,0.1767578125,90.5761718750,-28.1982421875,99.7314453125
0.5378592014,-1.1010742188,0.0795898438,0.1767578125,93.0938720703,-27.0080566406,96.8322753906
0.5404369831,-1.0327148438,0.1601562500,0.1879882812,93.0938720703,-27.0080566406,96.8322753906
0.5430111885,-1.0327148438,0.1601562500,0.1879882812,95.8251953125,-25.5737304688,97.0611572266
0.5455791950,-1.0327148438,0.1601562500,0.1879882812,95.8251953125,-25.5737304688,97.0611572266
0.5481600761,-1.0327148438,0.1601562500,0.1879882812,99.7314453125,-23.3154296875,98.5870361328
0.5507311821,-0.9008789062,0.2851562500,0.2124023438,100.2960205078,-23.3154296875,98.5870361328
0.5533151627,-0.9008789062,0.2851562500,0.2124023438,100.2960205078,-23.3154296875,100.3570556641
0.5558891296,-0.9008789062,0.2851562500,0.2124023438,103.4698486328,-21.8505859375,100.3570556641
0.5585939884,-0.9008789062,0.2851562500,0.2353515625,103.4698486328,-21.8505859375,101.3031005859
0.5611770153,-0.8520507812,0.3764648438,0.2353515625,103.4088134766,-20.8435058594,101.3031005859
0.5638639927,-0.8520507812,0.3764648438,0.2353515625,103.4088134766,-20.8435058594,101.0589599609
0.5666191578,-0.8520507812,0.3764648438,0.2353515625,103.5156250000,-20.6756591797,101.0589599609
0.5693299770,-0.8520507812,0.3706054688,0.2612304688,103.5156250000,-20.6756591797,100.3875732422
0.5720381737,-0.8125000000,0.3706054688,0.2612304688,100.2197265625,-21.8200683594,100.3875732422
0.5747480392,-0.8125000000,0.3706054688,0.2612304688,100.2197265625,-21.8200683594,97.5341796875
0.5774571896,-0.8125000000,0.3706054688,0.2612304688,94.3298339844,-23.3001708984,97.5341796875
0.5801620483,-0.6552734375,0.3129882812,0.2509765625,94.3298339844,-23.3001708984,93.1091308594
0.5828740597,-0.6552734375,0.3129882812,0.2509765625,95.5047607422,-25.6500244141,93.1091308594
0.5855829716,-0.6552734375,0.3129882812,0.2509765625,95.5047607422,-25.6500244141,87.0056152344
0.5883340836,-0.6552734375,0.3129882812,0.2509765625,103.1951904297,-26.7028808594,87.0056152344
0.5910501480,-0.5361328125,0.1625976562,0.1958007812,103.1951904297,-26.7028808594,78.6132812500
0.5937571526,-0.5361328125,0.1625976562,0.1958007812,112.4572753906,-27.3590087891,78.6132812500
0.5965089798,-0.5361328125,0.1625976562,0.1958007812,112.4572753906,-27.3590087891,69.0002441406
0.5990819931,-0.5361328125,-0.0874023438,0.1572265625,114.5629882812,-28.9459228516,69.0002441406
0.6016581059,-0.4824218750,-0.0224609375,0.1572265625,114.5629882812,-28.9459228516,69.0002441406
0.6042439938,-0.4824218750,-0.0224609375,0.1572265625,112.2894287109,-35.3240966797,57.6324462891
0.6068592072,-0.4824218750,-0.0224609375,0.1572265625,112.2894287109,-35.3240966797,57.6324462891
0.6095681190,-0.4824218750,-0.1933593750,0.1557617188,112.0605468750,-41.4581298828,43.8385009766
0.6122741699,-0.4438476562,-0.1933593750,0.1557617188,112.0605468750,-41.4581298828,43.8385009766
0.6149821281,-0.4438476562,-0.1933593750,0.1557617188,111.2976074219,-43.2281494141,27.8930664062
0.6177451611,-0.4438476562,-0.1933593750,0.1557617188,111.2976074219,-43.2281494141,27.8930664062
0.6204531193,-0.4541015625,-0.3344726562,0.0415039062,108.3679199219,-41.5039062500,12.9547119141
0.6232461929,-0.4541015625,-0.3344726562,0.0415039062,108.3679199219,-41.5039062500,12.9547119141
0.6259620190,-0.4541015625,-0.3344726562,0.0415039062,103.7445068359,-39.7644042969,1.9683837891
0.6287779808,-0.4541015625,-0.3344726562,0.0415039062,103.7445068359,-39.7644042969,1.9683837891
0.6314840317,-0.4013671875,-0.3271484375,-0.0380859375,96.0693359375,-39.1235351562,-6.2408447266
0.6341900826,-0.4013671875,-0.3271484375,-0.0380859375,96.0693359375,-39.1235351562,-6.2408447266
0.6369380951,-0.4013671875,-0.3271484375,-0.0380859375,86.8225097656,-38.7420654297,-14.5874023438
0.6396431923,-0.4013671875,-0.2841796875,-0.0966796875,86.8225097656,-38.7420654297,-14.5874023438
0.6423501968,-0.3681640625,-0.2841796875,-0.0966796875,76.0345458984,-38.1927490234,-23.5290527344
0.6450581551,-0.3681640625,-0.2841796875,-0.0966796875,76.0345458984,-38.1927490234,-23.5290527344
0.6477081776,-0.3681640625,-0.2841796875,-0.0966796875,63.6749267578,-37.0025634766,-31.6467285156
0.6502830982,-0.3374023438,-0.1552734375,-0.1298828125,63.6749267578,-37.0025634766,-31.6467285156
0.6528551579,-0.3374023438,-0.1552734375,-0.1298828125,53.0242919922,-36.1480712891,-38.0706787109
0.6554310322,-0.3374023438,-0.1552734375,-0.1298828125,53.0242919922,-36.1480712891,-38.0706787109
0.6580631733,-0.3374023438,-0.1552734375,-0.1298828125,44.6166992188,-36.5753173828,-44.8760986328
0.6606380939,-0.3134765625,-0.0590820312,-0.1142578125,44.6166992188,-36.5753173828,-44.8760986328
0.6632151604,-0.3134765625,-0.0590820312,-0.1142578125,37.6892089844,-37.2314453125,-52.1087646484
0.6657931805,-0.3134765625,-0.0590820312,-0.1142578125,37.6892089844,-37.2314453125,-52.1087646484
0.6685290337,-0.3134765625,-0.0590820312,-0.1142578125,31.0058593750,-38.3911132812,-60.6384277344
0.6711080074,-0.3427734375,-0.0219726562,-0.0854492188,31.0058593750,-38.3911132812,-60.6384277344
0.6736841202,-0.3427734375,-0.0219726562,-0.0854492188,24.0936279297,-39.6575927734,-69.2291259766
0.6763591766,-0.3427734375,-0.0219726562,-0.0854492188,24.0936279297,-39.6575927734,-69.2291259766
0.6790680885,-0.3427734375,-0.0219726562,-0.0854492188,17.5018310547,-40.9545898438,-78.2165527344
0.6817750931,-0.3818359375,-0.0288085938,-0.0717773438,17.5018310547,-40.9545898438,-78.2165527344
0.6844811440,-0.3818359375,-0.0288085938,-0.0717773438,11.0321044922,-42.2515869141,-87.2192382812
0.6871960163,-0.3818359375,-0.0288085938,-0.0717773438,11.0321044922,-42.2515869141,-87.2192382812
0.6899011135,-0.3818359375,-0.0288085938,-0.0786132812,2.7923583984,-43.6096191406,-96.1151123047
0.6927161217,-0.3959960938,-0.0522460938,-0.0786132812,2.7923583984,-43.6096191406,-96.1151123047
0.6954231262,-0.3959960938,-0.0522460938,-0.0786132812,-4.5928955078,-43.8537597656,-104.0039062500
0.6980521679,-0.3959960938,-0.0522460938,-0.0786132812,-4.5928955078,-43.8537597656,-104.0039062500
0.7006261349,-0.3959960938,-0.0493164062,-0.0942382812,-12.4053955078,-44.6166992188,-110.8245849609
0.7032060623,-0.4296875000,-0.0493164062,-0.0942382812,-12.6342773438,-44.6166992188,-110.8245849609
0.7057821751,-0.4296875000,-0.0493164062,-0.0942382812,-12.6342773438,-44.9829101562,-116.9738769531
0.7084760666,-0.4296875000,-0.0493164062,-0.0942382812,-20.5688476562,-44.9829101562,-116.9738769531
0.7111821175,-0.4687500000,0.0073242188,-0.1181640625,-20.5688476562,-44.8913574219,-122.6806640625
0.7138931751,-0.4687500000,0.0073242188,-0.1181640625,-27.7252197266,-44.8913574219,-122.6806640625
0.7166070938,-0.4687500000,0.0073242188,-0.1181640625,-27.7252197266,-44.7235107422,-127.6855468750
0.7193171978,-0.4687500000,0.0073242188,-0.1181640625,-32.9437255859,-44.7235107422,-127.6855468750
0.7220270634,-0.5219726562,0.0786132812,-0.1079101562,-32.9437255859,-44.7235107422,-133.2244873047
0.7247281075,-0.5219726562,0.0786132812,-0.1079101562,-37.5366210938,-44.4030761719,-133.2244873047
0.7274420261,-0.5219726562,0.0786132812,-0.1079101562,-37.5366210938,-44.4030761719,-138.8244628906
0.7301480770,-0.5219726562,0.0786132812,-0.1196289062,-39.6270751953,-43.3044433594,-138.8244628906
0.7328550816,-0.5478515625,0.1352539062,-0.1196289062,-39.6270751953,-39.3981933594,-143.8903808594
0.7355611324,-0.5478515625,0.1352539062,-0.1196289062,-41.3360595703,-42.4041748047,-143.8903808594
0.7382700443,-0.5478515625,0.1352539062,-0.1196289062,-41.3360595703,-42.4041748047,-148.9105224609
0.7409791946,-0.5478515625,0.1708984375,-0.1064453125,-42.6940917969,-41.9311523438,-148.9105224609
0.7436850071,-0.5834960938,0.1708984375,-0.1064453125,-42.6940917969,-41.9311523438,-153.9001464844
0.7463870049,-0.5834960938,0.1708984375,-0.1064453125,-43.1671142578,-41.2139892578,-153.9001464844
0.7489659786,-0.5834960938,0.1708984375,-0.1064453125,-43.1671142578,-41.2139892578,-158.7524414062
0.7515430450,-0.6303710938,0.2177734375,-0.1005859375,-43.3654785156,-40.8782958984,-158.7524414062
0.7541160583,-0.6303710938,0.2177734375,-0.1005859375,-43.3654785156,-40.8782958984,-162.6586914062
0.7568621635,-0.6303710938,0.2177734375,-0.1005859375,-42.3431396484,-40.0848388672,-163.5284423828
0.7595670223,-0.6303710938,0.2177734375,-0.1005859375,-42.3431396484,-40.0848388672,-167.4346923828
0.7622730732,-0.6704101562,0.2866210938,-0.0874023438,-39.6270751953,-39.3981933594,-167.3889160156
0.7649831772,-0.6704101562,0.2866210938,-0.0874023438,-39.6270751953,-39.3981933594,-171.2951660156
0.7677400112,-0.6704101562,0.2866210938,-0.0874023438,-37.0330810547,-38.6657714844,-171.4630126953
0.7704491615,-0.6704101562,0.2866210938,-0.1020507812,-37.0330810547,-38.6657714844,-175.3692626953
0.7731549740,-0.7109375000,0.3432617188,-0.1020507812,-33.6303710938,-36.9567871094,-175.3387451172
0.7758650780,-0.7109375000,0.3432617188,-0.1020507812,-33.6303710938,-36.9567871094,-179.2449951172
0.7785761356,-0.7109375000,0.3432617188,-0.1020507812,-29.8919677734,-36.4532470703,-178.9093017578
0.7812821865,-0.7109375000,0.3618164062,-0.1186523438,-29.8919677734,-36.4532470703,-182.8155517578
0.7839930058,-0.7446289062,0.3618164062,-0.1186523438,-26.0467529297,-35.9191894531,-181.5185546875
0.7867419720,-0.7446289062,0.3618164062,-0.1186523438,-26.0467529297,-35.9191894531,-185.4248046875
0.7894489765,-0.7446289062,0.3618164062,-0.1186523438,-22.7966308594,-35.8123779297,-184.1125488281
0.7921559811,-0.7695312500,0.3759765625,-0.1313476562,-22.7966308594,-35.8123779297,-184.1125488281
0.7948679924,-0.7695312500,0.3759765625,-0.1313476562,-20.9503173828,-35.5224609375,-186.7218017578
0.7975261211,-0.7695312500,0.3759765625,-0.1313476562,-20.9503173828,-35.5224609375,-186.7218017578
0.8001019955,-0.7695312500,0.3759765625,-0.1313476562,-19.1802978516,-34.8205566406,-188.9343261719
0.8026721478,-0.8051757812,0.3706054688,-0.1420898438,-19.1802978516,-34.8205566406,-188.9343261719
0.8052551746,-0.8051757812,0.3706054688,-0.1420898438,-18.6462402344,-33.7982177734,-190.5822753906
0.8079690933,-0.8051757812,0.3706054688,-0.1420898438,-18.6462402344,-33.7982177734,-190.5822753906
0.8107621670,-0.8051757812,0.3706054688,-0.1420898438,-19.4091796875,-33.4320068359,-192.3065185547
0.8133502007,-0.8496093750,0.3569335938,-0.1533203125,-19.4091796875,-33.4320068359,-192.3065185547
0.8159291744,-0.8496093750,0.3569335938,-0.1533203125,-20.6298828125,-32.3638916016,-193.4509277344
0.8186800480,-0.8496093750,0.3569335938,-0.1533203125,-20.6298828125,-32.3638916016,-193.4509277344
0.8215479851,-0.8496093750,0.3334960938,-0.1547851562,-23.1475830078,-30.9600830078,-193.4356689453
0.8242239952,-0.8730468750,0.3334960938,-0.1547851562,-23.1475830078,-30.9600830078,-193.4356689453
0.8274931908,-0.8730468750,0.3334960938,-0.1547851562,-26.9927978516,-29.6630859375,-193.2983398438
0.8300690651,-0.8730468750,0.3334960938,-0.1547851562,-26.9927978516,-29.6630859375,-193.2983398438
0.8326511383,-0.8964843750,0.3173828125,-0.1557617188,-33.1268310547,-27.3895263672,-192.7185058594
0.8352241516,-0.8964843750,0.3173828125,-0.1557617188,-33.1268310547,-27.3895263672,-192.7185058594
0.8378040791,-0.8964843750,0.3173828125,-0.1557617188,-40.4052734375,-26.0925292969,-192.1386718750
0.8403730392,-0.8964843750,0.3173828125,-0.1557617188,-40.4052734375,-26.0925292969,-192.1386718750
0.8429441452,-0.9130859375,0.3066406250,-0.1494140625,-47.6989746094,-24.2614746094,-191.5740966797
0.8455221653,-0.9130859375,0.3066406250,-0.1494140625,-47.6989746094,-24.2614746094,-191.5740966797
0.8481001854,-0.9130859375,0.3066406250,-0.1494140625,-55.0994873047,-22.7966308594,-191.7266845703
0.8506731987,-0.9130859375,0.3066406250,-0.1494140625,-55.0994873047,-22.7966308594,-191.7266845703
0.8532540798,-0.9208984375,0.3046875000,-0.1503906250,-62.5457763672,-21.1486816406,-192.5201416016
0.8558220863,-0.9208984375,0.3046875000,-0.1503906250,-62.5457763672,-21.1486816406,-192.5201416016
0.8584439754,-0.9208984375,0.3046875000,-0.1503906250,-66.4520263672,-19.7448730469,-192.5811767578
0.8610160351,-0.9208984375,0.3046875000,-0.1503906250,-69.5800781250,-19.7448730469,-192.5811767578
0.8635871410,-0.9267578125,0.3120117188,-0.1425781250,-69.5800781250,-15.8386230469,-192.5964355469
0.8661630154,-0.9267578125,0.3120117188,-0.1425781250,-75.5157470703,-17.8375244141,-192.5964355469
0.8687431812,-0.9267578125,0.3120117188,-0.1425781250,-75.5157470703,-17.8375244141,-192.8710937500
0.8713181019,-0.9267578125,0.3120117188,-0.1425781250,-81.5429687500,-15.5487060547,-192.8710937500
0.8739051819,-0.9355468750,0.3037109375,-0.1333007812,-81.5429687500,-15.5487060547,-192.8710937500
0.8766460419,-0.9355468750,0.3037109375,-0.1333007812,-86.6394042969,-13.5803222656,-193.2983398438
0.8792331219,-0.9355468750,0.3037109375,-0.1333007812,-86.6394042969,-13.5803222656,-193.2983398438
0.8818120956,-0.9355468750,0.3037109375,-0.1015625000,-91.2780761719,-11.5814208984,-194.4122314453
0.8845071793,-0.9614257812,0.2910156250,-0.1015625000,-91.2780761719,-11.5814208984,-194.4122314453
0.8872749805,-0.9614257812,0.2910156250,-0.1015625000,-96.2982177734,-8.9263916016,-194.9615478516
0.8899781704,-0.9614257812,0.2910156250,-0.1015625000,-96.2982177734,-8.9263916016,-194.9615478516
0.8926820755,-0.9863281250,0.2895507812,-0.0869140625,-101.1505126953,-7.3699951172,-195.2819824219
0.8953900337,-0.9863281250,0.2895507812,-0.0869140625,-101.1505126953,-7.3699951172,-195.2819824219
0.8980550766,-0.9863281250,0.2895507812,-0.0869140625,-106.0180664062,-4.9591064453,-194.8852539062
0.9006340504,-0.9863281250,0.2895507812,-0.0869140625,-106.0180664062,-4.9591064453,-194.8852539062
0.9032061100,-0.9970703125,0.3046875000,-0.0732421875,-110.3668212891,-2.0904541016,-194.3511962891
0.9057819843,-0.9970703125,0.3046875000,-0.0732421875,-110.3668212891,-2.0904541016,-194.3511962891
0.9084801674,-0.9970703125,0.3046875000,-0.0732421875,-112.6861572266,-0.0610351562,-193.0389404297
0.9111871719,-0.9970703125,0.3046875000,-0.0732421875,-112.6861572266,-0.0610351562,-193.0389404297
0.9139261246,-1.0083007812,0.3203125000,-0.0556640625,-113.4033203125,1.3275146484,-192.5506591797
0.9166681767,-1.0083007812,0.3203125000,-0.0556640625,-113.4033203125,1.3275146484,-192.5506591797
0.9193329811,-1.0083007812,0.3203125000,-0.0556640625,-112.8387451172,3.0975341797,-193.2678222656
0.9220631123,-1.0083007812,0.3203125000,-0.0395507812,-112.8387451172,3.0975341797,-193.2678222656
0.9249851704,-1.0224609375,0.3071289062,-0.0395507812,-111.4654541016,5.7067871094,-193.7255859375
0.9277400970,-1.0224609375,0.3071289062,-0.0395507812,-111.4654541016,5.7067871094,-193.7255859375
0.9304461479,-1.0224609375,0.3071289062,-0.0395507812,-109.3444824219,7.3242187500,-193.6187744141
0.9331521988,-1.0405273438,0.2846679688,-0.0180664062,-109.3444824219,7.3242187500,-193.6187744141
0.9358530045,-1.0405273438,0.2846679688,-0.0180664062,-107.7117919922,8.2244873047,-192.2454833984
0.9385681152,-1.0405273438,0.2846679688,-0.0180664062,-107.7117919922,8.2244873047,-192.2454833984
0.9412710667,-1.0405273438,0.2846679688,-0.0180664062,-105.6976318359,9.6740722656,-190.4602050781
0.9439780712,-1.0659179688,0.2827148438,-0.0009765625,-105.6976318359,9.6740722656,-190.4602050781
0.9467132092,-1.0659179688,0.2827148438,-0.0009765625,-102.9510498047,11.8408203125,-187.9882812500
0.9494152069,-1.0659179688,0.2827148438,-0.0009765625,-102.9510498047,11.8408203125,-187.9882812500
0.9519951344,-1.0659179688,0.2827148438,0.1240234375,-101.8524169922,13.1988525391,-185.3027343750
0.9545710087,-1.0605468750,0.2758789062,0.0258789062,-101.8524169922,13.1988525391,-185.3027343750
0.9571599960,-1.0605468750,0.2758789062,0.0258789062,-100.7690429688,13.3972167969,-181.7626953125
0.9597439766,-1.0605468750,0.2758789062,0.0258789062,-100.7690429688,13.3972167969,-181.7626953125
0.9623281956,-1.0605468750,0.2758789062,0.0097656250,-98.8922119141,15.2282714844,-178.8024902344
0.9649131298,-1.0615234375,0.2587890625,0.0097656250,-98.8922119141,15.2282714844,-178.8024902344
0.9676311016,-1.0615234375,0.2587890625,0.0097656250,-96.7102050781,17.7764892578,-175.5981445312
0.9702081680,-1.0615234375,0.2587890625,0.0097656250,-96.7102050781,17.7764892578,-175.5981445312
0.9727861881,-1.0615234375,0.2534179688,-0.0107421875,-96.7102050781,20.6298828125,-172.1496582031
0.9753620625,-1.0673828125,0.2534179688,-0.0107421875,-94.8333740234,20.6298828125,-172.1496582031
0.9781410694,-1.0673828125,0.2534179688,-0.0107421875,-94.8333740234,22.7508544922,-168.4875488281
0.9808480740,-1.0673828125,0.2534179688,-0.0107421875,-94.3450927734,22.7508544922,-168.4875488281
0.9835510254,-1.0693359375,0.2480468750,-0.0039062500,-90.4388427734,24.2919921875,-164.4592285156
0.9862730503,-1.0693359375,0.2480468750,-0.0039062500,-93.3837890625,24.2919921875,-164.4592285156
0.9889800549,-1.0693359375,0.2480468750,-0.0039062500,-93.3837890625,25.1007080078,-159.5916748047
0.9916892052,-1.0693359375,0.2480468750,-0.0039062500,-91.5069580078,25.1007080078,-159.5916748047
0.9944009781,-1.0439453125,0.2739257812,0.0200195312,-91.5069580078,26.1535644531,-154.5715332031
0.9971101284,-1.0439453125,0.2739257812,0.0200195312,-90.5761718750,26.1535644531,-154.5715332031
0.9996881485,-1.0439453125,0.2739257812,0.0200195312,-90.5761718750,30.0598144531,-149.5056152344
1.0022680759,-1.0439453125,0.2739257812,0.0200195312,-89.5538330078,27.5878906250,-149.5056152344
1.0048480034,-0.9853515625,0.2885742188,0.0288085938,-89.5538330078,27.5878906250,-144.4702148438
1.0075500011,-0.9853515625,0.2885742188,0.0288085938,-88.1042480469,28.1372070312,-144.4702148438
1.0102601051,-0.9853515625,0.2885742188,0.0288085938,-88.1042480469,28.1372070312,-139.6179199219
1.0130732059,-0.9853515625,0.2885742188,0.0610351562,-85.7696533203,27.2979736328,-139.6179199219
1.0158240795,-0.9150390625,0.3222656250,0.0610351562,-85.7696533203,27.2979736328,-133.8958740234
1.0186431408,-0.9150390625,0.3222656250,0.0610351562,-82.4279785156,26.7486572266,-133.8958740234
1.0213232040,-0.9150390625,0.3222656250,0.0610351562,-77.3773193359,25.7568359375,-128.2806396484
1.0245490074,-0.8159179688,0.3701171875,0.0981445312,-77.3773193359,25.7568359375,-128.2806396484
1.0271670818,-0.8159179688,0.3701171875,0.0981445312,-73.4710693359,22.7813720703,-122.3754882812
1.0297501087,-0.8159179688,0.3701171875,0.0981445312,-72.2656250000,22.7813720703,-122.3754882812
1.0323200226,-0.8159179688,0.3701171875,0.0981445312,-72.2656250000,18.8751220703,-115.9973144531
1.0348951817,-0.7319335938,0.3989257812,0.1215820312,-66.9555664062,19.0582275391,-115.9973144531
1.0375599861,-0.7319335938,0.3989257812,0.1215820312,-66.9555664062,19.0582275391,-109.2681884766
1.0401351452,-0.7319335938,0.3989257812,0.1215820312,-61.5539550781,15.9912109375,-109.2681884766
1.0427119732,-0.7319335938,0.3989257812,0.1215820312,-61.5539550781,15.9912109375,-105.3619384766
1.0452821255,-0.6757812500,0.4077148438,0.1699218750,-56.4880371094,11.8560791016,-102.7984619141
1.0479149818,-0.6757812500,0.4077148438,0.1699218750,-56.4880371094,11.8560791016,-102.7984619141
1.0504870415,-0.6757812500,0.4077148438,0.1699218750,-50.4150390625,8.0108642578,-96.2677001953
1.0530571938,-0.6757812500,0.4077148438,0.1699218750,-50.4150390625,8.0108642578,-96.2677001953
1.0556321144,-0.6640625000,0.4516601562,0.1518554688,-42.5415039062,4.0130615234,-88.7298583984
1.0582699776,-0.6640625000,0.4516601562,0.1518554688,-42.5415039062,4.0130615234,-88.7298583984
1.0608401299,-0.6640625000,0.4516601562,0.1518554688,-33.8897705078,0.7629394531,-80.5664062500
1.0634160042,-0.6640625000,0.4516601562,0.1459960938,-33.8897705078,0.7629394531,-80.5664062500
1.0659911633,-0.6435546875,0.5151367188,0.1459960938,-24.3682861328,-1.9531250000,-72.3876953125
1.0687370300,-0.6435546875,0.5151367188,0.1459960938,-24.3682861328,-1.9531250000,-72.3876953125
1.0713171959,-0.6435546875,0.5151367188,0.1459960938,-13.8397216797,-4.6844482422,-64.1784667969
1.0738921165,-0.6435546875,0.5458984375,0.1323242188,-13.8397216797,-4.6844482422,-64.1784667969
1.0767350197,-0.6645507812,0.5458984375,0.1323242188,-3.4484863281,-6.5765380859,-55.2215576172
1.0794370174,-0.6645507812,0.5458984375,0.1323242188,-3.4484863281,-6.5765380859,-55.2215576172
1.0821352005,-0.6645507812,0.5458984375,0.1323242188,6.4544677734,-7.6751708984,-45.4101562500
1.0848410130,-0.6611328125,0.5253906250,0.1103515625,6.4544677734,-7.6751708984,-45.4101562500
1.0874941349,-0.6611328125,0.5253906250,0.1103515625,15.0299072266,-7.7362060547,-35.6445312500
1.0900690556,-0.6611328125,0.5253906250,0.1103515625,15.0299072266,-7.7362060547,-35.6445312500
1.0926480293,-0.6611328125,0.5253906250,0.1103515625,21.6064453125,-7.0343017578,-25.3906250000
1.0952200890,-0.6708984375,0.4721679688,0.0673828125,21.6064453125,-7.0343017578,-25.3906250000
1.0979239941,-0.6708984375,0.4721679688,0.0673828125,25.5126953125,-5.9814453125,-15.8386230469
1.1006281376,-0.6708984375,0.4721679688,0.0673828125,25.4821777344,-5.9814453125,-15.8386230469
1.1033301353,-0.6708984375,0.4721679688,0.0673828125,29.3884277344,-3.8604736328,-5.6304931641
1.1060340405,-0.6835937500,0.4340820312,0.0346679688,27.8015136719,-3.8604736328,-5.6304931641
1.1087460518,-0.6835937500,0.4340820312,0.0346679688,27.8015136719,-1.3732910156,3.8299560547
1.1114451885,-0.6835937500,0.4340820312,0.0346679688,28.1524658203,-1.3732910156,3.8299560547
1.1141490936,-0.6835937500,0.4179687500,0.0219726562,24.2462158203,0.3814697266,14.0686035156
1.1168541908,-0.6909179688,0.4179687500,0.0219726562,27.1301269531,0.3814697266,14.0686035156
1.1195631027,-0.6909179688,0.4179687500,0.0219726562,27.1301269531,1.7852783203,24.5819091797
1.1222681999,-0.6909179688,0.4179687500,0.0219726562,25.0701904297,1.7852783203,24.5819091797
1.1249670982,-0.7045898438,0.4272460938,0.0351562500,25.0701904297,3.2348632812,34.7595214844
1.1277241707,-0.7045898438,0.4272460938,0.0351562500,22.0336914062,3.2348632812,34.7595214844
1.1304249763,-0.7045898438,0.4272460938,0.0351562500,22.0336914062,4.1351318359,45.2423095703
1.1332790852,-0.7045898438,0.4272460938,0.0351562500,19.7296142578,4.1351318359,45.2423095703
1.1359920502,-0.7143554688,0.4492187500,0.0458984375,15.8233642578,4.0893554688,55.1605224609
1.1386201382,-0.7143554688,0.4492187500,0.0458984375,16.3879394531,4.0893554688,55.1605224609
1.1411921978,-0.7143554688,0.4492187500,0.0458984375,16.3879394531,4.0893554688,64.2700195312
1.1438701153,-0.7143554688,0.4492187500,0.0458984375,12.6800537109,4.2266845703,64.2700195312
1.1465141773,-0.7026367188,0.4555664062,0.0708007812,12.6800537109,4.2266845703,73.2574462891
1.1492211819,-0.7026367188,0.4555664062,0.0708007812,8.4381103516,4.1503906250,73.2574462891
1.1519200802,-0.7026367188,0.4555664062,0.0708007812,8.4381103516,4.1503906250,82.0922851562
1.1546220779,-0.7026367188,0.4687500000,0.1245117188,4.0130615234,3.9825439453,82.0922851562
1.1573309898,-0.6840820312,0.4687500000,0.1245117188,4.0130615234,3.9825439453,90.5151367188
1.1600310802,-0.6840820312,0.4687500000,0.1245117188,1.4190673828,2.7618408203,90.5151367188
1.1627290249,-0.6840820312,0.4687500000,0.1245117188,1.4190673828,2.7618408203,99.0142822266
1.1654272079,-0.6684570312,0.4916992188,0.1416015625,-0.1678466797,1.3580322266,99.0142822266
1.1680531502,-0.6684570312,0.4916992188,0.1416015625,-0.1678466797,1.3580322266,104.7668457031
1.1706240177,-0.6684570312,0.4916992188,0.1416015625,-2.1362304688,-0.7019042969,104.7668457031
1.1731882095,-0.6684570312,0.4916992188,0.1416015625,-2.1362304688,-0.7019042969,104.7668457031
1.1757581234,-0.7915039062,0.1611328125,0.0659179688,-2.1362304688,-2.8076171875,98.0072021484
1.1784551144,-0.7915039062,0.1611328125,0.0659179688,-2.1362304688,-2.8076171875,98.0072021484
1.1810259819,-0.7915039062,0.1611328125,0.0659179688,-15.2587890625,-0.2288818359,101.9134521484
1.1836030483,-0.7915039062,0.1611328125,0.0659179688,-15.2587890625,-0.2288818359,101.9134521484
1.1861841679,-0.8593750000,-0.2612304688,-0.0712890625,-22.2015380859,3.2958984375,106.7657470703
1.1890480518,-0.8593750000,-0.2612304688,-0.0712890625,-22.2015380859,3.2958984375,106.7657470703
1.1917521954,-0.8593750000,-0.2612304688,-0.0712890625,-24.5056152344,5.2490234375,99.7009277344
1.1944580078,-0.8593750000,-0.2612304688,-0.0800781250,-24.5056152344,5.2490234375,99.7009277344
1.1971709728,-0.9965820312,-0.9467773438,-0.0800781250,-36.2243652344,4.5623779297,95.1995849609
1.1998751163,-0.9965820312,-0.9467773438,-0.0800781250,-36.2243652344,4.5623779297,95.1995849609
1.2025849819,-0.9965820312,-0.9467773438,-0.0800781250,-46.9818115234,-0.7629394531,95.7489013672
1.2052891254,-1.1215820312,-0.8808593750,0.0214843750,-46.9818115234,-0.7629394531,95.7489013672
1.2081182003,-1.0131835938,-0.8808593750,0.0214843750,-53.4210205078,-6.9122314453,99.4873046875
1.2108161449,-1.0131835938,-0.8808593750,0.0214843750,-53.4210205078,-6.9122314453,99.4873046875
1.2135171890,-1.0131835938,-0.8808593750,0.0214843750,-56.6101074219,-7.5378417969,107.6507568359
1.2162320614,-1.0737304688,-0.1542968750,-0.0424804688,-56.6101074219,-7.5378417969,107.6507568359
1.2188091278,-1.0737304688,-0.1542968750,-0.0424804688,-59.7381591797,-6.9122314453,119.4458007812
1.2214190960,-1.0737304688,-0.1542968750,-0.0424804688,-59.7381591797,-6.9122314453,119.4458007812
1.2239902020,-1.0737304688,-0.1542968750,-0.0424804688,-64.7125244141,-5.3863525391,130.3863525391
1.2266101837,-1.0942382812,0.4814453125,0.0024414062,-64.7125244141,-5.3863525391,130.3863525391
1.2292861938,-1.0942382812,0.4814453125,0.0024414062,-66.1468505859,-6.1187744141,137.0697021484
1.2320539951,-1.0942382812,0.4814453125,0.0024414062,-66.1468505859,-6.1187744141,137.0697021484
1.2347190380,-1.0942382812,0.4814453125,0.0024414062,-64.9566650391,-11.1389160156,136.5051269531
1.2379870415,-1.0073242188,0.4467773438,0.1123046875,-64.9566650391,-11.1389160156,136.5051269531
1.2405641079,-1.0073242188,0.4467773438,0.1123046875,-62.9882812500,-18.5241699219,132.8277587891
1.2431349754,-1.0073242188,0.4467773438,0.1123046875,-62.9882812500,-18.5241699219,132.8277587891
1.2457101345,-0.7573242188,0.2265625000,0.0058593750,-58.0291748047,-25.6500244141,127.7770996094
1.2485210896,-0.8500976562,0.2265625000,0.0058593750,-58.0291748047,-25.6500244141,127.7770996094
1.2510972023,-0.8500976562,0.2265625000,0.0058593750,-47.8668212891,-27.3742675781,123.3062744141
1.2536740303,-0.8500976562,0.2265625000,0.0058593750,-47.8668212891,-27.3742675781,123.3062744141
1.2562670708,-0.7763671875,0.2075195312,-0.2158203125,-38.1317138672,-25.5584716797,118.9880371094
1.2588450909,-0.7763671875,0.2075195312,-0.2158203125,-38.1317138672,-25.5584716797,118.9880371094
1.2614250183,-0.7763671875,0.2075195312,-0.2158203125,-32.5622558594,-24.1699218750,115.2801513672
1.2640030384,-0.7763671875,0.2075195312,-0.2158203125,-32.5622558594,-24.1699218750,115.2801513672
1.2665841579,-0.7612304688,0.1850585938,-0.1762695312,-32.5622558594,-26.4739990234,111.2060546875
1.2691681385,-0.7612304688,0.1850585938,-0.1762695312,-30.0445556641,-26.4739990234,111.2060546875
1.2718470097,-0.7612304688,0.1850585938,-0.1762695312,-30.0445556641,-30.3802490234,107.4218750000
1.2744231224,-0.7612304688,0.1850585938,-0.1762695312,-26.5350341797,-30.2886962891,107.4218750000
1.2769989967,-0.7338867188,0.1083984375,-0.0219726562,-26.5350341797,-30.2886962891,104.0496826172
1.2795741558,-0.7338867188,0.1083984375,-0.0219726562,-21.8048095703,-31.9519042969,104.0496826172
1.2821521759,-0.7338867188,0.1083984375,-0.0219726562,-21.8048095703,-31.9519042969,100.1434326172
1.2847290039,-0.7338867188,0.1083984375,-0.0219726562,-18.5394287109,-32.5775146484,100.8911132812
1.2874491215,-0.7426757812,0.1367187500,0.0683593750,-18.5394287109,-32.5775146484,100.8911132812
1.2900271416,-0.7426757812,0.1367187500,0.0683593750,-19.7601318359,-33.7066650391,97.3968505859
1.2926042080,-0.7426757812,0.1367187500,0.0683593750,-19.7601318359,-33.7066650391,97.3968505859
1.2951860428,-0.7426757812,0.1367187500,0.0683593750,-23.8800048828,-35.3240966797,93.5363769531
1.2978551388,-0.7392578125,0.1386718750,0.1137695312,-23.8800048828,-35.3240966797,93.5363769531
1.3004221916,-0.7392578125,0.1386718750,0.1137695312,-29.4799804688,-36.0412597656,89.4165039062
1.3030030727,-0.7392578125,0.1386718750,0.1137695312,-29.4799804688,-36.0412597656,89.4165039062
1.3055770397,-0.7392578125,0.1386718750,0.2114257812,-34.1339111328,-36.4990234375,86.6699218750
1.3081591129,-0.8061523438,0.3178710938,0.2114257812,-34.1339111328,-36.4990234375,86.6699218750
1.3107399940,-0.8061523438,0.3178710938,0.2114257812,-34.0576171875,-37.6434326172,90.7440185547
1.3133111000,-0.8061523438,0.3178710938,0.2114257812,-34.0576171875,-37.6434326172,90.7440185547
1.3158869743,-0.8061523438,0.6928710938,0.2133789062,-31.5704345703,-36.7431640625,96.5728759766
1.3184721470,-0.9282226562,0.6972656250,0.2133789062,-31.5704345703,-36.7431640625,96.5728759766
1.3210430145,-0.9282226562,0.6972656250,0.2133789062,-15.9454345703,-30.7922363281,90.3625488281
1.3237271309,-0.9282226562,0.6972656250,0.2133789062,-19.2108154297,-30.7922363281,90.3625488281
1.3264889717,-0.8032226562,0.4355468750,0.0449218750,-19.2108154297,-23.9868164062,77.6214599609
1.3290760517,-0.7998046875,0.4355468750,0.0449218750,-1.4343261719,-23.9868164062,77.6214599609
1.3321790695,-0.7998046875,0.4355468750,0.0449218750,3.3111572266,-23.8800048828,67.8100585938
1.3356630802,-0.7998046875,0.4355468750,-0.0800781250,3.3111572266,-23.8800048828,67.8100585938
1.3382940292,-0.6850585938,0.2358398438,-0.0283203125,-2.8076171875,-25.8789062500,61.1877441406
1.3408679962,-0.6850585938,0.2358398438,-0.0283203125,-2.8076171875,-25.8789062500,61.1877441406
1.3434340954,-0.6850585938,0.2358398438,-0.0283203125,-0.8850097656,-26.4739990234,56.2133789062
1.3460121155,-0.6850585938,0.2358398438,-0.0410156250,-0.8850097656,-26.4739990234,56.2133789062
1.3486301899,-0.6914062500,0.2036132812,-0.0410156250,7.2021484375,-25.2380371094,51.1016845703
1.3512079716,-0.6914062500,0.2036132812,-0.0410156250,7.2021484375,-25.2380371094,51.1016845703
1.3537800312,-0.6914062500,0.2036132812,-0.0410156250,15.0146484375,-24.1088867188,43.8842773438
1.3563539982,-0.6914062500,0.3286132812,-0.0029296875,13.8549804688,-24.1088867188,43.8842773438
1.3589351177,-0.7084960938,0.2978515625,-0.0029296875,13.8549804688,-24.1088867188,36.0565185547
1.3615100384,-0.7084960938,0.2978515625,-0.0029296875,22.6898193359,-23.6206054688,36.0565185547
1.3640871048,-0.7084960938,0.2978515625,-0.0029296875,22.6898193359,-23.6206054688,28.6865234375
1.3667111397,-0.7084960938,0.2070312500,0.0112304688,31.7077636719,-23.6968994141,28.6865234375
1.3692831993,-0.7207031250,0.2070312500,0.0112304688,31.7077636719,-23.6968994141,20.8740234375
1.3718621731,-0.7207031250,0.2070312500,0.0112304688,38.4826660156,-24.2767333984,23.1323242188
1.3744380474,-0.7207031250,0.2070312500,0.0112304688,38.4826660156,-24.2767333984,23.1323242188
1.3770930767,-0.7397460938,0.1489257812,-0.0078125000,41.9616699219,-24.3835449219,19.4854736328
1.3796710968,-0.7397460938,0.1489257812,-0.0078125000,41.9616699219,-24.3835449219,19.4854736328
1.3822481632,-0.7397460938,0.1489257812,-0.0078125000,40.7562255859,-24.8260498047,17.3034667969
1.3848211765,-0.7397460938,0.1489257812,-0.0078125000,40.7562255859,-24.8260498047,17.3034667969
1.3875072002,-0.7465820312,0.1113281250,-0.0185546875,36.4379882812,-25.5279541016,15.8843994141
1.3900880814,-0.7465820312,0.1113281250,-0.0185546875,36.4379882812,-25.5279541016,15.8843994141
1.3926701546,-0.7465820312,0.1113281250,-0.0185546875,29.5715332031,-26.0009765625,15.9149169922
1.3952450752,-0.7465820312,0.1113281250,-0.0185546875,29.5715332031,-26.0009765625,15.9149169922
1.3979871273,-0.7348632812,0.0693359375,0.0083007812,22.7661132812,-26.4587402344,15.8081054688
1.4005720615,-0.7348632812,0.0693359375,0.0083007812,22.7661132812,-26.4587402344,15.8081054688
1.4031460285,-0.7348632812,0.0693359375,0.0083007812,17.2729492188,-26.9470214844,16.3574218750
1.4057199955,-0.7348632812,0.0693359375,0.0083007812,17.2729492188,-26.9470214844,16.3574218750
1.4083051682,-0.7421875000,0.0483398438,0.0151367188,9.4604492188,-27.0690917969,17.4560546875
1.4108760357,-0.7421875000,0.0483398438,0.0151367188,11.6577148438,-27.0690917969,17.4560546875
1.4134571552,-0.7421875000,0.0483398438,0.0151367188,11.6577148438,-30.9753417969,18.1884765625
1.4160301685,-0.7421875000,0.0483398438,0.0151367188,6.7291259766,-27.7252197266,18.1884765625
1.4187881947,-0.7407226562,0.0634765625,0.0410156250,6.7291259766,-27.7252197266,19.2718505859
1.4215021133,-0.7407226562,0.0634765625,0.0410156250,2.3193359375,-27.8320312500,19.2718505859
1.4242110252,-0.7407226562,0.0634765625,0.0410156250,2.3193359375,-23.9257812500,19.8669433594
1.4269280434,-0.7407226562,0.0634765625,0.0712890625,0.0457763672,-27.0080566406,19.8669433594
1.4296371937,-0.7241210938,0.0878906250,0.0712890625,0.0457763672,-27.0080566406,19.6838378906
1.4323430061,-0.7241210938,0.0878906250,0.0712890625,-0.2593994141,-25.8789062500,19.6838378906
1.4350531101,-0.7241210938,0.0878906250,0.0712890625,-0.2593994141,-25.8789062500,19.0887451172
1.4377720356,-0.7172851562,0.1142578125,0.0869140625,0.3204345703,-24.5208740234,19.0887451172
1.4404771328,-0.7172851562,0.1142578125,0.0869140625,0.3204345703,-20.6146240234,18.3410644531
1.4432551861,-0.7172851562,0.1142578125,0.0869140625,0.6866455078,-23.4375000000,18.3410644531
1.4459631443,-0.7172851562,0.1142578125,0.0869140625,0.6866455078,-23.4375000000,17.6391601562
1.4486691952,-0.7207031250,0.1201171875,0.0878906250,0.6256103516,-21.8200683594,17.6391601562
1.4513790607,-0.7207031250,0.1201171875,0.0878906250,0.6256103516,-21.8200683594,16.9982910156
1.4540860653,-0.7207031250,0.1201171875,0.0878906250,2.8228759766,-21.1639404297,16.9982910156
1.4567921162,-0.7207031250,0.1201171875,0.0878906250,2.8228759766,-21.1639404297,16.1895751953
1.4593720436,-0.7148437500,0.1220703125,0.1010742188,6.7291259766,-20.5535888672,16.1895751953
1.4620630741,-0.7148437500,0.1220703125,0.1010742188,6.7291259766,-20.5535888672,14.8315429688
1.4646391869,-0.7148437500,0.1220703125,0.1010742188,11.5203857422,-19.9127197266,14.8315429688
1.4672710896,-0.7148437500,0.1220703125,0.1025390625,11.5203857422,-19.9127197266,14.8315429688
1.4699800014,-0.7021484375,0.1220703125,0.1025390625,17.4102783203,-19.0429687500,14.4042968750
1.4726881981,-0.7021484375,0.1220703125,0.1025390625,17.4102783203,-19.0429687500,14.4042968750
1.4754011631,-0.7021484375,0.1220703125,0.1025390625,23.3306884766,-18.4631347656,14.0533447266
1.4780650139,-0.7011718750,0.1220703125,0.0693359375,23.3306884766,-18.4631347656,14.0533447266
1.4806411266,-0.7011718750,0.1220703125,0.0693359375,29.4647216797,-17.3339843750,14.0686035156
1.4832220078,-0.7011718750,0.1220703125,0.0693359375,29.4647216797,-17.3339843750,14.0686035156
1.4857971668,-0.7011718750,0.1220703125,0.0693359375,34.3933105469,-16.8762207031,13.8397216797
1.4885351658,-0.7172851562,0.1240234375,0.0595703125,34.3933105469,-16.8762207031,13.8397216797
1.4911119938,-0.7172851562,0.1240234375,0.0595703125,37.1856689453,-16.8304443359,14.2974853516
1.4936900139,-0.7172851562,0.1240234375,0.0595703125,37.1856689453,-16.8304443359,14.2974853516
1.4963572025,-0.7172851562,0.1240234375,0.0595703125,38.2690429688,-16.9830322266,15.1824951172
1.4990630150,-0.7221679688,0.0908203125,0.0781250000,38.2690429688,-16.9830322266,15.1824951172
1.5017721653,-0.7221679688,0.0908203125,0.0781250000,40.5120849609,-17.6391601562,15.8691406250
1.5044770241,-0.7221679688,0.0908203125,0.0781250000,40.5120849609,-17.6391601562,15.8691406250
1.5071551800,-0.7221679688,0.0908203125,0.0781250000,45.6695556641,-16.6778564453,17.3797607422
1.5097332001,-0.7333984375,0.0717773438,0.0751953125,45.6695556641,-16.6778564453,17.3797607422
1.5123100281,-0.7333984375,0.0717773438,0.0751953125,49.4689941406,-16.3574218750,19.8669433594
1.5148880482,-0.7333984375,0.0717773438,0.0751953125,49.4689941406,-16.3574218750,19.8669433594
1.5175611973,-0.7333984375,0.0717773438,0.0268554688,47.1038818359,-15.7775878906,21.4996337891
1.5202631950,-0.7568359375,0.0317382812,0.0268554688,47.1038818359,-15.7775878906,21.4996337891
1.5229680538,-0.7568359375,0.0317382812,0.0268554688,40.6951904297,-16.0217285156,24.0173339844
1.5257790089,-0.7568359375,0.0317382812,0.0268554688,40.6951904297,-16.0217285156,24.0173339844
1.5285441875,-0.7421875000,0.0556640625,0.0126953125,32.6385498047,-17.3339843750,25.8331298828
1.5311200619,-0.7421875000,0.0556640625,0.0126953125,32.6385498047,-17.3339843750,25.8331298828
1.5337049961,-0.7421875000,0.0556640625,0.0126953125,26.6265869141,-17.9290771484,28.7017822266
1.5363941193,-0.7421875000,0.0556640625,0.0126953125,26.6265869141,-17.9290771484,28.7017822266
1.5390651226,-0.7255859375,0.1152343750,0.0371093750,23.1475830078,-18.3715820312,30.4870605469
1.5418419838,-0.7255859375,0.1152343750,0.0371093750,23.1475830078,-18.3715820312,30.4870605469
1.5445141792,-0.7255859375,0.1152343750,0.0371093750,22.5219726562,-18.5394287109,30.9143066406
1.5481309891,-0.7255859375,0.1152343750,0.0541992188,22.5219726562,-18.5394287109,30.9143066406
1.5507080555,-0.7216796875,0.1225585938,0.0541992188,22.2015380859,-17.8375244141,31.7535400391
1.5532810688,-0.7216796875,0.1225585938,0.0541992188,22.2015380859,-17.8375244141,31.7535400391
1.5558531284,-0.7216796875,0.1225585938,0.0541992188,22.8118896484,-16.8762207031,33.0352783203
1.5584909916,-0.7216796875,0.1245117188,0.0771484375,22.8118896484,-16.8762207031,33.0352783203
1.5610589981,-0.7236328125,0.1245117188,0.0771484375,24.4903564453,-16.0980224609,33.7677001953
1.5636310577,-0.7236328125,0.1245117188,0.0771484375,24.4903564453,-16.0980224609,33.7677001953
1.5662531853,-0.7236328125,0.1245117188,0.0771484375,26.8859863281,-15.4724121094,33.9508056641
1.5688340664,-0.7231445312,0.1547851562,0.0966796875,26.8859863281,-15.4724121094,33.9508056641
1.5714070797,-0.7231445312,0.1547851562,0.0966796875,26.8859863281,-14.6179199219,33.9355468750
1.5739741325,-0.7231445312,0.1547851562,0.0966796875,29.9072265625,-14.6179199219,33.9355468750
1.5765731335,-0.7231445312,0.1547851562,0.0966796875,29.9072265625,-14.6179199219,33.8134765625
1.5791451931,-0.7163085938,0.1669921875,0.0957031250,32.6538085938,-13.5040283203,33.8134765625
1.5817201138,-0.7163085938,0.1669921875,0.0957031250,32.6538085938,-13.5040283203,33.8134765625
1.5842971802,-0.7163085938,0.1669921875,0.0957031250,34.6069335938,-12.5122070312,33.8592529297
1.5869221687,-0.7163085938,0.1669921875,0.0957031250,34.6069335938,-12.5122070312,33.8592529297
1.5896050930,-0.7231445312,0.1464843750,0.0991210938,35.1562500000,-11.7034912109,34.6527099609
1.5921771526,-0.7231445312,0.1464843750,0.0991210938,35.1562500000,-11.7034912109,34.6527099609
1.5947520733,-0.7231445312,0.1464843750,0.0991210938,33.5998535156,-10.9863281250,36.0107421875
1.5974450111,-0.7231445312,0.1464843750,0.0991210938,33.5998535156,-10.9863281250,36.0107421875
1.6000261307,-0.7363281250,0.1269531250,0.0864257812,31.9976806641,-10.1013183594,36.3006591797
1.6025991440,-0.7363281250,0.1269531250,0.0864257812,31.9976806641,-10.1013183594,36.3006591797
1.6051781178,-0.7363281250,0.1269531250,0.0864257812,30.6091308594,-9.0942382812,38.4826660156
1.6079411507,-0.7363281250,0.1269531250,0.0864257812,30.6091308594,-9.0942382812,38.4826660156
1.6106321812,-0.7436523438,0.1113281250,0.0649414062,28.5949707031,-8.6975097656,40.8477783203
1.6133260727,-0.7436523438,0.1113281250,0.0649414062,28.5949707031,-8.6975097656,40.8477783203
1.6160190105,-0.7436523438,0.1113281250,0.0649414062,26.4739990234,-8.5601806641,41.7785644531
1.6187021732,-0.7436523438,0.1113281250,0.0561523438,26.4739990234,-8.5601806641,41.7785644531
1.6213979721,-0.7670898438,0.0776367188,0.0561523438,23.8342285156,-8.5449218750,42.2821044922
1.6240551472,-0.7670898438,0.0776367188,0.0561523438,23.8342285156,-8.5449218750,42.2821044922
1.6267690659,-0.7670898438,0.0776367188,0.0561523438,21.0113525391,-8.1939697266,44.2657470703
1.6294760704,-0.7631835938,0.1123046875,0.0566406250,21.0113525391,-8.1939697266,44.2657470703
1.6331040859,-0.7631835938,0.1123046875,0.0566406250,18.7377929688,-7.8277587891,46.7376708984
1.6356780529,-0.7631835938,0.1123046875,0.0566406250,18.7377929688,-7.8277587891,46.7376708984
1.6382830143,-0.7631835938,0.1123046875,0.0566406250,16.9219970703,-8.1176757812,47.9278564453
1.6408581734,-0.7456054688,0.1425781250,0.0634765625,16.9219970703,-8.1176757812,47.9278564453
1.6434311867,-0.7456054688,0.1425781250,0.0634765625,16.6625976562,-7.7514648438,48.1719970703
1.6460011005,-0.7456054688,0.1425781250,0.0634765625,16.6625976562,-7.7514648438,48.1719970703
1.6486320496,-0.7456054688,0.1425781250,0.0634765625,16.7236328125,-7.2479248047,48.6297607422
1.6512041092,-0.7358398438,0.1713867188,0.0625000000,16.7236328125,-7.2479248047,48.6297607422
1.6538970470,-0.7358398438,0.1713867188,0.0625000000,16.8457031250,-7.7056884766,48.8586425781
1.6565411091,-0.7358398438,0.1713867188,0.0625000000,16.8457031250,-7.7056884766,48.8586425781
1.6591110229,-0.7358398438,0.1713867188,0.0664062500,17.4560546875,-7.8582763672,49.4079589844
1.6616771221,-0.7280273438,0.1909179688,0.0664062500,17.4560546875,-7.8582763672,49.4079589844
1.6642429829,-0.7280273438,0.1909179688,0.0664062500,18.3410644531,-7.3699951172,49.6368408203
1.6669661999,-0.7280273438,0.1909179688,0.0664062500,18.3410644531,-7.3699951172,49.6368408203
1.6695420742,-0.7280273438,0.1982421875,0.0727539062,18.3410644531,-6.8054199219,49.1790771484
1.6721131802,-0.7275390625,0.1982421875,0.0727539062,19.2260742188,-6.8054199219,49.1790771484
1.6746811867,-0.7275390625,0.1982421875,0.0727539062,19.2260742188,-6.8054199219,49.1638183594
1.6773200035,-0.7275390625,0.1982421875,0.0727539062,20.4162597656,-5.9204101562,49.1638183594
1.6798851490,-0.7304687500,0.1894531250,0.1000976562,20.4162597656,-5.9204101562,48.6755371094
1.6824560165,-0.7304687500,0.1894531250,0.1000976562,21.3775634766,-5.4168701172,48.6755371094
1.6850261688,-0.7304687500,0.1894531250,0.1000976562,21.3775634766,-5.4168701172,48.6755371094
1.6876780987,-0.7304687500,0.1894531250,0.1000976562,22.0642089844,-5.1422119141,49.9267578125
1.6903870106,-0.7250976562,0.1982421875,0.0878906250,22.0642089844,-5.1422119141,49.9267578125
1.6930940151,-0.7250976562,0.1982421875,0.0878906250,22.6898193359,-4.7607421875,50.7049560547
1.6958050728,-0.7250976562,0.1982421875,0.0878906250,22.6898193359,-4.7607421875,54.6112060547
1.6985580921,-0.7250976562,0.1982421875,0.0878906250,22.6287841797,-4.0435791016,51.3305664062
1.7012660503,-0.7299804688,0.2114257812,0.0756835938,22.6287841797,-4.0435791016,51.3305664062
1.7039752007,-0.7299804688,0.2114257812,0.0756835938,22.6593017578,-3.3264160156,52.0935058594
1.7067410946,-0.7299804688,0.2114257812,0.0756835938,22.6593017578,-3.3264160156,52.0935058594
1.7093172073,-0.7299804688,0.2114257812,0.0947265625,22.1099853516,-3.2806396484,52.7496337891
1.7118930817,-0.7309570312,0.1918945312,0.0947265625,22.1099853516,-3.2806396484,52.7496337891
1.7144730091,-0.7309570312,0.1918945312,0.0947265625,22.0794677734,-3.4637451172,55.1910400391
1.7171959877,-0.7309570312,0.1918945312,0.0947265625,22.0794677734,-3.4637451172,55.1910400391
1.7197740078,-0.7309570312,0.2084960938,0.0859375000,21.8963623047,-2.9754638672,55.3741455078
1.7223479748,-0.7270507812,0.2084960938,0.0859375000,21.8963623047,-2.9754638672,55.3741455078
1.7249281406,-0.7270507812,0.2084960938,0.0859375000,22.6745605469,-2.8991699219,55.6945800781
1.7276301384,-0.7270507812,0.2084960938,0.0859375000,22.6745605469,-2.8991699219,55.6945800781
1.7302060127,-0.7270507812,0.2143554688,0.0712890625,23.4222412109,-3.0670166016,56.9458007812
1.7328941822,-0.7460937500,0.2143554688,0.0712890625,23.4222412109,-3.0670166016,56.9458007812
1.7354722023,-0.7460937500,0.2143554688,0.0712890625,23.4680175781,-3.2043457031,58.4411621094
1.7382860184,-0.7460937500,0.2143554688,0.0712890625,23.4680175781,-3.2043457031,58.4411621094
1.7408580780,-0.7456054688,0.2001953125,0.0727539062,21.9268798828,-2.9754638672,60.1348876953
1.7434370518,-0.7456054688,0.2001953125,0.0727539062,21.9268798828,-2.9754638672,60.1348876953
1.7460131645,-0.7456054688,0.2001953125,0.0727539062,20.2331542969,-3.1127929688,61.2945556641
1.7488501072,-0.7456054688,0.2001953125,0.0727539062,20.2331542969,-3.1127929688,61.2945556641
1.7521011829,-0.7480468750,0.2270507812,0.0644531250,19.1955566406,-3.3569335938,62.4237060547
1.7548151016,-0.7480468750,0.2270507812,0.0644531250,19.1955566406,-3.3569335938,62.4237060547
1.7575390339,-0.7480468750,0.2270507812,0.0644531250,19.3023681641,-3.4179687500,63.0340576172
1.7602400780,-0.7480468750,0.2514648438,0.0512695312,19.3023681641,-3.4179687500,63.0340576172
1.7629439831,-0.7353515625,0.2514648438,0.0512695312,20.0958251953,-3.8146972656,63.4765625000
1.7656571865,-0.7353515625,0.2514648438,0.0512695312,20.0958251953,-3.8146972656,63.4765625000
1.7683742046,-0.7353515625,0.2514648438,0.0512695312,21.5911865234,-3.4027099609,64.2089843750
1.7710790634,-0.7412109375,0.2734375000,0.0693359375,21.5911865234,-3.4027099609,64.2089843750
1.7737891674,-0.7412109375,0.2734375000,0.0693359375,22.7813720703,-3.2196044922,64.6972656250
1.7765390873,-0.7412109375,0.2734375000,0.0693359375,22.7813720703,-3.2196044922,64.6972656250
1.7792561054,-0.7412109375,0.2734375000,0.0693359375,24.1851806641,-3.1890869141,64.7277832031
1.7819600105,-0.7446289062,0.2729492188,0.0815429688,24.1851806641,-3.1890869141,64.7277832031
1.7847731113,-0.7446289062,0.2729492188,0.0815429688,25.1617431641,-3.2196044922,65.4602050781
1.7874710560,-0.7446289062,0.2729492188,0.0815429688,25.1617431641,-3.2196044922,65.4602050781
1.7900400162,-0.7446289062,0.2729492188,0.0561523438,25.2990722656,-3.0822753906,66.2536621094
1.7926170826,-0.7597656250,0.2700195312,0.0561523438,25.2990722656,-3.0822753906,66.2536621094
1.7951951027,-0.7597656250,0.2700195312,0.0561523438,25.1770019531,-2.4414062500,67.2607421875
1.7978210449,-0.7597656250,0.2700195312,0.0561523438,25.1770019531,-2.4414062500,67.2607421875
1.8003971577,-0.7597656250,0.2700195312,0.0590820312,24.7344970703,-1.8768310547,68.6645507812
1.8029720783,-0.7749023438,0.2729492188,0.0590820312,24.7344970703,-1.8768310547,68.6645507812
1.8055491447,-0.7749023438,0.2729492188,0.0590820312,24.7344970703,-1.6937255859,69.8242187500
1.8083930016,-0.7749023438,0.2729492188,0.0590820312,24.8413085938,-1.6937255859,69.8242187500
1.8110971451,-0.7768554688,0.2822265625,0.0253906250,24.8413085938,-1.6632080078,71.0601806641
1.8138020039,-0.7768554688,0.2822265625,0.0253906250,23.5595703125,-1.6632080078,71.0601806641
1.8165450096,-0.7768554688,0.2822265625,0.0253906250,19.6533203125,-1.4953613281,72.1130371094
1.8192510605,-0.7768554688,0.2822265625,0.0253906250,22.0336914062,-1.4953613281,72.1130371094
1.8219630718,-0.7954101562,0.2817382812,0.0039062500,22.0336914062,-0.0457763672,73.0895996094
1.8246681690,-0.7954101562,0.2817382812,0.0039062500,20.2178955078,-0.0457763672,73.0895996094
1.8273839951,-0.7954101562,0.2817382812,0.0039062500,16.3116455078,1.5869140625,73.8983154297
1.8300890923,-0.7954101562,0.2817382812,0.0039062500,18.2952880859,1.5869140625,73.8983154297
1.8327879906,-0.8203125000,0.2841796875,0.0009765625,15.6402587891,3.6926269531,74.8443603516
1.8355550766,-0.8203125000,0.2841796875,0.0009765625,15.6402587891,3.6926269531,74.8443603516
1.8382380009,-0.8203125000,0.2841796875,0.0009765625,11.7340087891,4.1351318359,76.7669677734
1.8408131599,-0.8203125000,0.2841796875,0.0307617188,13.4277343750,4.1351318359,76.7669677734
1.8436830044,-0.8110351562,0.2871093750,0.0307617188,13.4277343750,4.2724609375,78.5369873047
1.8463070393,-0.8110351562,0.2871093750,0.0307617188,11.9323730469,4.2724609375,78.5369873047
1.8489952087,-0.8110351562,0.2871093750,0.0307617188,11.9323730469,3.9062500000,80.0933837891
1.8515670300,-0.8090820312,0.2949218750,0.0585937500,11.6577148438,3.9062500000,80.0933837891
1.8541381359,-0.8090820312,0.2949218750,0.0585937500,11.6577148438,3.9062500000,81.7565917969
1.8567609787,-0.8090820312,0.2949218750,0.0585937500,11.4746093750,3.7384033203,81.7565917969
1.8593330383,-0.8090820312,0.2949218750,0.0585937500,11.4746093750,3.7384033203,85.6628417969
1.8619000912,-0.8310546875,0.3168945312,0.0493164062,11.4593505859,3.7078857422,82.9162597656
1.8644731045,-0.8310546875,0.3168945312,0.0493164062,11.4593505859,3.7078857422,82.9162597656
1.8670961857,-0.8310546875,0.3168945312,0.0493164062,11.2457275391,3.6163330078,84.2437744141
1.8696670532,-0.8310546875,0.3168945312,0.0493164062,11.2457275391,3.6163330078,84.2437744141
1.8722350597,-0.8398437500,0.3051757812,0.0507812500,10.6201171875,3.8452148438,86.1358642578
1.8748049736,-0.8398437500,0.3051757812,0.0507812500,10.6201171875,3.8452148438,86.1358642578
1.8773841858,-0.8398437500,0.3051757812,0.0507812500,10.3454589844,3.7078857422,87.3107910156
1.8799521923,-0.8398437500,0.3051757812,0.0507812500,10.3454589844,3.7078857422,87.3107910156
1.8825252056,-0.8579101562,0.3173828125,0.0576171875,9.9334716797,3.0059814453,88.2873535156
1.8850901127,-0.8579101562,0.3173828125,0.0576171875,9.9334716797,3.0059814453,88.2873535156
1.8878221512,-0.8579101562,0.3173828125,0.0576171875,8.6364746094,2.4871826172,89.2333984375
1.8903892040,-0.8579101562,0.3173828125,0.0576171875,8.6364746094,2.4871826172,89.2333984375
1.8929591179,-0.8706054688,0.3090820312,0.0444335938,7.2784423828,2.0141601562,90.2099609375
1.8955271244,-0.8706054688,0.3090820312,0.0444335938,7.2784423828,2.0141601562,90.2099609375
1.8983211517,-0.8706054688,0.3090820312,0.0444335938,5.7983398438,1.4495849609,92.2698974609
1.9010241032,-0.8706054688,0.3090820312,0.0444335938,5.7983398438,1.4495849609,92.2698974609
1.9037201405,-0.8999023438,0.3037109375,0.0507812500,4.2419433594,1.0528564453,93.5974121094
1.9064741135,-0.8999023438,0.3037109375,0.0507812500,4.2419433594,1.0528564453,93.5974121094
1.9091720581,-0.8999023438,0.3037109375,0.0507812500,4.3029785156,0.6866455078,94.8638916016
1.9119842052,-0.8999023438,0.3256835938,0.0258789062,4.3029785156,0.6866455078,94.8638916016
1.9146831036,-0.9062500000,0.3256835938,0.0258789062,4.6691894531,-0.5187988281,95.8709716797
1.9173920155,-0.9062500000,0.3256835938,0.0258789062,4.6691894531,-0.5187988281,95.8709716797
1.9200911522,-0.9062500000,0.3256835938,0.0258789062,5.9356689453,-1.3732910156,97.4121093750
1.9227890968,-0.9111328125,0.3208007812,0.0244140625,5.9356689453,-1.3732910156,97.4121093750
1.9254870415,-0.9111328125,0.3208007812,0.0244140625,7.6751708984,-2.6550292969,98.2360839844
1.9281129837,-0.9111328125,0.3208007812,0.0244140625,7.6751708984,-2.6550292969,98.2360839844
1.9306809902,-0.9111328125,0.3208007812,0.0244140625,7.6751708984,-3.9520263672,98.6175537109
1.9332480431,-0.9575195312,0.2963867188,0.0288085938,9.4757080078,-3.9520263672,98.6175537109
1.9358201027,-0.9575195312,0.2963867188,0.0288085938,9.4757080078,-3.9520263672,98.7091064453
1.9386110306,-0.9575195312,0.2963867188,0.0288085938,11.7797851562,-3.9672851562,98.7091064453
1.9413201809,-0.9575195312,0.2963867188,0.0288085938,11.7797851562,-0.0610351562,98.6785888672
1.9440271854,-1.0512695312,0.2460937500,0.0190429688,13.5498046875,-3.0822753906,98.6785888672
1.9467451572,-1.0512695312,0.2460937500,0.0190429688,13.5498046875,-3.0822753906,99.4720458984
1.9494600296,-1.0512695312,0.2460937500,0.0190429688,16.1590576172,-2.7313232422,99.4720458984
1.9521670341,-1.1762695312,0.2128906250,0.0532226562,16.1590576172,-2.7313232422,101.6845703125
1.9549801350,-1.1342773438,0.2128906250,0.0532226562,18.8751220703,-2.4261474609,101.6845703125
1.9584190845,-1.1342773438,0.2128906250,0.0532226562,23.2849121094,-3.2806396484,105.8349609375
1.9609920979,-1.1342773438,0.2128906250,0.0532226562,23.2849121094,-3.2806396484,105.8349609375
1.9635632038,-1.2016601562,0.1826171875,0.1142578125,31.0974121094,-4.9285888672,110.2905273438
1.9661321640,-1.2016601562,0.1826171875,0.1142578125,30.3497314453,-4.9285888672,110.2905273438
1.9688320160,-1.2016601562,0.1826171875,0.1142578125,30.3497314453,-7.9193115234,114.4104003906
1.9713981152,-1.2016601562,0.1826171875,0.1142578125,39.6270751953,-7.9193115234,114.4104003906
1.9739701748,-1.2729492188,0.1181640625,0.1489257812,39.6270751953,-7.9193115234,117.0654296875
1.9766790867,-1.2729492188,0.1181640625,0.1489257812,50.7507324219,-10.4675292969,117.0654296875
1.9792501926,-1.2729492188,0.1181640625,0.1489257812,50.7507324219,-10.4675292969,118.8049316406
1.9818191528,-1.2729492188,0.1181640625,0.1489257812,64.3615722656,-13.6413574219,118.8049316406
1.9843921661,-1.3208007812,0.0449218750,0.2041015625,64.3615722656,-13.6413574219,118.8049316406
1.9869740009,-1.3208007812,0.0449218750,0.2041015625,79.1168212891,-18.1274414062,119.8730468750
1.9895510674,-1.3208007812,0.0449218750,0.2041015625,79.1168212891,-18.1274414062,119.8730468750
1.9921231270,-1.3208007812,0.0449218750,0.1962890625,93.7194824219,-22.9644775391,120.4376220703
1.9946961403,-1.3901367188,-0.0224609375,0.1962890625,93.7194824219,-22.9644775391,120.4376220703
1.9973330498,-1.3901367188,-0.0224609375,0.1962890625,101.4556884766,-25.7263183594,121.3073730469
1.9999051094,-1.3901367188,-0.0224609375,0.1962890625,101.4556884766,-25.7263183594,121.3073730469
2.0024740696,-1.3901367188,-0.0224609375,0.2167968750,106.7352294922,-30.0903320312,123.3062744141
2.0050489902,-1.4077148438,-0.0400390625,0.2167968750,106.7352294922,-30.0903320312,123.3062744141
2.0077991486,-1.4077148438,-0.0400390625,0.2167968750,112.0300292969,-33.3557128906,125.1373291016
2.0103759766,-1.4077148438,-0.0400390625,0.2167968750,112.0300292969,-33.3557128906,125.1373291016
2.0129511356,-1.2827148438,0.0664062500,0.2011718750,113.7847900391,-35.0189208984,125.9155273438
2.0155200958,-1.3383789062,0.0664062500,0.2011718750,113.7847900391,-35.0189208984,125.9155273438
2.0182161331,-1.3383789062,0.0664062500,0.2011718750,110.4888916016,-32.9589843750,126.8463134766
2.0207910538,-1.3383789062,0.0664062500,0.2011718750,110.4888916016,-32.9589843750,126.8463134766
2.0233631134,-1.2963867188,0.0610351562,0.1918945312,102.6763916016,-29.0222167969,127.0599365234
2.0259339809,-1.2963867188,0.0610351562,0.1918945312,102.0355224609,-29.0222167969,127.0599365234
2.0285191536,-1.2963867188,0.0610351562,0.1918945312,102.0355224609,-25.1159667969,124.1149902344
2.0310890675,-1.2963867188,0.0610351562,0.1918945312,89.0502929688,-25.4669189453,124.1149902344
2.0336639881,-1.2075195312,0.0185546875,0.2651367188,89.0502929688,-25.4669189453,119.9340820312
2.0363111496,-1.2075195312,0.0185546875,0.2651367188,81.6345214844,-23.7121582031,119.9340820312
2.0392470360,-1.2075195312,0.0185546875,0.2651367188,81.6345214844,-23.7121582031,120.0256347656
2.0418231487,-1.2075195312,0.0185546875,0.2651367188,82.0312500000,-21.2707519531,120.0256347656
2.0443971157,-1.1669921875,0.2758789062,0.2817382812,82.0312500000,-21.2707519531,124.7253417969
2.0470991135,-1.1669921875,0.2758789062,0.2817382812,85.7086181641,-16.0980224609,124.7253417969
2.0497701168,-1.1669921875,0.2758789062,0.2817382812,85.7086181641,-16.0980224609,132.5378417969
2.0533339977,-1.1669921875,0.3447265625,0.3271484375,89.3859863281,-11.0168457031,130.5236816406
2.0559129715,-1.1591796875,0.3447265625,0.3271484375,85.4797363281,-6.5612792969,131.9732666016
2.0586349964,-1.1591796875,0.3447265625,0.3271484375,84.8541259766,-6.5612792969,131.9732666016
2.0612041950,-1.1591796875,0.3447265625,0.3271484375,84.8541259766,-6.5612792969,128.5858154297
2.0637700558,-0.9619140625,0.3291015625,0.2675781250,82.1838378906,-4.6539306641,128.5858154297
2.0663411617,-0.9619140625,0.3291015625,0.2675781250,82.1838378906,-4.6539306641,124.1760253906
2.0689179897,-0.9619140625,0.3291015625,0.2675781250,83.1909179688,-7.8430175781,124.1760253906
2.0714890957,-0.9619140625,0.3291015625,0.2675781250,83.1909179688,-7.8430175781,124.1760253906
2.0740611553,-0.6904296875,0.2661132812,0.2983398438,82.2906494141,-12.3901367188,117.2637939453
2.0766420364,-0.6904296875,0.2661132812,0.2983398438,82.2906494141,-12.3901367188,117.2637939453
2.0792140961,-0.6904296875,0.2661132812,0.2983398438,86.6851806641,-16.9525146484,106.3079833984
2.0817780495,-0.6904296875,0.2661132812,0.2983398438,86.6851806641,-16.9525146484,106.3079833984
2.0843491554,-0.5634765625,0.1616210938,0.3740234375,94.3756103516,-22.9492187500,92.1936035156
2.0869791508,-0.5634765625,0.1616210938,0.3740234375,94.3756103516,-22.9492187500,92.1936035156
2.0895490646,-0.5634765625,0.1616210938,0.3740234375,101.4251708984,-26.7028808594,77.4688720703
2.0921230316,-0.5634765625,0.1616210938,0.3740234375,101.4251708984,-26.7028808594,77.4688720703
2.0946960449,-0.6518554688,-0.1308593750,0.2485351562,106.7657470703,-25.7110595703,58.0902099609
2.0974249840,-0.6518554688,-0.1308593750,0.2485351562,106.7657470703,-25.7110595703,58.0902099609
2.1000010967,-0.6518554688,-0.1308593750,0.2485351562,109.3902587891,-25.5737304688,35.9039306641
2.1026880741,-0.6518554688,-0.1308593750,0.2485351562,109.3902587891,-25.5737304688,35.9039306641
2.1052560806,-0.5595703125,-0.3950195312,0.1176757812,109.4970703125,-25.5432128906,17.1203613281
2.1079730988,-0.5595703125,-0.3950195312,0.1176757812,109.4970703125,-25.5432128906,17.1203613281
2.1105451584,-0.5595703125,-0.3950195312,0.1176757812,101.6845703125,-25.0396728516,5.0811767578
2.1131150723,-0.5595703125,-0.3950195312,-0.0034179688,104.9346923828,-25.0396728516,5.0811767578
2.1156830788,-0.4414062500,-0.4462890625,-0.0034179688,104.9346923828,-25.0396728516,-2.5939941406
2.1182739735,-0.4414062500,-0.4462890625,-0.0034179688,96.5118408203,-24.4140625000,-2.5939941406
2.1208391190,-0.4414062500,-0.4462890625,-0.0034179688,96.5118408203,-24.4140625000,-11.4135742188
2.1234130859,-0.4414062500,-0.4462890625,-0.0361328125,85.5407714844,-23.9715576172,-11.4135742188
2.1259911060,-0.3369140625,-0.4248046875,-0.0361328125,85.5407714844,-23.9715576172,-22.5524902344
2.1287550926,-0.3369140625,-0.4248046875,-0.0361328125,72.7844238281,-24.2156982422,-22.5524902344
2.1314611435,-0.3369140625,-0.4248046875,-0.0361328125,72.7844238281,-24.2156982422,-34.1949462891
2.1341741085,-0.3369140625,-0.3237304688,-0.0649414062,60.5316162109,-24.1088867188,-34.1949462891
2.1369290352,-0.2651367188,-0.3237304688,-0.0649414062,60.5316162109,-24.1088867188,-46.2188720703
2.1396391392,-0.2651367188,-0.3237304688,-0.0649414062,50.1098632812,-23.1933593750,-46.2188720703
2.1423490047,-0.2651367188,-0.3237304688,-0.0649414062,50.1098632812,-23.1933593750,-57.9376220703
2.1450510025,-0.2353515625,-0.2133789062,-0.0629882812,41.6412353516,-22.6440429688,-57.0526123047
2.1477720737,-0.2353515625,-0.2133789062,-0.0629882812,41.6412353516,-22.6440429688,-68.7713623047
2.1504781246,-0.2353515625,-0.2133789062,-0.0629882812,33.8897705078,-21.9116210938,-67.4285888672
2.1531870365,-0.2353515625,-0.2133789062,-0.0629882812,33.8897705078,-21.9116210938,-75.2410888672
2.1559000015,-0.2514648438,-0.1518554688,-0.0605468750,25.0701904297,-22.1405029297,-77.1179199219
2.1585140228,-0.2514648438,-0.1518554688,-0.0605468750,25.0701904297,-22.1405029297,-77.1179199219
2.1610910892,-0.2514648438,-0.1518554688,-0.0605468750,16.0064697266,-23.3001708984,-87.2344970703
2.1637880802,-0.2514648438,-0.1518554688,-0.0302734375,16.0064697266,-23.3001708984,-87.2344970703
2.1665441990,-0.2929687500,-0.1352539062,-0.0302734375,7.3089599609,-24.8260498047,-98.0834960938
2.1692440510,-0.2929687500,-0.1352539062,-0.0302734375,7.3089599609,-24.8260498047,-98.0834960938
2.1719481945,-0.2929687500,-0.1352539062,-0.0302734375,-0.1068115234,-25.8789062500,-109.3139648438
2.1746520996,-0.3432617188,-0.1220703125,-0.0278320312,-0.1068115234,-25.8789062500,-109.3139648438
2.1773700714,-0.3432617188,-0.1220703125,-0.0278320312,-6.8511962891,-27.0690917969,-119.8730468750
2.1800770760,-0.3432617188,-0.1220703125,-0.0278320312,-6.8511962891,-27.0690917969,-119.8730468750
2.1827800274,-0.3432617188,-0.1220703125,-0.0278320312,-13.8854980469,-28.2592773438,-128.6773681641
2.1854870319,-0.4047851562,-0.0991210938,-0.0229492188,-13.8854980469,-28.2592773438,-128.6773681641
2.1882131100,-0.4047851562,-0.0991210938,-0.0229492188,-20.4010009766,-28.9306640625,-137.9241943359
2.1909182072,-0.4047851562,-0.0991210938,-0.0229492188,-20.4010009766,-28.9306640625,-137.9241943359
2.1936299801,-0.4047851562,-0.0991210938,-0.0229492188,-26.9622802734,-30.0140380859,-146.5911865234
2.1963441372,-0.4165039062,-0.1118164062,-0.0302734375,-26.9622802734,-30.0140380859,-146.5911865234
2.1989200115,-0.4165039062,-0.1118164062,-0.0302734375,-34.2864990234,-31.1431884766,-155.7159423828
2.2015011311,-0.4165039062,-0.1118164062,-0.0302734375,-34.2864990234,-31.1431884766,-155.7159423828
2.2040791512,-0.4165039062,-0.1118164062,-0.0317382812,-40.7867431641,-32.1502685547,-163.2385253906
2.2066831589,-0.4560546875,-0.0727539062,-0.0317382812,-40.7867431641,-32.1502685547,-163.2385253906
2.2092680931,-0.4560546875,-0.0727539062,-0.0317382812,-47.5616455078,-32.9742431641,-170.0134277344
2.2118442059,-0.4560546875,-0.0727539062,-0.0317382812,-47.5616455078,-32.9742431641,-170.0134277344
2.2144250870,-0.4560546875,0.0522460938,-0.0249023438,-52.5817871094,-32.8826904297,-176.4526367188
2.2171580791,-0.5185546875,0.0014648438,-0.0249023438,-52.5817871094,-32.8826904297,-176.4526367188
2.2198710442,-0.5185546875,0.0014648438,-0.0249023438,-56.0302734375,-32.3638916016,-182.5408935547
2.2225821018,-0.5185546875,0.0014648438,-0.0249023438,-56.0302734375,-32.3638916016,-182.5408935547
2.2252900600,-0.5781250000,0.0659179688,-0.0180664062,-59.8144531250,-32.3028564453,-188.0187988281
2.2281231880,-0.5781250000,0.0659179688,-0.0180664062,-59.8144531250,-32.3028564453,-188.0187988281
2.2309420109,-0.5781250000,0.0659179688,-0.0180664062,-63.4460449219,-31.8603515625,-193.3135986328
2.2336490154,-0.5781250000,0.0659179688,-0.0180664062,-63.4460449219,-31.8603515625,-193.3135986328
2.2363731861,-0.6181640625,0.1127929688,-0.0312500000,-67.9016113281,-31.9519042969,-199.0966796875
2.2390840054,-0.6181640625,0.1127929688,-0.0312500000,-67.9016113281,-31.9519042969,-199.0966796875
2.2417910099,-0.6181640625,0.1127929688,-0.0312500000,-71.2890625000,-31.7535400391,-204.6966552734
2.2446551323,-0.6181640625,0.2377929688,-0.0434570312,-71.2890625000,-31.7535400391,-204.6966552734
2.2474160194,-0.6835937500,0.1611328125,-0.0434570312,-73.4252929688,-30.8227539062,-209.1217041016
2.2499971390,-0.6835937500,0.1611328125,-0.0434570312,-73.4252929688,-30.8227539062,-209.1217041016
2.2526731491,-0.6835937500,0.1611328125,-0.0434570312,-73.4558105469,-29.4189453125,-212.7990722656
2.2560009956,-0.7509765625,0.2329101562,-0.0493164062,-73.4558105469,-29.4189453125,-212.7990722656
2.2586569786,-0.7509765625,0.2329101562,-0.0493164062,-73.6236572266,-27.5421142578,-215.9881591797
2.2612311840,-0.7509765625,0.2329101562,-0.0493164062,-73.6236572266,-27.5421142578,-215.9881591797
2.2638061047,-0.7509765625,0.2329101562,-0.0493164062,-73.3489990234,-25.6195068359,-219.1009521484
2.2663781643,-0.7851562500,0.2700195312,-0.0498046875,-73.3489990234,-25.6195068359,-219.1009521484
2.2689530849,-0.7851562500,0.2700195312,-0.0498046875,-73.0285644531,-24.2462158203,-222.2442626953
2.2715201378,-0.7851562500,0.2700195312,-0.0498046875,-73.0285644531,-24.2462158203,-222.2442626953
2.2740900517,-0.7851562500,0.2700195312,-0.0498046875,-72.4945068359,-23.2849121094,-225.7995605469
2.2767121792,-0.8222656250,0.3066406250,-0.0312500000,-72.4945068359,-23.2849121094,-225.7995605469
2.2792840004,-0.8222656250,0.3066406250,-0.0312500000,-72.4945068359,-21.8353271484,-229.4769287109
2.2818570137,-0.8222656250,0.3066406250,-0.0312500000,-70.6634521484,-21.8353271484,-229.4769287109
2.2844290733,-0.8222656250,0.3066406250,-0.0312500000,-70.6634521484,-21.8353271484,-232.7270507812
2.2870140076,-0.8603515625,0.3457031250,-0.0107421875,-68.2220458984,-20.6756591797,-232.7270507812
2.2895941734,-0.8603515625,0.3457031250,-0.0107421875,-68.2220458984,-20.6756591797,-235.7025146484
2.2921731472,-0.8603515625,0.3457031250,-0.0107421875,-65.2770996094,-19.2718505859,-235.7025146484
2.2948651314,-0.8603515625,0.3457031250,0.0000000000,-65.2770996094,-19.2718505859,-238.6169433594
2.2976222038,-0.8852539062,0.3603515625,0.0000000000,-63.1561279297,-17.4560546875,-238.6169433594
2.3001999855,-0.8852539062,0.3603515625,0.0000000000,-63.1561279297,-17.4560546875,-238.6169433594
2.3027720451,-0.8852539062,0.3603515625,0.0000000000,-61.5234375000,-16.8762207031,-240.2191162109
2.3053491116,-0.8852539062,0.3632812500,0.0102539062,-61.5234375000,-16.8762207031,-240.2191162109
2.3080880642,-0.9135742188,0.3632812500,0.0102539062,-60.1501464844,-15.6097412109,-241.7907714844
2.3107771873,-0.9135742188,0.3632812500,0.0102539062,-60.1501464844,-15.6097412109,-241.7907714844
2.3134679794,-0.9135742188,0.3632812500,0.0102539062,-59.4787597656,-14.1754150391,-243.2556152344
2.3161621094,-0.9355468750,0.3549804688,0.0151367188,-59.4787597656,-14.1754150391,-243.2556152344
2.3188540936,-0.9355468750,0.3549804688,0.0151367188,-58.6090087891,-13.3819580078,-244.5068359375
2.3215441704,-0.9355468750,0.3549804688,0.0151367188,-58.6090087891,-13.3819580078,-244.5068359375
2.3242361546,-0.9355468750,0.3549804688,0.0151367188,-57.6629638672,-12.6953125000,-246.3073730469
2.3269371986,-0.9560546875,0.3452148438,0.0068359375,-57.6629638672,-12.6953125000,-246.3073730469
2.3296260834,-0.9560546875,0.3452148438,0.0068359375,-57.8002929688,-12.6190185547,-247.5433349609
2.3323180676,-0.9560546875,0.3452148438,0.0068359375,-57.8002929688,-12.6190185547,-247.5433349609
2.3350090981,-0.9560546875,0.3452148438,0.0068359375,-59.7229003906,-12.4969482422,-249.2675781250
2.3377430439,-0.9873046875,0.3281250000,0.0180664062,-59.7229003906,-12.4969482422,-249.2675781250
2.3404321671,-0.9873046875,0.3281250000,0.0180664062,-61.0809326172,-12.0544433594,-251.0528564453
2.3431220055,-0.9873046875,0.3281250000,0.0180664062,-61.0809326172,-12.0544433594,-251.0528564453
2.3458161354,-0.9873046875,0.3198242188,0.0371093750,-64.4531250000,-11.4593505859,-252.5634765625
2.3485150337,-1.0375976562,0.3198242188,0.0371093750,-64.4531250000,-11.4593505859,-252.5634765625
2.3512079716,-1.0375976562,0.3198242188,0.0371093750,-68.1152343750,-11.5203857422,-254.2266845703
2.3538961411,-1.0375976562,0.3198242188,0.0371093750,-68.1152343750,-11.5203857422,-254.2266845703
2.3566071987,-1.0771484375,0.3110351562,0.0375976562,-71.3958740234,-11.1999511719,-254.9743652344
2.3594071865,-1.0771484375,0.3110351562,0.0375976562,-71.3958740234,-11.1999511719,-254.9743652344
2.3620991707,-1.0771484375,0.3110351562,0.0375976562,-74.9664306641,-11.0778808594,-255.4779052734
2.3649301529,-1.0771484375,0.3110351562,0.0375976562,-74.9664306641,-11.0778808594,-255.9204101562
2.3683772087,-1.1176757812,0.2968750000,0.0488281250,-79.8645019531,-11.5203857422,-255.9204101562
2.3709530830,-1.1176757812,0.2968750000,0.0488281250,-79.8645019531,-11.5203857422,-255.9204101562
2.3735280037,-1.1176757812,0.2968750000,0.0488281250,-84.7473144531,-11.5356445312,-256.4697265625
2.3760941029,-1.2426757812,0.3066406250,0.0532226562,-84.7473144531,-11.5356445312,-256.4697265625
2.3789660931,-1.1542968750,0.3066406250,0.0532226562,-87.7838134766,-11.6577148438,-257.6446533203
2.3815431595,-1.1542968750,0.3066406250,0.0532226562,-87.7838134766,-11.6577148438,-257.6446533203
2.3843929768,-1.1542968750,0.3066406250,0.0532226562,-89.1571044922,-11.3220214844,-259.0179443359
2.3869881630,-1.2065429688,0.2792968750,0.0444335938,-89.1571044922,-11.3220214844,-259.0179443359
2.3895680904,-1.2065429688,0.2792968750,0.0444335938,-90.7287597656,-11.0626220703,-259.9945068359
2.3921430111,-1.2065429688,0.2792968750,0.0444335938,-90.7287597656,-11.0626220703,-259.9945068359
2.3947100639,-1.2065429688,0.2792968750,0.0444335938,-94.1162109375,-10.6964111328,-260.5743408203
2.3973331451,-1.2529296875,0.2607421875,0.0473632812,-94.1162109375,-10.6964111328,-260.5743408203
2.3999021053,-1.2529296875,0.2607421875,0.0473632812,-98.3886718750,-10.5133056641,-261.3067626953
2.4024779797,-1.2529296875,0.2607421875,0.0473632812,-98.3886718750,-10.5133056641,-261.3067626953
2.4050590992,-1.2529296875,0.2607421875,0.0473632812,-102.0202636719,-9.3231201172,-262.0391845703
2.4076809883,-1.3159179688,0.2744140625,0.0292968750,-102.0202636719,-9.3231201172,-262.0391845703
2.4102571011,-1.3159179688,0.2744140625,0.0292968750,-105.1330566406,-6.3171386719,-262.5274658203
2.4128320217,-1.3159179688,0.2744140625,0.0292968750,-105.1330566406,-6.3171386719,-262.5274658203
2.4153990746,-1.3159179688,0.2744140625,0.0292968750,-109.0393066406,-3.2653808594,-262.1917724609
2.4179840088,-1.3759765625,0.3266601562,0.0390625000,-106.5826416016,-3.2653808594,-262.1917724609
2.4205520153,-1.3759765625,0.3266601562,0.0390625000,-106.5826416016,-3.2653808594,-259.7503662109
2.4232339859,-1.3759765625,0.3266601562,0.0390625000,-111.3128662109,-2.6092529297,-259.7503662109
2.4258170128,-1.3759765625,0.3266601562,0.0390625000,-111.3128662109,-2.6092529297,-255.5694580078
2.4285600185,-1.4184570312,0.4277343750,0.0141601562,-111.3281250000,-1.1596679688,-255.5694580078
2.4311370850,-1.4184570312,0.4277343750,0.0141601562,-111.3281250000,-1.1596679688,-251.8768310547
2.4337069988,-1.4184570312,0.4277343750,0.0141601562,-104.2022705078,5.1879882812,-251.8768310547
2.4363741875,-1.4184570312,0.4277343750,-0.0244140625,-104.2022705078,5.1879882812,-244.0643310547
2.4389560223,-1.4423828125,0.5463867188,-0.0244140625,-99.3957519531,10.1470947266,-245.8953857422
2.4415249825,-1.4423828125,0.5463867188,-0.0244140625,-99.3957519531,10.1470947266,-245.8953857422
2.4440991879,-1.4423828125,0.5463867188,-0.0244140625,-100.0823974609,13.3972167969,-235.1837158203
2.4467461109,-1.4423828125,0.5122070312,0.0361328125,-100.0823974609,13.3972167969,-235.1837158203
2.4494311810,-1.3969726562,0.5122070312,0.0361328125,-105.0262451172,16.8457031250,-222.4273681641
2.4520061016,-1.3969726562,0.5122070312,0.0361328125,-105.0262451172,16.8457031250,-222.4273681641
2.4545791149,-1.3969726562,0.5122070312,0.0361328125,-106.4758300781,19.4854736328,-208.0230712891
2.4572479725,-1.2719726562,0.5815429688,0.1064453125,-106.4758300781,19.4854736328,-208.0230712891
2.4598209858,-1.3120117188,0.5815429688,0.1064453125,-106.2622070312,21.3775634766,-191.8029785156
2.4633901119,-1.3120117188,0.5815429688,0.1064453125,-106.2622070312,21.3775634766,-191.8029785156
2.4659759998,-1.3120117188,0.5815429688,0.1064453125,-107.8338623047,21.1486816406,-174.6368408203
2.4685561657,-1.0488281250,0.7250976562,0.2246093750,-107.8338623047,21.1486816406,-174.6368408203
2.4711291790,-1.0488281250,0.7250976562,0.2246093750,-109.7717285156,18.5089111328,-159.1644287109
2.4737050533,-1.0488281250,0.7250976562,0.2246093750,-109.7717285156,18.5089111328,-159.1644287109
2.4762611389,-1.0488281250,0.7250976562,0.2246093750,-108.9019775391,12.7105712891,-143.7988281250
2.4788360596,-0.7421875000,0.9423828125,0.3637695312,-108.9019775391,12.7105712891,-143.7988281250
2.4814171791,-0.7421875000,0.9423828125,0.3637695312,-99.3499755859,4.8065185547,-128.6315917969
2.4839930534,-0.7421875000,0.9423828125,0.3637695312,-99.3499755859,4.8065185547,-128.6315917969
2.4866130352,-0.7421875000,0.9423828125,0.3637695312,-77.5299072266,-2.9449462891,-112.2436523438
2.4892861843,-0.6162109375,1.3002929688,0.3525390625,-77.5299072266,-2.9449462891,-112.2436523438
2.4918551445,-0.6162109375,1.3002929688,0.3525390625,-48.5992431641,-10.1776123047,-94.4671630859
2.4944369793,-0.6162109375,1.3002929688,0.3525390625,-48.5992431641,-10.1776123047,-94.4671630859
2.4970111847,-0.6162109375,1.4252929688,0.2197265625,-17.3492431641,-15.1672363281,-75.7141113281
2.4995841980,-0.5527343750,1.4770507812,0.2197265625,-16.4337158203,-15.1672363281,-75.7141113281
2.5021569729,-0.5527343750,1.4770507812,0.2197265625,-16.4337158203,-19.0734863281,-56.2438964844
2.5047240257,-0.5527343750,1.4770507812,0.2197265625,12.9394531250,-17.5476074219,-56.2438964844
2.5074620247,-0.5527343750,1.2822265625,0.0805664062,12.9394531250,-17.5476074219,-37.4603271484
2.5100381374,-0.6474609375,1.2822265625,0.0805664062,35.2172851562,-17.9595947266,-37.4603271484
2.5126061440,-0.6474609375,1.2822265625,0.0805664062,35.2172851562,-17.9595947266,-17.9290771484
2.5151801109,-0.6474609375,1.2822265625,0.0805664062,47.0123291016,-15.1519775391,-16.8914794922
2.5179231167,-0.7905273438,1.0893554688,-0.0273437500,47.0123291016,-15.1519775391,2.6397705078
2.5206291676,-0.7905273438,1.0893554688,-0.0273437500,50.2319335938,-10.8032226562,3.6773681641
2.5233421326,-0.7905273438,1.0893554688,-0.0273437500,50.2319335938,-10.8032226562,27.1148681641
2.5260519981,-0.7905273438,1.0893554688,-0.0273437500,47.6074218750,-4.8980712891,23.9105224609
2.5287749767,-0.8789062500,0.9584960938,-0.0952148438,47.6074218750,-4.8980712891,39.5355224609
2.5314810276,-0.8789062500,0.9584960938,-0.0952148438,40.9851074219,1.9531250000,42.1142578125
2.5341911316,-0.8789062500,0.9584960938,-0.0952148438,40.9851074219,1.9531250000,61.6455078125
2.5369460583,-0.8789062500,0.9584960938,-0.0952148438,31.6314697266,8.8043212891,59.5855712891
2.5396480560,-0.9135742188,0.9077148438,-0.1142578125,31.6314697266,8.8043212891,75.2105712891
2.5423510075,-0.9135742188,0.9077148438,-0.1142578125,21.6674804688,15.2893066406,77.0416259766
2.5450680256,-0.9135742188,0.9077148438,-0.1142578125,21.6674804688,15.2893066406,96.5728759766
2.5477201939,-0.9135742188,0.8964843750,-0.0742187500,13.0004882812,20.0195312500,94.3756103516
2.5503079891,-0.9184570312,0.8964843750,-0.0742187500,13.0004882812,20.0195312500,94.3756103516
2.5531570911,-0.9184570312,0.8964843750,-0.0742187500,4.6844482422,22.7813720703,111.3128662109
2.5557351112,-0.9184570312,0.8964843750,-0.0742187500,4.6844482422,22.7813720703,111.3128662109
2.5584230423,-0.8461914062,0.8544921875,0.0048828125,-3.0975341797,23.0102539062,127.0751953125
2.5610001087,-0.8461914062,0.8544921875,0.0048828125,-3.0975341797,23.0102539062,142.7001953125
2.5641710758,-0.8461914062,0.8544921875,0.0048828125,-11.7340087891,21.3775634766,142.3797607422
2.5668311119,-0.8461914062,0.8544921875,0.0048828125,-11.7340087891,21.3775634766,142.3797607422
2.5694169998,-0.8212890625,0.5107421875,0.1386718750,-20.4925537109,17.8833007812,152.0690917969
2.5719900131,-0.8212890625,0.5107421875,0.1386718750,-20.4925537109,17.8833007812,152.0690917969
2.5745611191,-0.8212890625,0.5107421875,0.1386718750,-25.1312255859,8.3618164062,148.0712890625
2.5772759914,-0.8212890625,0.5107421875,0.1386718750,-25.1312255859,8.3618164062,148.0712890625
2.5798480511,-0.8544921875,0.3408203125,0.3422851562,-42.1752929688,3.9215087891,160.9344482422
2.5824220181,-0.8544921875,0.3408203125,0.3422851562,-42.1752929688,3.9215087891,160.9344482422
2.5849940777,-0.8544921875,0.3408203125,0.3422851562,-33.3557128906,8.4686279297,162.3535156250
2.5875720978,-0.8544921875,0.3408203125,0.0922851562,-33.3557128906,8.4686279297,162.3535156250
2.5901451111,-1.1186523438,-0.7670898438,0.0981445312,-22.5219726562,13.1530761719,148.5137939453
2.5927231312,-1.1186523438,-0.7670898438,0.0981445312,-22.5219726562,13.1530761719,148.5137939453
2.5952930450,-1.1186523438,-0.7670898438,0.0981445312,-30.0598144531,11.0778808594,139.7857666016
2.5979001522,-1.1186523438,-0.7670898438,-0.1152343750,-30.0598144531,11.0778808594,139.7857666016
2.6004731655,-1.1625976562,-1.0771484375,-0.1152343750,-41.7785644531,1.6784667969,141.7999267578
2.6030390263,-1.1625976562,-1.0771484375,-0.1152343750,-42.3126220703,1.6784667969,141.7999267578
2.6056110859,-1.1625976562,-1.0771484375,-0.1152343750,-42.3126220703,-5.2947998047,149.5819091797
2.6083571911,-1.1625976562,-0.3383789062,-0.0712890625,-58.1512451172,-5.2947998047,149.5819091797
2.6109290123,-1.0351562500,-0.3383789062,-0.0712890625,-58.1512451172,-5.2947998047,159.3933105469
2.6135051250,-1.0351562500,-0.3383789062,-0.0712890625,-73.7609863281,-6.5002441406,159.3933105469
2.6161870956,-1.0351562500,-0.3383789062,-0.0712890625,-73.7609863281,-6.5002441406,168.6248779297
2.6190450191,-1.0971679688,0.5063476562,-0.0346679688,-80.0933837891,-4.7454833984,168.6248779297
2.6217501163,-1.0971679688,0.5063476562,-0.0346679688,-80.0933837891,-4.7454833984,174.0875244141
2.6244530678,-1.0971679688,0.5063476562,-0.0346679688,-81.5734863281,-4.5928955078,174.0875244141
2.6271719933,-1.0971679688,0.5063476562,-0.0346679688,-81.5734863281,-8.4991455078,170.3491210938
2.6298770905,-0.9248046875,0.5659179688,0.0966796875,-83.7402343750,-9.4604492188,170.3491210938
2.6325840950,-0.9248046875,0.5659179688,0.0966796875,-83.7402343750,-9.4604492188,162.2772216797
2.6352851391,-0.9248046875,0.5659179688,0.0966796875,-80.0781250000,-15.8843994141,162.2772216797
2.6380000114,-0.9248046875,0.5659179688,0.0966796875,-80.0781250000,-15.8843994141,155.8227539062
2.6407082081,-0.7871093750,0.3632812500,0.0043945312,-72.4945068359,-18.1274414062,155.8227539062
2.6434221268,-0.7871093750,0.3632812500,0.0043945312,-72.4945068359,-18.1274414062,151.3214111328
2.6461269855,-0.7871093750,0.3632812500,0.0043945312,-65.4449462891,-16.9372558594,151.3214111328
2.6487281322,-0.7871093750,0.3559570312,-0.0922851562,-65.4449462891,-16.9372558594,148.7579345703
2.6513030529,-0.7407226562,0.3559570312,-0.0922851562,-56.5795898438,-14.0533447266,148.7579345703
2.6538770199,-0.7407226562,0.3559570312,-0.0922851562,-56.5795898438,-14.0533447266,148.7579345703
2.6565191746,-0.7407226562,0.3559570312,-0.0922851562,-43.9300537109,-12.8021240234,144.4549560547
2.6592249870,-0.7519531250,0.2958984375,-0.0937500000,-43.9300537109,-12.8021240234,144.4549560547
2.6619319916,-0.7519531250,0.2958984375,-0.0937500000,-34.9121093750,-15.2282714844,138.8702392578
2.6646440029,-0.7519531250,0.2958984375,-0.0937500000,-34.9121093750,-15.2282714844,138.8702392578
2.6673600674,-0.7519531250,0.2958984375,-0.0937500000,-28.7322998047,-19.9432373047,132.5531005859
2.6700689793,-0.7636718750,0.2358398438,0.0400390625,-28.7322998047,-19.9432373047,132.5531005859
2.6729011536,-0.7636718750,0.2358398438,0.0400390625,-24.7192382812,-24.5666503906,125.5187988281
2.6756241322,-0.7636718750,0.2358398438,0.0400390625,-24.7192382812,-24.5666503906,117.7062988281
2.6783511639,-0.7636718750,0.2358398438,0.1650390625,-22.4304199219,-27.8167724609,119.0185546875
2.6811680794,-0.7817382812,0.2973632812,0.1596679688,-22.4304199219,-27.8167724609,115.1123046875
2.6838791370,-0.7817382812,0.2973632812,0.1596679688,-21.4385986328,-29.4189453125,113.7695312500
2.6866002083,-0.7817382812,0.2973632812,0.1596679688,-21.4385986328,-29.4189453125,113.7695312500
2.6891729832,-0.7817382812,0.4355468750,0.1665039062,-22.3693847656,-29.0069580078,109.4360351562
2.6917560101,-0.8442382812,0.4355468750,0.1665039062,-22.3693847656,-29.0069580078,109.4360351562
2.6943311691,-0.8442382812,0.4355468750,0.1665039062,-20.7061767578,-28.2897949219,106.9641113281
2.6969811916,-0.8442382812,0.4355468750,0.1665039062,-20.7061767578,-28.2897949219,106.9641113281
2.6996941566,-0.8706054688,0.5546875000,0.1142578125,-15.8081054688,-28.0456542969,105.4382324219
2.7024021149,-0.8706054688,0.5546875000,0.1142578125,-15.8081054688,-28.0456542969,105.4382324219
2.7051131725,-0.8706054688,0.5546875000,0.1142578125,-7.0953369141,-28.4271240234,102.9510498047
2.7077641487,-0.8706054688,0.5546875000,0.1142578125,-7.0953369141,-28.4271240234,102.9510498047
2.7103390694,-0.8374023438,0.6020507812,0.0371093750,4.7607421875,-29.0527343750,98.9990234375
2.7129189968,-0.8374023438,0.6020507812,0.0371093750,4.7607421875,-29.0527343750,98.9990234375
2.7154910564,-0.8374023438,0.6020507812,0.0371093750,12.8784179688,-29.5715332031,92.6208496094
2.7182040215,-0.8374023438,0.6020507812,0.0371093750,12.8784179688,-29.5715332031,92.6208496094
2.7207851410,-0.7597656250,0.3720703125,0.0180664062,19.1040039062,-29.9987792969,81.9244384766
2.7233650684,-0.7597656250,0.3720703125,0.0180664062,19.1040039062,-29.9987792969,81.9244384766
2.7259440422,-0.7597656250,0.3720703125,0.0180664062,24.2919921875,-29.9072265625,71.7315673828
2.7287471294,-0.7597656250,0.3720703125,0.0180664062,24.2919921875,-29.9072265625,71.7315673828
2.7314541340,-0.7143554688,0.2509765625,0.0136718750,25.4974365234,-30.3192138672,65.8111572266
2.7341711521,-0.7143554688,0.2509765625,0.0136718750,25.4974365234,-30.3192138672,65.8111572266
2.7369060516,-0.7143554688,0.2509765625,0.0136718750,25.9704589844,-30.1818847656,61.9506835938
2.7394800186,-0.7143554688,0.2509765625,0.0019531250,25.9704589844,-30.1818847656,61.9506835938
2.7420701981,-0.7089843750,0.2885742188,0.0019531250,29.8767089844,-27.8320312500,56.5338134766
2.7447659969,-0.7089843750,0.2885742188,0.0019531250,30.8990478516,-27.8320312500,56.5338134766
2.7474250793,-0.7089843750,0.2885742188,0.0019531250,38.7115478516,-25.9246826172,48.7976074219
2.7501389980,-0.7236328125,0.2631835938,0.0502929688,36.0870361328,-25.9246826172,48.7976074219
2.7528450489,-0.7236328125,0.2631835938,0.0502929688,36.0870361328,-24.5361328125,41.1682128906
2.7555561066,-0.7236328125,0.2631835938,0.0502929688,38.4368896484,-24.5361328125,41.1682128906
2.7582681179,-0.7236328125,0.2631835938,0.0502929688,38.4368896484,-23.5443115234,35.9954833984
2.7609720230,-0.7182617188,0.1796875000,0.0585937500,38.6352539062,-23.5443115234,35.9954833984
2.7636849880,-0.7182617188,0.1796875000,0.0585937500,38.6352539062,-22.5677490234,33.3557128906
2.7663950920,-0.7182617188,0.1796875000,0.0585937500,36.6516113281,-22.5677490234,33.3557128906
2.7691040039,-0.7182617188,0.1796875000,0.0585937500,32.7453613281,-21.2707519531,31.2347412109
2.7718181610,-0.7426757812,0.1596679688,0.0395507812,32.9437255859,-21.2707519531,31.2347412109
2.7745261192,-0.7426757812,0.1596679688,0.0395507812,29.0374755859,-20.4620361328,29.1900634766
2.7772481441,-0.7426757812,0.1596679688,0.0395507812,28.0456542969,-20.4620361328,29.1900634766
2.7799592018,-0.7426757812,0.1464843750,0.0444335938,24.1394042969,-19.8059082031,27.6336669922
2.7826650143,-0.7548828125,0.1464843750,0.0444335938,24.2156982422,-19.8059082031,27.6336669922
2.7853751183,-0.7548828125,0.1464843750,0.0444335938,20.3094482422,-19.3939208984,26.5045166016
2.7880401611,-0.7548828125,0.1464843750,0.0444335938,21.3165283203,-19.3939208984,26.5045166016
2.7906100750,-0.7338867188,0.1308593750,0.0419921875,21.3165283203,-19.3939208984,25.4974365234
2.7931880951,-0.7338867188,0.1308593750,0.0419921875,17.5933837891,-19.1192626953,25.4974365234
2.7957651615,-0.7338867188,0.1308593750,0.0419921875,17.5933837891,-19.1192626953,24.9023437500
2.7984671593,-0.7338867188,0.1308593750,0.0419921875,14.3890380859,-18.2495117188,24.9023437500
2.8011691570,-0.7104492188,0.1298828125,0.0512695312,14.3890380859,-18.2495117188,24.3377685547
2.8038761616,-0.7104492188,0.1298828125,0.0512695312,12.3291015625,-17.3492431641,24.3377685547
2.8065960407,-0.7104492188,0.1298828125,0.0512695312,12.3291015625,-17.3492431641,23.2696533203
2.8094091415,-0.7104492188,0.1298828125,0.0512695312,11.6271972656,-17.7001953125,23.2696533203
2.8121190071,-0.7080078125,0.1464843750,0.0507812500,11.6271972656,-17.7001953125,21.1791992188
2.8148369789,-0.7080078125,0.1464843750,0.0507812500,13.2446289062,-16.9982910156,21.1791992188
2.8175580502,-0.7080078125,0.1464843750,0.0507812500,13.2446289062,-16.9982910156,20.0347900391
2.8202660084,-0.7080078125,0.1577148438,0.0649414062,14.9536132812,-15.9454345703,20.0347900391
2.8229701519,-0.7109375000,0.1577148438,0.0649414062,14.9536132812,-15.9454345703,18.7225341797
2.8256790638,-0.7109375000,0.1577148438,0.0649414062,16.2658691406,-15.1367187500,18.7225341797
2.8284029961,-0.7109375000,0.1577148438,0.0649414062,16.2658691406,-15.1367187500,17.7764892578
2.8311061859,-0.7104492188,0.1660156250,0.0673828125,18.3258056641,-14.8925781250,17.7764892578
2.8338160515,-0.7104492188,0.1660156250,0.0673828125,18.3258056641,-14.8925781250,17.0745849609
2.8365330696,-0.7104492188,0.1660156250,0.0673828125,20.7672119141,-15.1367187500,17.0745849609
2.8391110897,-0.7104492188,0.1660156250,0.0673828125,20.7672119141,-15.1367187500,17.0745849609
2.8416950703,-0.6938476562,0.1464843750,0.0761718750,23.5595703125,-15.3808593750,16.6168212891
2.8442680836,-0.6938476562,0.1464843750,0.0761718750,23.5595703125,-15.3808593750,16.6168212891
2.8468821049,-0.6938476562,0.1464843750,0.0761718750,28.3660888672,-14.9383544922,16.9677734375
2.8495922089,-0.6938476562,0.1464843750,0.0761718750,28.3660888672,-14.9383544922,16.9677734375
2.8522989750,-0.7031250000,0.1220703125,0.0566406250,32.1655273438,-15.1214599609,17.1508789062
2.8550059795,-0.7031250000,0.1220703125,0.0566406250,32.1655273438,-15.1214599609,17.1508789062
2.8576641083,-0.7031250000,0.1220703125,0.0566406250,35.7055664062,-15.0604248047,16.5405273438
2.8603980541,-0.7031250000,0.1220703125,0.0727539062,35.7055664062,-15.0604248047,16.5405273438
2.8629720211,-0.7309570312,0.1059570312,0.0727539062,38.2385253906,-14.5263671875,16.3116455078
2.8655459881,-0.7309570312,0.1059570312,0.0727539062,38.2385253906,-14.5263671875,16.3116455078
2.8682110310,-0.7309570312,0.1059570312,0.0727539062,39.7491455078,-14.8315429688,18.3868408203
2.8707931042,-0.7309570312,0.0771484375,0.0683593750,39.7491455078,-14.8315429688,18.3868408203
2.8735799789,-0.7236328125,0.0771484375,0.0683593750,40.7867431641,-14.6789550781,20.4467773438
2.8762731552,-0.7236328125,0.0771484375,0.0683593750,40.7867431641,-14.6789550781,20.4467773438
2.8791561127,-0.7236328125,0.0771484375,0.0683593750,39.4134521484,-14.3127441406,21.2860107422
2.8817241192,-0.7509765625,0.0517578125,0.0639648438,39.4134521484,-14.3127441406,21.2860107422
2.8842949867,-0.7509765625,0.0517578125,0.0639648438,36.4074707031,-13.4124755859,22.8729248047
2.8869462013,-0.7509765625,0.0517578125,0.0639648438,36.4074707031,-13.4124755859,22.8729248047
2.8895201683,-0.7509765625,0.0517578125,0.0639648438,33.9813232422,-12.5274658203,26.8859863281
2.8920910358,-0.7211914062,0.0839843750,0.0747070312,33.9813232422,-12.5274658203,26.8859863281
2.8946640491,-0.7211914062,0.0839843750,0.0747070312,36.0717773438,-11.4898681641,29.9835205078
2.8973021507,-0.7211914062,0.0839843750,0.0747070312,36.0717773438,-11.4898681641,29.9835205078
2.8998711109,-0.7211914062,0.0839843750,0.0747070312,39.9780273438,-9.8114013672,31.3568115234
2.9024350643,-0.7500000000,0.0473632812,0.0839843750,39.7796630859,-9.8114013672,31.3568115234
2.9050071239,-0.7500000000,0.0473632812,0.0839843750,39.7796630859,-9.8114013672,32.4096679688
2.9075810909,-0.7500000000,0.0473632812,0.0839843750,40.1611328125,-8.4686279297,32.4096679688
2.9101550579,-0.7500000000,0.0473632812,0.0839843750,40.1611328125,-8.4686279297,34.9426269531
2.9127221107,-0.7500000000,0.0332031250,0.0625000000,38.4826660156,-9.0484619141,34.9426269531
2.9152951241,-0.7500000000,0.0332031250,0.0625000000,38.4826660156,-9.0484619141,38.8488769531
2.9179041386,-0.7500000000,0.0332031250,0.0625000000,36.4227294922,-9.5367431641,39.0014648438
2.9204730988,-0.7500000000,0.0332031250,0.0625000000,36.4227294922,-9.5367431641,39.0014648438
2.9230420589,-0.7348632812,0.0683593750,0.0551757812,34.2254638672,-9.6435546875,41.9921875000
2.9256131649,-0.7348632812,0.0683593750,0.0551757812,34.2254638672,-9.6435546875,41.9921875000
2.9283790588,-0.7348632812,0.0683593750,0.0551757812,31.8908691406,-9.6435546875,44.3878173828
2.9309539795,-0.7348632812,0.0683593750,0.0620117188,31.8908691406,-9.6435546875,44.3878173828
2.9335291386,-0.7402343750,0.0922851562,0.0620117188,29.9987792969,-9.4451904297,47.8820800781
2.9363491535,-0.7402343750,0.0922851562,0.0620117188,29.9987792969,-9.4451904297,47.8820800781
2.9390561581,-0.7402343750,0.0922851562,0.0620117188,28.8238525391,-9.6282958984,50.3845214844
2.9417591095,-0.7402343750,0.1025390625,0.0786132812,28.8238525391,-9.6282958984,50.3845214844
2.9444642067,-0.7412109375,0.1025390625,0.0786132812,28.6560058594,-9.5520019531,52.5207519531
2.9471850395,-0.7412109375,0.1025390625,0.0786132812,28.6560058594,-9.5520019531,52.5207519531
2.9498929977,-0.7412109375,0.1025390625,0.0786132812,29.4799804688,-8.4991455078,55.4046630859
2.9526040554,-0.7285156250,0.1855468750,0.0795898438,29.4799804688,-8.4991455078,55.4046630859
2.9552991390,-0.7285156250,0.1855468750,0.0795898438,33.2641601562,-8.6212158203,56.5185546875
2.9580221176,-0.7285156250,0.1855468750,0.0795898438,33.2641601562,-8.6212158203,56.5185546875
2.9608612061,-0.7285156250,0.1855468750,0.0795898438,36.9262695312,-8.4533691406,56.7932128906
2.9634361267,-0.7436523438,0.1787109375,0.0463867188,36.9262695312,-8.4533691406,56.7932128906
2.9660100937,-0.7436523438,0.1787109375,0.0463867188,38.3758544922,-8.2397460938,57.2052001953
2.9687800407,-0.7436523438,0.1787109375,0.0463867188,38.3758544922,-8.2397460938,57.2052001953
2.9713530540,-0.7436523438,0.1787109375,0.0478515625,37.9638671875,-7.7514648438,59.5703125000
2.9743781090,-0.7500000000,0.1601562500,0.0478515625,37.9638671875,-7.7514648438,59.5703125000
2.9771862030,-0.7500000000,0.1601562500,0.0478515625,35.9497070312,-7.0648193359,62.7899169922
2.9797639847,-0.7500000000,0.1601562500,0.0478515625,35.9497070312,-7.0648193359,62.7899169922
2.9823350906,-0.7553710938,0.1704101562,0.0522460938,33.5083007812,-5.5847167969,65.3381347656
2.9849100113,-0.7553710938,0.1704101562,0.0522460938,33.5083007812,-5.5847167969,65.3381347656
2.9875221252,-0.7553710938,0.1704101562,0.0522460938,31.3873291016,-4.6539306641,68.6950683594
2.9900910854,-0.7553710938,0.1704101562,0.0522460938,31.3873291016,-4.6539306641,68.6950683594
2.9926631451,-0.7553710938,0.1523437500,0.0644531250,29.9377441406,-3.5095214844,70.4193115234
2.9952330589,-0.7553710938,0.1523437500,0.0644531250,29.9377441406,-3.5095214844,70.4193115234
2.9978470802,-0.7553710938,0.1523437500,0.0644531250,29.9377441406,-2.2125244141,71.5179443359
3.0005280972,-0.7553710938,0.1523437500,0.0644531250,29.4799804688,-2.2125244141,71.5179443359
3.0030970573,-0.8012695312,0.1479492188,0.0590820312,29.4799804688,-0.7781982422,73.3947753906
3.0056669712,-0.8012695312,0.1479492188,0.0590820312,29.2663574219,-0.7781982422,73.3947753906
3.0082941055,-0.8012695312,0.1479492188,0.0590820312,29.2663574219,-0.7781982422,76.9805908203
3.0108602047,-0.8012695312,0.1479492188,0.0590820312,28.1524658203,0.9155273438,76.9805908203
3.0134301186,-0.7861328125,0.1767578125,0.0727539062,28.1524658203,0.9155273438,80.8868408203
3.0160031319,-0.7861328125,0.1767578125,0.0727539062,26.4587402344,1.8005371094,80.0170898438
3.0187830925,-0.7861328125,0.1767578125,0.0727539062,26.4587402344,1.8005371094,83.9233398438
3.0213580132,-0.7861328125,0.1767578125,0.0727539062,23.8647460938,2.3345947266,82.1685791016
3.0239250660,-0.7963867188,0.1704101562,0.0546875000,23.8647460938,2.3345947266,82.1685791016
3.0266561508,-0.7963867188,0.1704101562,0.0546875000,22.0336914062,4.3029785156,83.9538574219
3.0292241573,-0.7963867188,0.1704101562,0.0546875000,22.0336914062,4.3029785156,83.9538574219
3.0317940712,-0.7963867188,0.1704101562,0.0546875000,20.8892822266,5.7525634766,85.1593017578
3.0343751907,-0.8007812500,0.2031250000,0.0351562500,20.8892822266,5.7525634766,85.1593017578
3.0370051861,-0.8007812500,0.2031250000,0.0351562500,19.3634033203,7.7514648438,86.5173339844
3.0396730900,-0.8007812500,0.2031250000,0.0351562500,19.3634033203,7.7514648438,86.5173339844
3.0423321724,-0.8007812500,0.2031250000,0.0541992188,18.3715820312,9.6588134766,87.6007080078
3.0450000763,-0.7812500000,0.2402343750,0.0541992188,18.3715820312,9.6588134766,87.6007080078
3.0477390289,-0.7812500000,0.2402343750,0.0541992188,18.6614990234,11.1389160156,88.6688232422
3.0504460335,-0.7812500000,0.2402343750,0.0541992188,18.6614990234,11.1389160156,88.6688232422
3.0531611443,-0.7895507812,0.2373046875,0.0947265625,19.0734863281,11.3983154297,89.3554687500
3.0558710098,-0.7895507812,0.2373046875,0.0947265625,19.0734863281,11.3983154297,89.3554687500
3.0585911274,-0.7895507812,0.2373046875,0.0947265625,21.0418701172,11.1999511719,88.9434814453
3.0612990856,-0.7895507812,0.2373046875,0.0947265625,21.0418701172,11.1999511719,88.9434814453
3.0641090870,-0.8081054688,0.3032226562,0.0795898438,23.6968994141,10.6048583984,88.2568359375
3.0668120384,-0.8081054688,0.3032226562,0.0795898438,23.6968994141,10.6048583984,88.2568359375
3.0694720745,-0.8081054688,0.3032226562,0.0795898438,26.3977050781,9.0332031250,86.8225097656
3.0721449852,-0.8081054688,0.3032226562,0.0795898438,26.3977050781,9.0332031250,86.8225097656
3.0747141838,-0.8198242188,0.3251953125,0.0717773438,30.1208496094,7.9040527344,85.3576660156
3.0773251057,-0.8198242188,0.3251953125,0.0717773438,30.1208496094,7.9040527344,85.3576660156
3.0798950195,-0.8198242188,0.3251953125,0.0717773438,32.5775146484,6.9274902344,84.3658447266
3.0825941563,-0.8198242188,0.3251953125,0.0161132812,32.5775146484,6.9274902344,84.3658447266
3.0851740837,-0.8652343750,0.3115234375,0.0161132812,32.8216552734,6.7138671875,84.4421386719
3.0878360271,-0.8652343750,0.3115234375,0.0161132812,32.8216552734,6.7138671875,84.4421386719
3.0905451775,-0.8652343750,0.3115234375,0.0161132812,31.1889648438,7.6751708984,85.6475830078
3.0932531357,-0.9902343750,0.2524414062,-0.0214843750,31.1889648438,7.6751708984,85.6475830078
3.0959560871,-0.9233398438,0.2524414062,-0.0214843750,27.8778076172,8.6822509766,87.0513916016
3.0986671448,-0.9233398438,0.2524414062,-0.0214843750,27.8778076172,8.6822509766,87.0513916016
3.1013760567,-0.9233398438,0.2524414062,-0.0214843750,24.5819091797,9.0179443359,89.6148681641
3.1040830612,-0.9482421875,0.2216796875,-0.0043945312,24.5819091797,9.0179443359,89.6148681641
3.1067821980,-0.9482421875,0.2216796875,-0.0043945312,20.6756591797,9.1400146484,93.4906005859
3.1093580723,-0.9482421875,0.2216796875,-0.0043945312,21.0723876953,9.1400146484,93.4906005859
3.1119360924,-0.9482421875,0.2216796875,-0.0043945312,21.0723876953,8.4991455078,97.4731445312
3.1145181656,-0.9448242188,0.2260742188,-0.0463867188,18.0206298828,8.4991455078,97.4731445312
3.1172351837,-0.9448242188,0.2260742188,-0.0463867188,18.0206298828,8.4991455078,100.4486083984
3.1198091507,-0.9448242188,0.2260742188,-0.0463867188,15.3198242188,8.9874267578,100.4486083984
3.1223840714,-0.9448242188,0.2260742188,-0.0463867188,15.3198242188,8.9874267578,103.1341552734
3.1249561310,-0.9726562500,0.2524414062,-0.0864257812,13.9617919922,9.5825195312,103.1341552734
3.1277270317,-0.9726562500,0.2524414062,-0.0864257812,13.9617919922,9.5825195312,107.0404052734
3.1303000450,-0.9726562500,0.2524414062,-0.0864257812,10.6964111328,9.5672607422,106.5521240234
3.1328761578,-0.9726562500,0.2524414062,-0.1049804688,10.6964111328,9.5672607422,106.5521240234
3.1354560852,-1.0151367188,0.2045898438,-0.1049804688,5.4626464844,10.3302001953,109.7869873047
3.1382761002,-1.0151367188,0.2045898438,-0.1049804688,5.4626464844,10.3302001953,109.7869873047
3.1409749985,-1.0151367188,0.2045898438,-0.1049804688,-0.3509521484,12.2985839844,112.8997802734
3.1436769962,-1.0151367188,0.2255859375,-0.0820312500,-0.3509521484,12.2985839844,112.8997802734
3.1463761330,-1.0776367188,0.2255859375,-0.0820312500,-5.9051513672,13.1835937500,115.4479980469
3.1489510536,-1.0776367188,0.2255859375,-0.0820312500,-5.9051513672,13.1835937500,115.4479980469
3.1515212059,-1.0776367188,0.2255859375,-0.0820312500,-9.5520019531,11.7950439453,118.1488037109
3.1540939808,-1.1088867188,0.2441406250,-0.0356445312,-9.5520019531,11.7950439453,118.1488037109
3.1567261219,-1.1088867188,0.2441406250,-0.0356445312,-12.0849609375,10.3149414062,119.9645996094
3.1592991352,-1.1088867188,0.2441406250,-0.0356445312,-12.0849609375,10.3149414062,119.9645996094
3.1618711948,-1.1088867188,0.2441406250,-0.0356445312,-12.6647949219,8.3770751953,121.4904785156
3.1644420624,-1.1533203125,0.2241210938,0.0014648438,-12.6647949219,8.3770751953,121.4904785156
3.1672921181,-1.1533203125,0.2241210938,0.0014648438,-10.9405517578,6.6986083984,123.1842041016
3.1698670387,-1.1533203125,0.2241210938,0.0014648438,-10.9405517578,6.6986083984,123.1842041016
3.1725590229,-1.1533203125,0.2241210938,0.0014648438,-9.1857910156,5.5389404297,124.0234375000
3.1758790016,-1.1767578125,0.1757812500,0.0380859375,-9.1857910156,5.5389404297,124.0234375000
3.1784660816,-1.1767578125,0.1757812500,0.0380859375,-6.2713623047,4.6081542969,123.8708496094
3.1810321808,-1.1767578125,0.1757812500,0.0380859375,-6.2713623047,4.6081542969,123.8708496094
3.1836102009,-1.1767578125,0.1757812500,0.0864257812,-3.4179687500,3.2653808594,124.5880126953
3.1861741543,-1.1567382812,0.1459960938,0.0864257812,-3.4179687500,3.2653808594,124.5880126953
3.1887459755,-1.1567382812,0.1459960938,0.0864257812,1.1138916016,1.3885498047,126.1291503906
3.1913120747,-1.1567382812,0.1459960938,0.0864257812,1.1138916016,1.3885498047,126.1291503906
3.1939921379,-1.1567382812,0.1547851562,0.1254882812,7.9956054688,-1.2817382812,129.8522949219
3.1965730190,-1.1040039062,0.1547851562,0.1254882812,7.9956054688,-1.2817382812,129.8522949219
3.1991369724,-1.1040039062,0.1547851562,0.1254882812,7.9956054688,-2.7770996094,134.2163085938
3.2017049789,-1.1040039062,0.1547851562,0.1254882812,17.4713134766,-2.7770996094,134.2163085938
3.2042851448,-1.1040039062,0.0927734375,0.1542968750,17.4713134766,-2.7770996094,139.6789550781
3.2069280148,-1.1245117188,0.0927734375,0.1542968750,30.1361083984,-4.3029785156,139.6789550781
3.2095019817,-1.1245117188,0.0927734375,0.1542968750,30.1361083984,-4.3029785156,142.4713134766
3.2120749950,-1.1245117188,0.0927734375,0.1542968750,43.1060791016,-7.1716308594,142.4713134766
3.2146461010,-1.2055664062,-0.0068359375,0.1787109375,43.1060791016,-7.1716308594,142.4713134766
3.2172679901,-1.2055664062,-0.0068359375,0.1787109375,56.3507080078,-10.0250244141,143.5546875000
3.2198450565,-1.2055664062,-0.0068359375,0.1787109375,56.3507080078,-10.0250244141,143.5546875000
3.2224152088,-1.2055664062,-0.0068359375,0.1787109375,70.5108642578,-12.7410888672,145.1721191406
3.2249929905,-1.3647460938,-0.1777343750,0.2338867188,70.5108642578,-12.7410888672,145.1721191406
3.2276790142,-1.3647460938,-0.1777343750,0.2338867188,83.9538574219,-14.6789550781,146.3317871094
3.2302529812,-1.3647460938,-0.1777343750,0.2338867188,83.9538574219,-14.6789550781,146.3317871094
3.2328271866,-1.3647460938,-0.1777343750,0.2338867188,96.3134765625,-16.3269042969,147.1862792969
3.2353990078,-1.4926757812,-0.3393554688,0.2788085938,96.3134765625,-16.3269042969,147.1862792969
3.2379879951,-1.4926757812,-0.3393554688,0.2788085938,104.7363281250,-19.1040039062,149.2156982422
3.2405622005,-1.4926757812,-0.3393554688,0.2788085938,104.7363281250,-19.1040039062,149.2156982422
3.2431380749,-1.4926757812,-0.3393554688,0.2788085938,108.6883544922,-22.9949951172,152.6947021484
3.2457191944,-1.5244140625,-0.2568359375,0.3090820312,108.6883544922,-22.9949951172,152.6947021484
3.2484171391,-1.5244140625,-0.2568359375,0.3090820312,106.3232421875,-26.0925292969,157.6995849609
3.2509911060,-1.5244140625,-0.2568359375,0.3090820312,106.3232421875,-26.0925292969,157.6995849609
3.2535681725,-1.5244140625,-0.2568359375,0.3090820312,106.3232421875,-28.6712646484,163.6810302734
3.2562670708,-1.6010742188,-0.1337890625,0.2919921875,101.1352539062,-28.6712646484,163.6810302734
3.2588481903,-1.6010742188,-0.1337890625,0.2919921875,101.1352539062,-24.7650146484,166.5954589844
3.2614200115,-1.6010742188,-0.1337890625,0.2919921875,103.6987304688,-27.2674560547,166.5954589844
3.2639961243,-1.6010742188,-0.1337890625,0.2919921875,103.6987304688,-27.2674560547,167.8314208984
3.2665710449,-1.6572265625,-0.1508789062,0.3276367188,109.4665527344,-24.1241455078,167.8314208984
3.2691421509,-1.6572265625,-0.1508789062,0.3276367188,109.4665527344,-24.1241455078,167.8314208984
3.2717130184,-1.6572265625,-0.1508789062,0.3276367188,109.1766357422,-22.3083496094,166.1682128906
3.2742891312,-1.6572265625,-0.1508789062,0.4819335938,109.1766357422,-22.3083496094,166.1682128906
3.2769510746,-1.6093750000,-0.1948242188,0.4819335938,101.1962890625,-20.4620361328,161.5753173828
3.2795300484,-1.6093750000,-0.1948242188,0.4819335938,101.1962890625,-20.4620361328,161.5753173828
3.2821450233,-1.6093750000,-0.1948242188,0.4819335938,81.1614990234,-15.1672363281,157.5164794922
3.2848370075,-1.6093750000,-0.0673828125,0.4326171875,81.1614990234,-15.1672363281,157.5164794922
3.2874810696,-1.5683593750,-0.0673828125,0.4326171875,66.9403076172,-8.1481933594,155.8990478516
3.2901871204,-1.5683593750,-0.0673828125,0.4326171875,66.9403076172,-8.1481933594,155.8990478516
3.2928881645,-1.5683593750,-0.0673828125,0.4326171875,59.9365234375,-3.4484863281,161.1328125000
3.2955911160,-1.4257812500,0.1040039062,0.3134765625,59.9365234375,-3.4484863281,161.1328125000
