time, acceleration x, acceleration y, acceleration z, gyro x gyro y, gyro z
        0.0000000000,       -0.1555682421,-0.1120050699,0.0270245671,2.9624414444,1.6938078403,3.6648569107
        0.0026588440,       -0.1555682421,-0.1120050699,0.0270245671,2.8403711319,1.5869963169,3.8021860123
        0.0052208900,       -0.1526385546,-0.0997980386,0.0343487859,2.8403711319,1.5869963169,3.8021860123
        0.0079109669,       -0.1526385546,-0.0997980386,0.0343487859,2.7030420303,1.5564787388,3.6801156998
        0.0106058121,       -0.1526385546,-0.0997980386,0.0343487859,2.7030420303,1.5564787388,3.6801156998
        0.0132968426,       -0.1526385546,-0.0997980386,0.0343487859,2.9471826553,1.7548429966,4.1378793716
        0.0159988403,       -0.1531268358,-0.1090753824,0.0343487859,2.9471826553,1.7548429966,4.1378793716
        0.0187809467,       -0.1531268358,-0.1090753824,0.0343487859,3.2523584366,1.8311369419,4.3667612076
        0.0214498043,       -0.1531268358,-0.1090753824,0.0343487859,3.2523584366,1.8311369419,4.3667612076
        0.0243690014,       -0.1497088671,-0.1100519449,0.0299542546,3.0997705460,1.7090666294,4.2141733170
        0.0273678303,       -0.1497088671,-0.1100519449,0.0299542546,3.0997705460,1.7090666294,4.2141733170
        0.0299308300,       -0.1497088671,-0.1100519449,0.0299542546,2.7183008194,1.6632902622,4.2141733170
        0.0324878693,       -0.1497088671,-0.1100519449,0.0299542546,2.7183008194,1.6632902622,4.2141733170
        0.0350439548,       -0.1458026171,-0.0997980386,0.0363019109,2.7793359756,1.7701017857,4.2141733170
        0.0377678871,       -0.1458026171,-0.0997980386,0.0363019109,2.7793359756,1.7701017857,4.2141733170
        0.0404198170,       -0.1458026171,-0.0997980386,0.0363019109,3.0692529678,1.9379484653,4.2141733170
        0.0436768532,       -0.1458026171,-0.0997980386,0.0265362859,3.0692529678,1.9379484653,4.2141733170
        0.0463168621,       -0.1501971483,-0.1051691324,0.0265362859,3.4202051163,2.2736418247,4.1378793716
        0.0488870144,       -0.1501971483,-0.1051691324,0.0265362859,3.4202051163,2.2736418247,4.1378793716
        0.0514459610,       -0.1501971483,-0.1051691324,0.0265362859,3.8321924210,2.4872648716,4.3667612076
        0.0541658401,       -0.1501971483,-0.1149347574,0.0372784734,3.8321924210,2.4872648716,4.3667612076
        0.0567359924,       -0.1555682421,-0.1149347574,0.0372784734,4.0458154678,2.1668303013,4.6109018326
        0.0592978001,       -0.1555682421,-0.1149347574,0.0372784734,4.0458154678,2.1668303013,4.6109018326
        0.0618538857,       -0.1555682421,-0.1149347574,0.0372784734,3.8627099991,2.0600187778,4.5346078873
        0.0644209385,       -0.1555682421,-0.1163996011,0.0309308171,3.8627099991,2.0600187778,4.5346078873
        0.0670340061,       -0.1643573046,-0.1163996011,0.0309308171,3.8627099991,2.3194181919,4.5956430435
        0.0695970058,       -0.1643573046,-0.1163996011,0.0309308171,3.6338281631,2.3194181919,4.5956430435
        0.0721619129,       -0.1643573046,-0.1163996011,0.0309308171,3.6338281631,2.3194181919,4.5651254654
        0.0747258663,       -0.1609393358,-0.1115167886,0.0280011296,2.9624414444,2.6551115513,4.5651254654
        0.0772988796,       -0.1609393358,-0.1115167886,0.0280011296,2.9624414444,2.6551115513,4.4735727310
        0.0798628330,       -0.1609393358,-0.1115167886,0.0280011296,2.8708887100,2.4720060825,4.4735727310
        0.0824208260,       -0.1609393358,-0.1115167886,0.0280011296,2.8708887100,2.4720060825,4.4735727310
        0.0849878788,       -0.1643573046,-0.1002863199,0.0348370671,2.4894189835,2.6093351841,4.3667612076
        0.0877180099,       -0.1643573046,-0.1002863199,0.0348370671,2.4894189835,2.6093351841,4.3667612076
        0.0902898312,       -0.1643573046,-0.1002863199,0.0348370671,2.1995019913,2.5940763950,4.1836557388
        0.0928568840,       -0.1643573046,-0.1002863199,0.0348370671,2.1995019913,2.5940763950,4.1836557388
        0.0954298973,       -0.1594744921,-0.1061456949,0.0314190984,1.7417383194,2.6856291294,3.8479623795
        0.0981748104,       -0.1594744921,-0.1061456949,0.0314190984,1.7417383194,2.6856291294,3.8479623795
        0.1008388996,       -0.1594744921,-0.1061456949,0.0314190984,1.5281152725,2.5025236607,3.6648569107
        0.1036159992,       -0.1594744921,-0.1061456949,0.0314190984,1.5281152725,2.5025236607,3.6648569107
        0.1063239574,       -0.1550799608,-0.0914972574,0.0104230046,1.5891504288,2.0600187778,3.2986459732
        0.1088860035,       -0.1550799608,-0.0914972574,0.0104230046,1.5891504288,2.0600187778,3.2986459732
        0.1114559174,       -0.1550799608,-0.0914972574,0.0104230046,1.6196680069,1.9684660435,2.7645883560
        0.1140189171,       -0.1550799608,-0.0914972574,0.0104230046,1.6196680069,1.9684660435,2.7645883560
        0.1167628765,       -0.1575213671,-0.0978449136,0.0162823796,1.8485498428,1.9837248325,2.7798471451
        0.1193258762,       -0.1575213671,-0.0978449136,0.0162823796,1.8485498428,1.9837248325,2.7798471451
        0.1218879223,       -0.1575213671,-0.0978449136,0.0162823796,1.8180322647,2.2889006138,2.9019174576
        0.1244518757,       -0.1575213671,-0.0978449136,0.0250714421,1.8180322647,2.2889006138,2.9019174576
        0.1270649433,       -0.1545916796,-0.1095636636,0.0250714421,1.6501855850,2.4109709263,2.7493295670
        0.1296269894,       -0.1545916796,-0.1095636636,0.0250714421,1.6501855850,2.4109709263,2.7493295670
        0.1321949959,       -0.1545916796,-0.1095636636,0.0250714421,1.6501855850,2.2126066685,2.6272592545
        0.1347579956,       -0.1545916796,-0.1095636636,0.0270245671,1.6044092178,2.2126066685,2.6272592545
        0.1373758316,       -0.1580096483,-0.1085871011,0.0270245671,1.6044092178,2.2126066685,2.5967416763
        0.1399419308,       -0.1580096483,-0.1085871011,0.0270245671,1.5586328506,2.1820890903,2.5967416763
        0.1425018311,       -0.1580096483,-0.1085871011,0.0270245671,1.5586328506,2.1820890903,2.5967416763
        0.1450707912,       -0.1580096483,-0.1037042886,0.0148175359,1.6959619522,2.0905363560,2.3373422623
        0.1476638317,       -0.1521502733,-0.1037042886,0.0148175359,1.6959619522,2.0905363560,2.3373422623
        0.1502230167,       -0.1521502733,-0.1037042886,0.0148175359,1.4975976944,2.2278654575,2.2610483170
        0.1529588699,       -0.1521502733,-0.1037042886,0.0148175359,1.4975976944,2.2278654575,2.2610483170
        0.1555228233,       -0.1521502733,-0.1071222574,0.0192120671,1.7112207413,2.3346769810,2.6272592545
        0.1586558819,       -0.1619158983,-0.1071222574,0.0192120671,1.7112207413,2.3346769810,2.6272592545
        0.1613597870,       -0.1619158983,-0.1071222574,0.0192120671,1.6349267960,2.3804533482,2.6577768326
        0.1640558243,       -0.1619158983,-0.1071222574,0.0192120671,1.6349267960,2.3804533482,2.6577768326
        0.1667659283,       -0.1570330858,-0.1076105386,0.0270245671,1.4975976944,2.5635588169,2.6425180435
        0.1694669724,       -0.1570330858,-0.1076105386,0.0270245671,1.4975976944,2.5635588169,2.6425180435
        0.1721639633,       -0.1570330858,-0.1076105386,0.0270245671,2.2300195694,2.0600187778,2.6730356216
        0.1748700142,       -0.1570330858,-0.1076105386,0.0338605046,2.2300195694,2.0600187778,2.6730356216
        0.1774950027,       -0.1648455858,-0.1168878824,0.0338605046,2.2452783585,2.0295011997,2.8103647232
        0.1801807880,       -0.1648455858,-0.1168878824,0.0338605046,2.2452783585,2.0295011997,2.8103647232
        0.1827528477,       -0.1648455858,-0.1168878824,0.0338605046,1.7722558975,2.6093351841,2.7493295670
        0.1853179932,       -0.1648455858,-0.1168878824,0.0206769109,1.7722558975,2.6093351841,2.7493295670
        0.1878988743,       -0.1692401171,-0.1173761636,0.0206769109,1.2687158585,2.5940763950,3.0239877701
        0.1904687881,       -0.1692401171,-0.1173761636,0.0206769109,1.2687158585,2.5940763950,3.0239877701
        0.1930367947,       -0.1692401171,-0.1173761636,0.0206769109,0.9940576553,2.7619230747,3.1613168716
        0.1956079006,       -0.1692401171,-0.1046808511,0.0211651921,0.9940576553,2.7619230747,3.1613168716
        0.1981828213,       -0.1536151171,-0.1046808511,0.0211651921,0.5362939835,2.7161467075,3.2223520279
        0.2007508278,       -0.1536151171,-0.1046808511,0.0211651921,0.5362939835,2.7161467075,3.2223520279
        0.2034168243,       -0.1536151171,-0.1046808511,0.0211651921,0.4294824600,3.0213224888,2.8408823013
        0.2060909271,       -0.1536151171,-0.0983331949,0.0416730046,0.4294824600,3.0213224888,2.8408823013
        0.2086639404,       -0.1536151171,-0.0983331949,0.0416730046,0.4294824600,3.0213224888,2.9019174576
        0.2112288475,       -0.1536151171,-0.0983331949,0.0416730046,0.7499170303,3.0213224888,2.9019174576
        0.2137959003,       -0.1536151171,-0.0983331949,0.0416730046,0.7499170303,2.3346769810,3.0087289810
        0.2164058685,       -0.1565448046,-0.1017511636,0.0226300359,1.1924219131,2.3346769810,3.0087289810
        0.2190978527,       -0.1565448046,-0.1017511636,0.0226300359,1.1924219131,2.3346769810,3.0697641373
        0.2217938900,       -0.1565448046,-0.1017511636,0.0226300359,1.3144922256,2.5635588169,3.0697641373
        0.2244958878,       -0.1565448046,-0.1017511636,0.0226300359,1.3144922256,2.5635588169,2.9324350357
        0.2271738052,       -0.1599627733,-0.1076105386,0.0338605046,1.5738916397,2.5635588169,2.9324350357
        0.2297468185,       -0.1599627733,-0.1076105386,0.0338605046,1.5738916397,2.5635588169,2.6882944107
        0.2323129177,       -0.1599627733,-0.1076105386,0.0338605046,1.7417383194,2.5483000278,2.6882944107
        0.2348768711,       -0.1599627733,-0.1076105386,0.0338605046,1.7417383194,2.5483000278,2.6882944107
        0.2375359535,       -0.1565448046,-0.1134699136,0.0348370671,1.8332910538,2.4720060825,2.5051889420
        0.2402338982,       -0.1565448046,-0.1134699136,0.0348370671,1.8332910538,2.4720060825,2.5051889420
        0.2430408001,       -0.1565448046,-0.1134699136,0.0348370671,1.4518213272,2.8687345982,2.5357065201
        0.2457439899,       -0.1565448046,-0.1134699136,0.0284894109,1.4518213272,2.8687345982,2.5357065201
        0.2484469414,       -0.1624041796,-0.1124933511,0.0284894109,1.5433740616,3.2349455357,2.5662240982
        0.2510159016,       -0.1624041796,-0.1124933511,0.0284894109,1.5433740616,3.2349455357,2.5662240982
        0.2535808086,       -0.1624041796,-0.1124933511,0.0284894109,1.8027734756,2.8229582310,3.1002817154
        0.2563560009,       -0.1624041796,-0.1183527261,0.0153058171,1.8027734756,2.8229582310,3.1002817154
        0.2589178085,       -0.1667987108,-0.1183527261,0.0153058171,1.8332910538,2.6245939732,2.7645883560
        0.2620229721,       -0.1667987108,-0.1183527261,0.0153058171,1.8332910538,2.6245939732,2.7645883560
        0.2645888329,       -0.1667987108,-0.1183527261,0.0153058171,1.8943262100,2.6703703403,3.0697641373
        0.2672259808,       -0.1511737108,-0.1144464761,0.0118878484,1.8943262100,2.6703703403,3.0697641373
        0.2697908878,       -0.1511737108,-0.1144464761,0.0118878484,0.9482812881,2.6703703403,3.3749399185
        0.2723469734,       -0.1511737108,-0.1144464761,0.0118878484,0.9482812881,2.6703703403,3.3749399185
        0.2749059200,       -0.1511737108,-0.1144464761,0.0118878484,0.8109521866,2.8229582310,3.6343393326
        0.2774708271,       -0.1570330858,-0.1071222574,0.0123761296,0.8109521866,2.8229582310,3.6343393326
        0.2800359726,       -0.1570330858,-0.1071222574,0.0123761296,0.7651758194,2.5330412388,3.8327035904
        0.2825949192,       -0.1570330858,-0.1071222574,0.0123761296,0.7651758194,2.5330412388,3.8327035904
        0.2851569653,       -0.1570330858,-0.1071222574,0.0123761296,0.8414697647,2.6245939732,3.8937387466
        0.2877738476,       -0.1589862108,-0.1032160074,0.0153058171,0.8414697647,2.6245939732,3.8937387466
        0.2903368473,       -0.1589862108,-0.1032160074,0.0153058171,1.6501855850,1.9837248325,3.8784799576
        0.2929019928,       -0.1589862108,-0.1032160074,0.0153058171,1.6501855850,1.9837248325,3.8784799576
        0.2954659462,       -0.1589862108,-0.1032160074,0.0153058171,1.6501855850,1.7090666294,3.8174448013
        0.2980368137,       -0.1604510546,-0.1027277261,0.0231183171,2.0011377335,1.7090666294,3.8174448013
        0.3006079197,       -0.1604510546,-0.1027277261,0.0231183171,2.0011377335,1.7090666294,3.9395151138
        0.3031978607,       -0.1604510546,-0.1027277261,0.0231183171,1.8943262100,1.7548429966,3.9395151138
        0.3058679104,       -0.1604510546,-0.1027277261,0.0231183171,1.8943262100,1.7548429966,3.5580453873
        0.3084988594,       -0.1570330858,-0.1080988199,0.0177472234,1.4060449600,1.8311369419,3.5580453873
        0.3110690117,       -0.1570330858,-0.1080988199,0.0177472234,1.4060449600,1.8311369419,3.5580453873
        0.3136408329,       -0.1570330858,-0.1080988199,0.0177472234,1.7264795303,2.1363127232,3.9242563248
        0.3163528442,       -0.1570330858,-0.1080988199,0.0201886296,1.7264795303,2.1363127232,3.9242563248
        0.3190469742,       -0.1599627733,-0.1066339761,0.0201886296,1.6501855850,2.2431242466,3.9242563248
        0.3217499256,       -0.1599627733,-0.1066339761,0.0201886296,1.6501855850,2.2431242466,3.9242563248
        0.3244500160,       -0.1599627733,-0.1066339761,0.0201886296,1.5128564835,2.3651945591,3.6495981216
        0.3271088600,       -0.1599627733,-0.1046808511,0.0226300359,1.5128564835,2.3651945591,3.6495981216
        0.3296718597,       -0.1531268358,-0.1046808511,0.0226300359,1.4213037491,2.3957121372,3.3444223404
        0.3322370052,       -0.1531268358,-0.1046808511,0.0226300359,1.4213037491,2.3957121372,3.3444223404
        0.3348038197,       -0.1531268358,-0.1046808511,0.0226300359,2.2452783585,2.1515715122,3.7716684341
        0.3374869823,       -0.1506854296,-0.0944269449,0.0162823796,2.2452783585,2.1515715122,3.7716684341
        0.3401849270,       -0.1506854296,-0.0944269449,0.0162823796,3.0997705460,2.0142424107,4.1073617935
        0.3428878784,       -0.1506854296,-0.0944269449,0.0162823796,3.0997705460,2.0142424107,4.1073617935
        0.3455889225,       -0.1506854296,-0.0944269449,0.0162823796,2.6572656631,2.0142424107,3.7258920670
        0.3482978344,       -0.1516619921,-0.1027277261,0.0201886296,2.6572656631,2.0142424107,3.7258920670
        0.3511099815,       -0.1516619921,-0.1027277261,0.0201886296,2.4589014053,2.1973478794,3.7411508560
        0.3536779881,       -0.1516619921,-0.1027277261,0.0201886296,2.4589014053,2.1973478794,3.7411508560
        0.3564159870,       -0.1516619921,-0.1027277261,0.0201886296,1.9401025772,2.2736418247,3.8632211685
        0.3590748310,       -0.1526385546,-0.1080988199,0.0197003484,1.9401025772,2.2736418247,3.8632211685
        0.3622419834,       -0.1526385546,-0.1080988199,0.0197003484,2.0926904678,2.3041594028,3.7869272232
        0.3648118973,       -0.1526385546,-0.1080988199,0.0197003484,2.0926904678,2.3041594028,3.7869272232
        0.3674488068,       -0.1526385546,-0.1022394449,0.0231183171,1.8638086319,2.2889006138,3.7716684341
        0.3701169491,       -0.1550799608,-0.1022394449,0.0231183171,1.8638086319,2.2889006138,3.7716684341
        0.3726809025,       -0.1550799608,-0.1022394449,0.0231183171,1.2076807022,2.5025236607,3.6038217545
        0.3752419949,       -0.1550799608,-0.1022394449,0.0231183171,1.2076807022,2.5025236607,3.6038217545
        0.3778247833,       -0.1570330858,-0.0983331949,0.0187237859,1.8180322647,2.0600187778,3.8479623795
        0.3803868294,       -0.1570330858,-0.0983331949,0.0187237859,1.8180322647,2.0600187778,3.8479623795
        0.3829569817,       -0.1570330858,-0.0983331949,0.0187237859,2.1384668350,1.6022551060,3.7258920670
        0.3855168819,       -0.1570330858,-0.0983331949,0.0187237859,2.1384668350,1.6022551060,3.7258920670
        0.3881449699,       -0.1584979296,-0.1076105386,0.0133526921,2.1384668350,1.7243254185,3.8327035904
        0.3907108307,       -0.1584979296,-0.1076105386,0.0133526921,2.4283838272,1.7243254185,3.8327035904
        0.3932747841,       -0.1584979296,-0.1076105386,0.0133526921,2.4283838272,1.7243254185,4.0310678482
        0.3958339691,       -0.1584979296,-0.1076105386,0.0133526921,2.8251123428,1.5717375278,4.0310678482
        0.3984019756,       -0.1599627733,-0.1139581949,0.0240948796,2.8251123428,1.5717375278,3.9395151138
        0.4009618759,       -0.1599627733,-0.1139581949,0.0240948796,2.7030420303,1.7090666294,3.9395151138
        0.4035317898,       -0.1599627733,-0.1139581949,0.0240948796,2.7030420303,1.7090666294,3.9395151138
        0.4061110020,       -0.1599627733,-0.1139581949,0.0240948796,2.5809717178,1.6632902622,4.2294321060
        0.4086778164,       -0.1648455858,-0.1139581949,0.0201886296,2.5809717178,1.6632902622,4.2294321060
        0.4112479687,       -0.1648455858,-0.1139581949,0.0201886296,2.2452783585,1.8463957310,4.5346078873
        0.4138159752,       -0.1648455858,-0.1139581949,0.0201886296,2.2452783585,1.8463957310,4.5346078873
        0.4165358543,       -0.1648455858,-0.1139581949,0.0201886296,2.0011377335,1.8463957310,4.6871957779
        0.4191038609,       -0.1653338671,-0.1134699136,0.0260480046,2.0011377335,1.8463957310,4.6871957779
        0.4216639996,       -0.1653338671,-0.1134699136,0.0260480046,1.8027734756,1.7853605747,4.7024545670
        0.4242389202,       -0.1653338671,-0.1134699136,0.0260480046,1.8027734756,1.7853605747,4.7024545670
        0.4268889427,       -0.1653338671,-0.1134699136,0.0260480046,1.3144922256,2.4109709263,4.8245248795
        0.4295859337,       -0.1584979296,-0.0997980386,0.0187237859,1.3144922256,2.4109709263,4.8245248795
        0.4322898388,       -0.1584979296,-0.0997980386,0.0187237859,1.3297510147,2.3346769810,5.0076303482
        0.4351079464,       -0.1584979296,-0.0997980386,0.0187237859,1.3297510147,2.3346769810,5.0076303482
        0.4378528595,       -0.1584979296,-0.0997980386,0.0167706609,1.5433740616,2.1363127232,4.4430551529
        0.4405529499,       -0.1555682421,-0.0875910074,0.0167706609,1.5433740616,2.1363127232,4.4430551529
        0.4432528019,       -0.1555682421,-0.0875910074,0.0167706609,2.4131250381,1.3886320591,4.3057260513
        0.4459679127,       -0.1555682421,-0.0875910074,0.0167706609,2.4131250381,1.3886320591,4.3057260513
        0.4486708641,       -0.1516619921,-0.0988214761,0.0260480046,2.1842432022,0.9461271763,3.9852914810
        0.4513688087,       -0.1516619921,-0.0988214761,0.0260480046,2.1842432022,0.9461271763,3.9852914810
        0.4540657997,       -0.1516619921,-0.0988214761,0.0260480046,2.1537256241,1.1444914341,3.7564096451
        0.4570269585,       -0.1516619921,-0.0988214761,0.0260480046,2.1537256241,1.1444914341,3.7564096451
        0.4596889019,       -0.1511737108,-0.0958917886,0.0109112859,1.7569971085,1.2360441685,3.5427865982
        0.4629759789,       -0.1511737108,-0.0958917886,0.0109112859,1.7569971085,1.2360441685,3.5427865982
        0.4655427933,       -0.1511737108,-0.0958917886,0.0109112859,1.6196680069,1.5259611607,3.5427865982
        0.4681789875,       -0.1511737108,-0.0993097574,0.0162823796,1.6196680069,1.5259611607,3.5427865982
        0.4707469940,       -0.1511737108,-0.0993097574,0.0162823796,1.9706201553,1.6022551060,3.4817514420
        0.4733078480,       -0.1511737108,-0.0993097574,0.0162823796,1.9706201553,1.6022551060,3.4817514420
        0.4758679867,       -0.1511737108,-0.0993097574,0.0162823796,2.2452783585,1.3123381138,3.5275278091
        0.4784398079,       -0.1511737108,-0.0983331949,0.0284894109,2.2452783585,1.3123381138,3.5275278091
        0.4810028076,       -0.1472674608,-0.0983331949,0.0284894109,2.0774316788,1.4954435825,3.6038217545
        0.4835679531,       -0.1472674608,-0.0983331949,0.0284894109,2.0774316788,1.4954435825,3.6038217545
        0.4861869812,       -0.1472674608,-0.0983331949,0.0284894109,2.0774316788,1.2513029575,3.6343393326
        0.4887518883,       -0.1472674608,-0.1056574136,0.0221417546,2.1995019913,1.2513029575,3.6343393326
        0.4913179874,       -0.1482440233,-0.1056574136,0.0221417546,2.1995019913,1.2513029575,3.1765756607
        0.4938819408,       -0.1482440233,-0.1056574136,0.0221417546,1.9401025772,1.3733732700,3.1765756607
        0.4964699745,       -0.1482440233,-0.1056574136,0.0221417546,1.9401025772,1.3733732700,3.5122690201
        0.4991428852,       -0.1570330858,-0.0919855386,0.0197003484,1.8638086319,1.6632902622,3.5122690201
        0.5017108917,       -0.1570330858,-0.0919855386,0.0197003484,1.8638086319,1.6632902622,3.5122690201
        0.5042729378,       -0.1570330858,-0.0919855386,0.0197003484,2.0774316788,1.2665617466,3.7411508560
        0.5069658756,       -0.1570330858,-0.0919855386,0.0197003484,2.0774316788,1.2665617466,3.7411508560
        0.5095348358,       -0.1541033983,-0.0988214761,0.0118878484,1.7264795303,1.2818205357,3.5885629654
        0.5120999813,       -0.1541033983,-0.0988214761,0.0118878484,1.7264795303,1.2818205357,3.5885629654
        0.5146708488,       -0.1541033983,-0.0988214761,0.0118878484,1.8332910538,1.5717375278,3.8632211685
        0.5173239708,       -0.1541033983,-0.0988214761,0.0118878484,1.8332910538,1.5717375278,3.8632211685
        0.5198848248,       -0.1663104296,-0.0963800699,0.0211651921,2.0316553116,1.0681974888,3.8784799576
        0.5224537849,       -0.1663104296,-0.0963800699,0.0211651921,2.0316553116,1.0681974888,3.8784799576
        0.5250139236,       -0.1663104296,-0.0963800699,0.0211651921,2.2910547256,0.9613859653,3.9547739029
        0.5276429653,       -0.1663104296,-0.0963800699,0.0211651921,2.2910547256,0.9613859653,3.9547739029
        0.5302069187,       -0.1560565233,-0.1007746011,0.0192120671,2.6267480850,1.1902678013,4.2294321060
        0.5327658653,       -0.1560565233,-0.1007746011,0.0192120671,2.6267480850,1.1902678013,4.2294321060
        0.5353319645,       -0.1560565233,-0.1007746011,0.0192120671,3.0692529678,1.0529386997,4.1836557388
        0.5379509926,       -0.1560565233,-0.1007746011,0.0192120671,3.0692529678,1.0529386997,4.1836557388
        0.5405128002,       -0.1604510546,-0.1032160074,0.0167706609,3.0692529678,0.7172453403,4.1531381607
        0.5430769920,       -0.1604510546,-0.1032160074,0.0167706609,2.9319238663,0.7172453403,4.1531381607
        0.5456409454,       -0.1604510546,-0.1032160074,0.0167706609,2.9319238663,0.7172453403,4.5040903091
        0.5482139587,       -0.1604510546,-0.1032160074,0.0167706609,3.1302881241,0.9461271763,4.5040903091
        0.5507798195,       -0.1565448046,-0.1061456949,0.0157940984,3.1302881241,0.9461271763,4.9008188248
        0.5533399582,       -0.1565448046,-0.1061456949,0.0157940984,2.7945947647,0.7782804966,4.9008188248
        0.5559058189,       -0.1565448046,-0.1061456949,0.0157940984,2.7945947647,0.7782804966,4.9008188248
        0.5585188866,       -0.1565448046,-0.1061456949,0.0157940984,2.1995019913,1.2360441685,5.2822885513
        0.5611848831,       -0.1594744921,-0.1027277261,0.0216534734,2.1995019913,1.2360441685,5.2822885513
        0.5637559891,       -0.1594744921,-0.1027277261,0.0216534734,1.9248437881,1.1292326450,5.2517709732
        0.5664179325,       -0.1594744921,-0.1027277261,0.0216534734,1.9248437881,1.1292326450,5.2517709732
        0.5689978600,       -0.1594744921,-0.1027277261,0.0236065984,1.9095849991,1.3123381138,5.3891000748
        0.5715799332,       -0.1633807421,-0.0978449136,0.0236065984,1.9095849991,1.3123381138,5.3891000748
        0.5743889809,       -0.1633807421,-0.0978449136,0.0236065984,2.2910547256,1.0529386997,5.2365121841
        0.5774757862,       -0.1633807421,-0.0978449136,0.0236065984,2.2910547256,1.0529386997,5.2365121841
        0.5801739693,       -0.1589862108,-0.0905206949,0.0201886296,2.2300195694,1.0376799107,5.1297006607
        0.5828659534,       -0.1589862108,-0.0905206949,0.0201886296,2.2300195694,1.0376799107,5.1297006607
        0.5855669975,       -0.1589862108,-0.0905206949,0.0201886296,2.2300195694,1.0681974888,5.1602182388
        0.5882818699,       -0.1589862108,-0.0905206949,0.0201886296,2.2300195694,1.0681974888,5.1602182388
        0.5909838676,       -0.1541033983,-0.0836847574,0.0231183171,2.3520898819,1.0376799107,4.9771127701
        0.5936789513,       -0.1541033983,-0.0836847574,0.0231183171,2.3520898819,1.0376799107,4.9771127701
        0.5963788033,       -0.1541033983,-0.0836847574,0.0231183171,2.6725244522,0.7477629185,4.6719369888
        0.5990829468,       -0.1541033983,-0.0836847574,0.0299542546,2.6725244522,0.7477629185,4.6719369888
        0.6017827988,       -0.1531268358,-0.0905206949,0.0299542546,3.0234766006,0.5188810825,4.6414194107
        0.6044769287,       -0.1531268358,-0.0905206949,0.0299542546,3.0234766006,0.5188810825,4.6414194107
        0.6071238518,       -0.1531268358,-0.0905206949,0.0299542546,3.1455469131,0.7935392857,4.3515024185
        0.6096878052,       -0.1531268358,-0.0949152261,0.0187237859,3.1455469131,0.7935392857,4.3515024185
        0.6122539043,       -0.1550799608,-0.0949152261,0.0187237859,2.9166650772,1.1444914341,4.4735727310
        0.6148200035,       -0.1550799608,-0.0949152261,0.0187237859,2.9166650772,1.1444914341,4.4735727310
        0.6174268723,       -0.1550799608,-0.0949152261,0.0187237859,2.7945947647,1.0376799107,4.5040903091
        0.6199958324,       -0.1550799608,-0.0954035074,0.0197003484,2.7945947647,1.0376799107,4.5040903091
        0.6225659847,       -0.1589862108,-0.0954035074,0.0197003484,2.7488183975,1.0071623325,4.6871957779
        0.6252408028,       -0.1589862108,-0.0954035074,0.0197003484,2.7488183975,1.0071623325,4.6871957779
        0.6279399395,       -0.1589862108,-0.0954035074,0.0197003484,2.2757959366,0.9308683872,4.9618539810
        0.6305069923,       -0.1536151171,-0.0910089761,0.0172589421,2.2757959366,0.9308683872,4.9618539810
        0.6330699921,       -0.1536151171,-0.0910089761,0.0172589421,2.2757959366,0.9156095982,4.9923715591
        0.6356368065,       -0.1536151171,-0.0910089761,0.0172589421,2.0011377335,0.9156095982,4.9923715591
        0.6384379864,       -0.1536151171,-0.0910089761,0.0172589421,2.0011377335,1.2665617466,5.2670297623
        0.6411368847,       -0.1536151171,-0.0885675699,0.0275128484,1.8180322647,1.2665617466,5.2670297623
        0.6438319683,       -0.1536151171,-0.0885675699,0.0275128484,1.8180322647,0.9461271763,5.1144418716
        0.6465399265,       -0.1536151171,-0.0885675699,0.0275128484,1.7417383194,0.9461271763,5.1144418716
        0.6492400169,       -0.1536151171,-0.0885675699,0.0275128484,1.7417383194,0.9156095982,4.6414194107
        0.6519348621,       -0.1497088671,-0.0919855386,0.0153058171,1.8485498428,0.9156095982,4.6414194107
        0.6546289921,       -0.1497088671,-0.0919855386,0.0153058171,1.8485498428,1.2818205357,5.0534067154
        0.6573379040,       -0.1497088671,-0.0919855386,0.0153058171,1.9095849991,1.2818205357,5.0534067154
        0.6600329876,       -0.1497088671,-0.0919855386,0.0221417546,1.9095849991,1.2818205357,5.1602182388
        0.6627268791,       -0.1516619921,-0.0993097574,0.0221417546,2.1995019913,1.2360441685,5.1602182388
        0.6654169559,       -0.1516619921,-0.0993097574,0.0221417546,2.1995019913,1.2360441685,4.7482309341
        0.6680219173,       -0.1516619921,-0.0993097574,0.0221417546,1.7112207413,1.0224211216,4.7482309341
        0.6705918312,       -0.1516619921,-0.0934503824,0.0177472234,1.7112207413,1.0224211216,4.9313364029
        0.6731548309,       -0.1545916796,-0.0934503824,0.0177472234,1.6349267960,1.5107023716,4.9313364029
        0.6757199764,       -0.1545916796,-0.0934503824,0.0177472234,1.6349267960,1.5107023716,4.9313364029
        0.6784718037,       -0.1545916796,-0.0934503824,0.0177472234,1.0856103897,1.6480314732,5.1602182388
        0.6811637878,       -0.1565448046,-0.0871027261,0.0206769109,1.0856103897,1.6480314732,5.1602182388
        0.6838619709,       -0.1565448046,-0.0871027261,0.0206769109,1.4213037491,1.2970793247,4.7329721451
        0.6865658760,       -0.1565448046,-0.0871027261,0.0206769109,1.4213037491,1.2970793247,4.7329721451
        0.6893699169,       -0.1565448046,-0.0871027261,0.0206769109,0.7193994522,1.3886320591,4.9008188248
        0.6920838356,       -0.1580096483,-0.0978449136,0.0182355046,0.7193994522,1.3886320591,4.9465951920
        0.6948938370,       -0.1580096483,-0.0978449136,0.0182355046,0.4294824600,1.4954435825,4.9465951920
        0.6980409622,       -0.1580096483,-0.0978449136,0.0182355046,0.4294824600,1.4954435825,4.5498666763
        0.7007448673,       -0.1580096483,-0.0914972574,0.0216534734,0.4600000381,1.6480314732,4.5498666763
        0.7034459114,       -0.1516619921,-0.0914972574,0.0216534734,0.4600000381,1.6480314732,4.6566781998
        0.7061989307,       -0.1516619921,-0.0914972574,0.0216534734,0.3837060928,1.5107023716,4.6566781998
        0.7088959217,       -0.1516619921,-0.0914972574,0.0216534734,0.3837060928,1.5107023716,4.7482309341
        0.7115969658,       -0.1575213671,-0.0797785074,0.0270245671,0.6278467178,1.5107023716,4.7482309341
        0.7143018246,       -0.1575213671,-0.0797785074,0.0270245671,0.6278467178,1.5107023716,4.2294321060
        0.7170009613,       -0.1575213671,-0.0797785074,0.0270245671,1.1161279678,1.4344084263,4.2294321060
        0.7195680141,       -0.1575213671,-0.0797785074,0.0270245671,1.1161279678,1.4344084263,4.1836557388
        0.7221338749,       -0.1492205858,-0.0861261636,0.0148175359,1.3602685928,1.6175138950,4.1836557388
        0.7246968746,       -0.1492205858,-0.0861261636,0.0148175359,1.3602685928,1.6175138950,4.1836557388
        0.7272758484,       -0.1492205858,-0.0861261636,0.0148175359,1.5891504288,1.2055265903,3.9547739029
        0.7298398018,       -0.1492205858,-0.0861261636,0.0148175359,1.5891504288,1.2055265903,3.9547739029
        0.7324039936,       -0.1487323046,-0.0905206949,0.0187237859,1.3450098038,1.0987150669,3.7258920670
        0.7349739075,       -0.1487323046,-0.0905206949,0.0187237859,1.3450098038,1.0987150669,3.7258920670
        0.7375907898,       -0.1487323046,-0.0905206949,0.0187237859,1.2687158585,1.6938078403,3.5275278091
        0.7401528358,       -0.1487323046,-0.0905206949,0.0187237859,1.2687158585,1.6938078403,3.5275278091
        0.7427148819,       -0.1516619921,-0.0954035074,0.0211651921,0.8567285538,1.8769133091,3.2528696060
        0.7452838421,       -0.1516619921,-0.0954035074,0.0211651921,0.8567285538,1.8769133091,3.2528696060
        0.7479579449,       -0.1516619921,-0.0954035074,0.0211651921,1.1771631241,1.7243254185,3.7564096451
        0.7505288124,       -0.1516619921,-0.0954035074,0.0211651921,1.1771631241,1.7243254185,3.7564096451
        0.7532098293,       -0.1575213671,-0.0885675699,0.0275128484,1.4060449600,2.0142424107,3.8632211685
        0.7557787895,       -0.1575213671,-0.0885675699,0.0275128484,1.4060449600,2.0142424107,3.8632211685
        0.7586469650,       -0.1575213671,-0.0885675699,0.0275128484,1.3755273819,2.0295011997,3.8479623795
        0.7612218857,       -0.1575213671,-0.0949152261,0.0270245671,1.3755273819,2.0295011997,3.8479623795
        0.7637829781,       -0.1545916796,-0.0949152261,0.0270245671,1.3755273819,2.2583830357,3.8937387466
        0.7664668560,       -0.1545916796,-0.0949152261,0.0270245671,0.6736230850,2.2583830357,3.8937387466
        0.7690539360,       -0.1545916796,-0.0949152261,0.0270245671,0.6736230850,2.1668303013,3.8937387466
        0.7721598148,       -0.1580096483,-0.0905206949,0.0172589421,0.2158594131,2.1668303013,3.8937387466
        0.7747318745,       -0.1580096483,-0.0905206949,0.0172589421,0.2158594131,2.2583830357,3.7869272232
        0.7773849964,       -0.1580096483,-0.0905206949,0.0172589421,0.5210351944,2.2583830357,3.7869272232
        0.7799429893,       -0.1580096483,-0.0905206949,0.0172589421,0.5210351944,2.4567472935,3.5122690201
        0.7825059891,       -0.1614276171,-0.0841730386,0.0162823796,-0.1961278915,2.4567472935,3.5122690201
        0.7850677967,       -0.1614276171,-0.0841730386,0.0162823796,-0.1961278915,2.4567472935,3.0392465591
        0.7876358032,       -0.1614276171,-0.0841730386,0.0162823796,-0.1198339462,2.0905363560,3.0392465591
        0.7901988029,       -0.1614276171,-0.0841730386,0.0162823796,-0.1198339462,2.0905363560,-0.8670034409
        0.7927558422,       -0.1575213671,-0.0871027261,0.0182355046,-0.1045751572,2.0752775669,2.6882944107
        0.7953238487,       -0.1575213671,-0.0871027261,0.0182355046,-0.1045751572,2.0752775669,2.6882944107
        0.7979309559,       -0.1575213671,-0.0871027261,0.0182355046,0.1395654678,2.0295011997,2.4441537857
        0.8004908562,       -0.1575213671,-0.0871027261,0.0182355046,0.1395654678,2.0295011997,2.4441537857
        0.8030588627,       -0.1575213671,-0.0817316324,0.0182355046,0.0022363663,1.8616545200,1.8795785904
        0.8056399822,       -0.1575213671,-0.0817316324,0.0182355046,0.0022363663,1.8616545200,1.8795785904
        0.8082928658,       -0.1575213671,-0.0817316324,0.0182355046,0.4600000381,1.5564787388,1.5744028091
        0.8108568192,       -0.1575213671,-0.0817316324,0.0182355046,0.4600000381,1.5564787388,1.5744028091
        0.8134179115,       -0.1511737108,-0.0831964761,0.0226300359,0.5515527725,1.8616545200,1.1318979263
        0.8163969517,       -0.1511737108,-0.0831964761,0.0226300359,0.5515527725,1.8616545200,1.1318979263
        0.8189678192,       -0.1511737108,-0.0831964761,0.0226300359,0.5057764053,1.6175138950,0.6130990982
        0.8215339184,       -0.1511737108,-0.2081964761,0.0216534734,0.5057764053,1.6175138950,0.6130990982
        0.8241059780,       -0.1511737108,-0.0856378824,0.0216534734,0.7193994522,1.4038908482,0.2774057388
        0.8270080090,       -0.1511737108,-0.0856378824,0.0216534734,0.7193994522,1.4038908482,0.2774057388
        0.8307039738,       -0.1511737108,-0.0856378824,0.0216534734,0.6125879288,1.5107023716,0.0485239029
        0.8335509300,       -0.1448260546,-0.0875910074,0.0197003484,0.6125879288,1.5107023716,0.0485239029
        0.8362598419,       -0.1448260546,-0.0875910074,0.0197003484,0.3531885147,1.6480314732,-0.1803579330
        0.8389618397,       -0.1448260546,-0.0875910074,0.0197003484,0.3531885147,1.6480314732,-0.1803579330
        0.8416588306,       -0.1448260546,-0.0875910074,0.0197003484,-0.0282812119,2.1210539341,0.2163705826
        0.8443548679,       -0.1467791796,-0.0875910074,0.0197003484,-0.0282812119,2.1210539341,0.2163705826
        0.8470728397,       -0.1467791796,-0.0875910074,0.0197003484,0.1395654678,2.2583830357,0.1095590591
        0.8497669697,       -0.1467791796,-0.0875910074,0.0197003484,0.1395654678,2.2583830357,0.1095590591
        0.8524580002,       -0.1526385546,-0.0890558511,0.0187237859,0.0022363663,2.0447599888,0.4757699966
        0.8551568985,       -0.1526385546,-0.0890558511,0.0187237859,0.0022363663,2.0447599888,0.4757699966
        0.8578639030,       -0.1526385546,-0.0890558511,0.0187237859,-0.1503515244,2.0600187778,0.8267221451
        0.8605649471,       -0.1526385546,-0.0890558511,0.0187237859,-0.1503515244,2.0600187778,0.8267221451
        0.8632588387,       -0.1614276171,-0.0944269449,0.0289776921,-0.0587987900,1.9837248325,0.6588754654
        0.8661208153,       -0.1614276171,-0.0944269449,0.0289776921,-0.0587987900,1.9837248325,0.6588754654
        0.8687839508,       -0.1614276171,-0.0944269449,0.0289776921,-0.0130224228,2.0600187778,0.4452524185
        0.8721969128,       -0.1614276171,-0.0846613199,0.0260480046,-0.0130224228,2.0600187778,0.0485239029
        0.8747708797,       -0.1604510546,-0.0846613199,0.0260480046,0.2158594131,2.6093351841,0.0485239029
        0.8774077892,       -0.1604510546,-0.0846613199,0.0260480046,0.2158594131,2.6093351841,0.1400766373
        0.8799669743,       -0.1604510546,-0.0846613199,0.0260480046,0.0022363663,2.2583830357,0.1400766373
        0.8826448917,       -0.1604510546,-0.0997980386,0.0319073796,0.0022363663,2.2583830357,0.1400766373
        0.8852047920,       -0.1638690233,-0.0997980386,0.0319073796,0.1090478897,2.3041594028,0.4452524185
        0.8878068924,       -0.1638690233,-0.0997980386,0.0319073796,0.1090478897,2.3041594028,0.4452524185
        0.8903658390,       -0.1638690233,-0.0997980386,0.0319073796,0.2921533585,2.0600187778,0.7809457779
        0.8929269314,       -0.1594744921,-0.0939386636,0.0206769109,0.2921533585,2.0600187778,0.7809457779
        0.8954939842,       -0.1594744921,-0.0939386636,0.0206769109,0.1700830460,1.8158781528,0.7962045670
        0.8980679512,       -0.1594744921,-0.0939386636,0.0206769109,0.1700830460,1.8158781528,0.7962045670
        0.9006328583,       -0.1594744921,-0.0939386636,0.0206769109,0.2463769913,2.1515715122,0.9793100357
        0.9031968117,       -0.1550799608,-0.0890558511,0.0192120671,0.2463769913,2.1515715122,0.9793100357
        0.9057579041,       -0.1550799608,-0.0890558511,0.0192120671,-0.1198339462,2.7771818638,0.9945688248
        0.9083578587,       -0.1550799608,-0.0890558511,0.0192120671,-0.1198339462,2.7771818638,0.9945688248
        0.9109199047,       -0.1550799608,-0.0890558511,0.0192120671,0.5515527725,2.1515715122,1.0861215591
        0.9134769440,       -0.1580096483,-0.0983331949,0.0236065984,0.5515527725,2.1515715122,1.0861215591
        0.9161128998,       -0.1580096483,-0.0983331949,0.0236065984,0.5515527725,2.2736418247,1.1318979263
        0.9186890125,       -0.1580096483,-0.0983331949,0.0236065984,0.6888818741,2.2736418247,1.1318979263
        0.9212579727,       -0.1580096483,-0.0983331949,0.0236065984,0.6888818741,2.2736418247,1.2234506607
        0.9238269329,       -0.1609393358,-0.0954035074,0.0319073796,0.4752588272,2.1820890903,1.2234506607
        0.9265739918,       -0.1609393358,-0.0954035074,0.0319073796,0.4752588272,2.1820890903,1.0098276138
        0.9292759895,       -0.1609393358,-0.0954035074,0.0319073796,0.5362939835,2.5940763950,1.0098276138
        0.9319767952,       -0.1609393358,-0.0954035074,0.0319073796,0.5362939835,2.5940763950,0.3384408951
        0.9346749783,       -0.1589862108,-0.0954035074,0.0333722234,0.6278467178,2.5177824497,0.3384408951
        0.9373788834,       -0.1589862108,-0.0954035074,0.0333722234,0.6278467178,2.5177824497,0.3079233170
        0.9400818348,       -0.1589862108,-0.0954035074,0.0333722234,1.0398340225,2.4872648716,0.3079233170
        0.9427838326,       -0.1589862108,-0.0954035074,0.0240948796,1.0398340225,2.4872648716,0.7809457779
        0.9455928802,       -0.1560565233,-0.0988214761,0.0240948796,1.1619043350,2.9297697544,0.7809457779
        0.9483048916,       -0.1560565233,-0.0988214761,0.0240948796,1.1619043350,2.9297697544,0.9640512466
        0.9510087967,       -0.1560565233,-0.0988214761,0.0240948796,1.1008691788,2.6093351841,0.9640512466
        0.9537057877,       -0.1575213671,-0.0910089761,0.0231183171,1.1008691788,2.6093351841,0.9335336685
        0.9564509392,       -0.1575213671,-0.0910089761,0.0231183171,0.9787988663,2.7924406528,0.9335336685
        0.9591538906,       -0.1575213671,-0.0910089761,0.0231183171,0.9787988663,2.7924406528,0.7351694107
        0.9618549347,       -0.1575213671,-0.0910089761,0.0231183171,1.4975976944,2.3957121372,0.7351694107
        0.9646089077,       -0.1643573046,-0.0846613199,0.0192120671,1.4975976944,2.3957121372,0.6893930435
        0.9673619270,       -0.1643573046,-0.0846613199,0.0192120671,1.5586328506,2.2583830357,0.6893930435
        0.9699327946,       -0.1643573046,-0.0846613199,0.0192120671,1.5586328506,2.2583830357,0.8114633560
        0.9728789330,       -0.1643573046,-0.0846613199,0.0240948796,2.2757959366,2.1820890903,0.8114633560
        0.9754447937,       -0.1584979296,-0.0983331949,0.0240948796,2.2757959366,2.1820890903,0.7809457779
        0.9781568050,       -0.1584979296,-0.0983331949,0.0240948796,2.1537256241,2.0447599888,0.7809457779
        0.9807279110,       -0.1584979296,-0.0983331949,0.0240948796,2.1537256241,2.0447599888,0.7809457779
        0.9832949638,       -0.1584979296,-0.0973566324,0.0231183171,2.2300195694,1.9684660435,0.8419809341
        0.9858639240,       -0.1550799608,-0.0973566324,0.0231183171,2.2300195694,1.9684660435,0.8419809341
        0.9884510040,       -0.1550799608,-0.0973566324,0.0231183171,2.0621728897,1.9989836216,0.8267221451
        0.9910199642,       -0.1550799608,-0.0973566324,0.0231183171,2.0621728897,1.9989836216,0.8267221451
        0.9935870171,       -0.1550799608,-0.0944269449,0.0226300359,2.3215723038,2.1820890903,1.1776742935
        0.9962239265,       -0.1575213671,-0.0944269449,0.0226300359,2.3215723038,2.1820890903,1.1776742935
        0.9987838268,       -0.1575213671,-0.0944269449,0.0226300359,2.1537256241,2.3194181919,1.6659555435
        1.0013527870,       -0.1575213671,-0.0944269449,0.0226300359,2.1537256241,2.3194181919,1.6659555435
        1.0039188862,       -0.1575213671,-0.1032160074,0.0201886296,2.5657129288,2.0600187778,1.5286264420
        1.0065639019,       -0.1550799608,-0.1032160074,0.0201886296,2.5657129288,2.0600187778,1.5286264420
        1.0092480183,       -0.1550799608,-0.1032160074,0.0201886296,2.1995019913,2.0905363560,1.5286264420
        1.0118148327,       -0.1550799608,-0.1032160074,0.0201886296,2.1995019913,2.0905363560,1.5286264420
        1.0143799782,       -0.1541033983,-0.0939386636,0.0236065984,2.2452783585,2.5483000278,1.6201791763
        1.0171167850,       -0.1541033983,-0.0939386636,0.0236065984,2.2452783585,2.5483000278,1.6201791763
        1.0196859837,       -0.1541033983,-0.0939386636,0.0236065984,2.2452783585,2.6551115513,1.9711313248
        1.0222539902,       -0.1541033983,-0.0939386636,0.0236065984,2.0621728897,2.6551115513,1.9711313248
        1.0248169899,       -0.1521502733,-0.0890558511,0.0211651921,2.0621728897,2.7314054966,1.9406137466
        1.0275199413,       -0.1521502733,-0.0890558511,0.0211651921,1.4823389053,2.7314054966,1.9406137466
        1.0300920010,       -0.1521502733,-0.0890558511,0.0211651921,1.4823389053,2.7314054966,1.9100961685
        1.0326578617,       -0.1521502733,-0.0890558511,0.0211651921,1.2687158585,2.6551115513,1.9100961685
        1.0352258682,       -0.1482440233,-0.0973566324,0.0280011296,1.2687158585,2.6551115513,1.9711313248
        1.0378489494,       -0.1482440233,-0.0973566324,0.0280011296,1.4823389053,3.2502043247,1.9711313248
        1.0404109955,       -0.1482440233,-0.0973566324,0.0280011296,1.4823389053,3.2502043247,1.9711313248
        1.0429790020,       -0.1482440233,-0.0973566324,0.0280011296,0.8109521866,3.0670988560,1.8643198013
        1.0455398560,       -0.1472674608,-0.0929621011,0.0250714421,0.8109521866,3.0670988560,1.8643198013
        1.0481488705,       -0.1472674608,-0.0929621011,0.0250714421,1.1008691788,2.5483000278,1.8032846451
        1.0507159233,       -0.1472674608,-0.0929621011,0.0250714421,1.1008691788,2.5483000278,1.8032846451
        1.0532779694,       -0.1472674608,-0.0929621011,0.0250714421,0.0785303116,2.8382170200,1.6506967545
        1.0558438301,       -0.1418963671,-0.0846613199,0.0192120671,0.0785303116,2.8382170200,1.6506967545
        1.0584139824,       -0.1418963671,-0.0846613199,0.0192120671,-1.0048437119,3.0823576450,1.2692270279
        1.0609738827,       -0.1418963671,-0.0846613199,0.0192120671,-1.0048437119,3.0823576450,1.2692270279
        1.0635418892,       -0.1418963671,-0.0846613199,0.0192120671,-1.2795019150,2.6398527622,1.3760385513
        1.0663998127,       -0.1526385546,-0.0905206949,0.0240948796,-1.2795019150,2.6398527622,1.3760385513
        1.0689628124,       -0.1526385546,-0.0905206949,0.0240948796,-1.2947607040,3.2502043247,1.1776742935
        1.0721797943,       -0.1526385546,-0.0905206949,0.0240948796,-1.2947607040,3.2502043247,1.1776742935
        1.0747489929,       -0.1511737108,-0.0963800699,0.0109112859,-1.1421728134,2.8229582310,1.1776742935
        1.0773208141,       -0.1511737108,-0.0963800699,0.0109112859,-1.1421728134,2.8229582310,1.1776742935
        1.0798788071,       -0.1511737108,-0.0963800699,0.0109112859,-1.1116552353,3.1891691685,1.3912973404
        1.0824368000,       -0.1511737108,-0.0963800699,0.0109112859,-1.1116552353,3.1891691685,1.3912973404
        1.0849988461,       -0.1609393358,-0.0973566324,0.0182355046,-1.0048437119,3.0976164341,1.4675912857
        1.0876088142,       -0.1609393358,-0.0973566324,0.0182355046,-1.0048437119,3.0976164341,1.4675912857
        1.0901730061,       -0.1609393358,-0.0973566324,0.0182355046,-1.0048437119,3.0976164341,1.7117319107
        1.0927298069,       -0.1609393358,-0.0973566324,0.0182355046,-1.1421728134,3.0976164341,1.7117319107
        1.0952939987,       -0.1707049608,-0.1046808511,0.0167706609,-1.1421728134,3.0976164341,2.1694955826
        1.0978598595,       -0.1707049608,-0.1046808511,0.0167706609,-1.1421728134,3.1739103794,2.1694955826
        1.1004238129,       -0.1707049608,-0.1046808511,0.0167706609,-1.1421728134,3.1739103794,2.1694955826
        1.1029849052,       -0.1707049608,-0.1046808511,0.0167706609,-1.1574316025,2.9145109653,2.4441537857
        1.1055479050,       -0.1667987108,-0.1066339761,0.0201886296,-1.1574316025,2.9145109653,2.4441537857
        1.1081538200,       -0.1667987108,-0.1066339761,0.0201886296,-0.9132909775,2.9145109653,2.4899301529
        1.1107168198,       -0.1667987108,-0.1066339761,0.0201886296,-0.9132909775,2.9145109653,2.4899301529
        1.1132779121,       -0.1667987108,-0.1066339761,0.0201886296,-0.7454442978,3.1739103794,2.7493295670
        1.1158399582,       -0.1653338671,-0.1027277261,0.0118878484,-0.7454442978,3.1739103794,2.7493295670
        1.1184887886,       -0.1653338671,-0.1027277261,0.0118878484,-0.8827733994,2.8534758091,2.9324350357
        1.1210558414,       -0.1653338671,-0.1027277261,0.0118878484,-0.8827733994,2.8534758091,2.9324350357
        1.1236188412,       -0.1653338671,-0.1027277261,0.0118878484,-0.6386327744,2.7466642857,3.1460580826
        1.1263527870,       -0.1619158983,-0.1007746011,0.0172589421,-0.6386327744,2.7466642857,3.1460580826
        1.1290500164,       -0.1619158983,-0.1007746011,0.0172589421,-0.3639745712,2.6093351841,2.7951059341
        1.1317489147,       -0.1619158983,-0.1007746011,0.0172589421,-0.3639745712,2.6093351841,2.7951059341
        1.1344540119,       -0.1619158983,-0.1007746011,0.0240948796,0.2616357803,2.4872648716,2.6882944107
        1.1372690201,       -0.1487323046,-0.0880792886,0.0240948796,0.2616357803,2.4872648716,2.6882944107
        1.1399729252,       -0.1487323046,-0.0880792886,0.0240948796,0.6736230850,2.4262297153,2.4441537857
        1.1426718235,       -0.1487323046,-0.0880792886,0.0240948796,0.6736230850,2.4262297153,2.4441537857
        1.1453719139,       -0.1487323046,-0.0900324136,0.0162823796,1.2839746475,3.0365812778,1.8490610123
        1.1479868889,       -0.1487323046,-0.0900324136,0.0162823796,1.2839746475,3.0365812778,1.8490610123
        1.1505548954,       -0.1487323046,-0.0900324136,0.0162823796,1.4518213272,2.9145109653,1.5744028091
        1.1531209946,       -0.1487323046,-0.0900324136,0.0162823796,1.4518213272,2.9145109653,1.5744028091
        1.1556859016,       -0.1506854296,-0.0836847574,0.0192120671,5.3580713272,2.8534758091,1.5133676529
        1.1582558155,       -0.1506854296,-0.0836847574,0.0192120671,1.7722558975,2.8534758091,1.5133676529
        1.1608228683,       -0.1506854296,-0.0836847574,0.0192120671,1.7722558975,2.8534758091,1.4370737076
        1.1633818150,       -0.1506854296,-0.0836847574,0.0192120671,1.6349267960,2.5483000278,1.4370737076
        1.1660008430,       -0.1575213671,-0.0856378824,0.0016339417,1.6349267960,2.5483000278,0.7656869888
        1.1686589718,       -0.1575213671,-0.0856378824,0.0016339417,1.5281152725,3.0518400669,0.7656869888
        1.1712818146,       -0.1575213671,-0.0856378824,0.0016339417,1.5281152725,3.0518400669,0.7656869888
        1.1738498211,       -0.1575213671,-0.0856378824,0.0016339417,0.0632715225,3.5706388950,0.5368051529
        1.1764719486,       -0.1584979296,-0.0929621011,0.0143292546,0.0632715225,3.5706388950,0.5368051529
        1.1790308952,       -0.1584979296,-0.0929621011,0.0143292546,-1.6762304306,3.8758146763,0.7046518326
        1.1815979481,       -0.1584979296,-0.0929621011,0.0143292546,-1.6762304306,3.8758146763,0.7046518326
        1.1842479706,       -0.1584979296,-0.0929621011,0.0143292546,-2.9274511337,3.2654631138,0.9335336685
        1.1874768734,       -0.1663104296,-0.1061456949,0.0133526921,-2.9274511337,3.2654631138,0.9335336685
        1.1900429726,       -0.1663104296,-0.1061456949,0.0133526921,-3.2326269150,2.9602873325,1.7422494888
        1.1926009655,       -0.1663104296,-0.1061456949,0.0133526921,-3.2326269150,2.9602873325,1.7422494888
        1.1951599121,       -0.1663104296,-0.1061456949,0.0211651921,-3.1563329697,2.4262297153,2.0321664810
        1.1977717876,       -0.1677752733,-0.1149347574,0.0211651921,-3.1563329697,2.4262297153,2.0321664810
        1.2004427910,       -0.1677752733,-0.1149347574,0.0211651921,-4.1176366806,2.7008879185,2.6425180435
        1.2030048370,       -0.1677752733,-0.1149347574,0.0211651921,-4.1176366806,2.7008879185,2.6425180435
        1.2055659294,       -0.1677752733,-0.1222589761,0.0294659734,-6.0249853134,3.0518400669,3.2833871841
        1.2082049847,       -0.1594744921,-0.1222589761,0.0294659734,-6.0249853134,3.0518400669,3.2833871841
        1.2107698917,       -0.1594744921,-0.1222589761,0.0294659734,-5.9944677353,3.2044279575,4.0615854263
        1.2133269310,       -0.1594744921,-0.1222589761,0.0294659734,-5.9944677353,3.2044279575,4.0615854263
        1.2158877850,       -0.1594744921,-0.1193292886,0.0294659734,-4.8653173447,3.5553801060,4.8550424576
        1.2184498310,       -0.1584979296,-0.1193292886,0.0294659734,-4.8653173447,3.5553801060,4.8550424576
        1.2210078239,       -0.1584979296,-0.1193292886,0.0294659734,-4.8653173447,3.7842619419,5.5416879654
        1.2235648632,       -0.1584979296,-0.1193292886,0.0294659734,-4.2397069931,3.7842619419,5.5416879654
        1.2261838913,       -0.1653338671,-0.1188410074,0.0377667546,-4.2397069931,3.7842619419,5.2365121841
        1.2287468910,       -0.1653338671,-0.1188410074,0.0377667546,-3.8429784775,3.9521086216,5.2365121841
        1.2313067913,       -0.1653338671,-0.1188410074,0.0377667546,-3.8429784775,3.9521086216,5.6027231216
        1.2338719368,       -0.1653338671,-0.1188410074,0.0377667546,-3.8887548447,4.0741786957,5.6027231216
        1.2365758419,       -0.1658221483,-0.1115167886,0.0197003484,-3.8887548447,4.0741786957,5.6027231216
        1.2391419411,       -0.1658221483,-0.1115167886,0.0197003484,-3.7514257431,4.4403896332,6.3809213638
        1.2416949272,       -0.1658221483,-0.1115167886,0.0197003484,-3.7514257431,4.4403896332,6.3809213638
        1.2442510128,       -0.1658221483,-0.1115167886,0.0197003484,-3.3394384384,4.7455654144,7.1133432388
        1.2469599247,       -0.1682635546,-0.1032160074,0.0280011296,-3.3394384384,4.7455654144,7.1133432388
        1.2495269775,       -0.1682635546,-0.1032160074,0.0280011296,-3.0800390244,5.4016933441,7.3269662857
        1.2520887852,       -0.1682635546,-0.1032160074,0.0280011296,-3.0800390244,5.4016933441,7.3269662857
        1.2546498775,       -0.1682635546,-0.1032160074,0.0280011296,-4.1176366806,6.1951503754,8.1814584732
        1.2572879791,       -0.1638690233,-0.1100519449,0.0372784734,-4.1176366806,6.1951503754,8.1814584732
        1.2599859238,       -0.1638690233,-0.1100519449,0.0372784734,-5.2925634384,6.8817958832,9.1427621841
        1.2627918720,       -0.1638690233,-0.1100519449,0.0372784734,-5.2925634384,6.8817958832,9.1427621841
        1.2654838562,       -0.1638690233,-0.1100519449,0.0372784734,-7.5356054306,7.2785243988,9.8446664810
        1.2681889534,       -0.1716815233,-0.1247003824,0.0348370671,-7.5356054306,7.2785243988,9.8446664810
        1.2708919048,       -0.1716815233,-0.1247003824,0.0348370671,-9.2903661728,7.9193935394,10.9890756607
        1.2735688686,       -0.1716815233,-0.1247003824,0.0348370671,-9.2903661728,7.9193935394,10.9890756607
        1.2763497829,       -0.1716815233,-0.1183527261,0.0192120671,-8.8326025009,8.1482753754,12.4234018326
        1.2790138721,       -0.1863299608,-0.1183527261,0.0192120671,-8.8326025009,8.1482753754,12.4234018326
        1.2817149162,       -0.1863299608,-0.1183527261,0.0192120671,-8.5884618759,8.1482753754,14.1781625748
        1.2846989632,       -0.1863299608,-0.1183527261,0.0192120671,-8.5884618759,8.1482753754,14.1781625748
        1.2873558998,       -0.1887713671,-0.1076105386,0.0128644109,-6.4827489853,8.5907802582,16.0855102539
        1.2899279594,       -0.1887713671,-0.1076105386,0.0128644109,-6.4827489853,8.5907802582,16.0855102539
        1.2924959660,       -0.1887713671,-0.1076105386,0.0128644109,-3.3241796494,8.3313808441,18.6032104492
        1.2950608730,       -0.1887713671,-0.1076105386,0.0128644109,-3.3241796494,8.3313808441,18.6032104492
        1.2976379395,       -0.1946307421,-0.1046808511,0.0270245671,-0.9132909775,9.0485439301,21.4871215820
        1.3001987934,       -0.1946307421,-0.1046808511,0.0270245671,-0.9132909775,9.0485439301,21.4871215820
        1.3027648926,       -0.1946307421,-0.1046808511,0.0270245671,0.1395654678,10.6507167816,24.4015502930
        1.3053319454,       -0.1946307421,-0.1046808511,0.0270245671,0.1395654678,10.6507167816,24.4015502930
        1.3079500198,       -0.2087908983,-0.1242121011,0.0529034734,0.1395654678,11.0932216644,28.5214233398
        1.3105158806,       -0.2087908983,-0.1242121011,0.0529034734,2.5504541397,11.0932216644,28.5214233398
        1.3130798340,       -0.2087908983,-0.1242121011,0.0529034734,2.5504541397,11.0932216644,33.7857055664
        1.3156418800,       -0.2087908983,-0.1242121011,0.0529034734,6.3193750381,11.4289150238,33.7857055664
        1.3182909489,       -0.2053729296,-0.1613214761,0.0577862859,6.3193750381,11.4289150238,39.0957641602
        1.3208508492,       -0.2053729296,-0.1613214761,0.0577862859,9.6610498428,12.4054775238,39.0957641602
        1.3234128952,       -0.2053729296,-0.1613214761,0.0577862859,9.6610498428,12.4054775238,39.0957641602
        1.3261198997,       -0.2053729296,-0.1613214761,0.0577862859,12.1787500381,13.5193691254,45.5654907227
        1.3287010193,       -0.2112323046,-0.2174738199,0.0861065984,12.1787500381,13.5193691254,45.5654907227
        1.3312699795,       -0.2112323046,-0.2174738199,0.0861065984,12.4534082413,14.6942958832,53.2711791992
        1.3338508606,       -0.2112323046,-0.2174738199,0.0861065984,12.4534082413,14.6942958832,53.2711791992
        1.3365678787,       -0.2112323046,-0.2174738199,0.0655987859,10.7444238663,15.4267177582,60.6716918945
        1.3391427994,       -0.2356463671,-0.2638605237,0.0655987859,10.7444238663,15.4267177582,60.6716918945
        1.3417179585,       -0.2356463671,-0.2638605237,0.0655987859,8.2725000381,16.1591396332,69.0945434570
        1.3442900181,       -0.2356463671,-0.2638605237,0.0655987859,8.2725000381,16.1591396332,69.0945434570
        1.3469250202,       -0.2356463671,-0.2438410074,0.0406964421,6.9907617569,15.5182704926,78.2955932617
        1.3496279716,       -0.2605487108,-0.2438410074,0.0406964421,6.9907617569,15.5182704926,78.2955932617
        1.3523328304,       -0.2605487108,-0.2438410074,0.0406964421,4.4883203506,13.5041103363,87.7865600586
        1.3550388813,       -0.2605487108,-0.2438410074,0.0406964421,4.4883203506,13.5041103363,87.7865600586
        1.3577508926,       -0.2273455858,-0.2877863050,-0.0042254333,0.0480127335,11.0016689301,96.5451049805
        1.3604578972,       -0.2273455858,-0.2877863050,-0.0042254333,0.0480127335,11.0016689301,96.5451049805
        1.3631589413,       -0.2273455858,-0.2877863050,-0.0042254333,-7.9781103134,6.3935146332,103.5336303711
        1.3658649921,       -0.2273455858,-0.2877863050,-0.0042254333,-7.9781103134,6.3935146332,103.5336303711
        1.3685657978,       -0.1746112108,-0.3400323987,0.0001690979,-18.7050399780,2.1820890903,108.6300659180
        1.3712699413,       -0.1746112108,-0.3400323987,0.0001690979,-18.7050399780,2.1820890903,108.6300659180
        1.3740580082,       -0.1746112108,-0.3400323987,0.0001690979,-24.9611434937,-2.5328767300,111.1477661133
        1.3768119812,       -0.1746112108,-0.3400323987,-0.0491473079,-24.9611434937,-2.5328767300,111.1477661133
        1.3794767857,       -0.2097674608,-0.1691339761,-0.0491473079,-27.7229843140,-6.2865390778,111.1172485352
        1.3823308945,       -0.2097674608,-0.1691339761,-0.0491473079,-27.7229843140,-6.2865390778,111.1172485352
        1.3850009441,       -0.2097674608,-0.1691339761,-0.0491473079,-27.3720321655,-8.5143222809,109.8812866211
        1.3876638412,       -0.2097674608,0.0437566489,-0.1468035579,-27.3720321655,-8.5143222809,109.8812866211
        1.3903508186,       -0.2649432421,0.0437566489,-0.1468035579,-26.1055526733,-10.0402011871,110.5831909180
        1.3929247856,       -0.2649432421,0.0437566489,-0.1468035579,-26.1055526733,-10.0402011871,110.5831909180
        1.3954977989,       -0.2649432421,0.0437566489,-0.1468035579,-24.6712265015,-10.8794345856,110.7205200195
        1.3980758190,       -0.2507830858,0.0442449301,-0.2093035579,-24.6712265015,-10.8794345856,110.7205200195
        1.4006459713,       -0.2507830858,0.0442449301,-0.2093035579,-20.7649765015,-11.1388339996,110.5068969727
        1.4032168388,       -0.2507830858,0.0442449301,-0.2093035579,-21.4058456421,-11.1388339996,110.5068969727
        1.4057929516,       -0.2507830858,0.0442449301,-0.2093035579,-21.4058456421,-11.1388339996,110.0033569336
        1.4083838463,       -0.1736346483,0.0066472739,-0.0979754329,-17.7895126343,-12.5426425934,110.0033569336
        1.4109539986,       -0.1736346483,0.0066472739,-0.0979754329,-17.7895126343,-12.5426425934,107.2720336914
        1.4135258198,       -0.1736346483,0.0066472739,-0.0979754329,-12.0216894150,-13.1682529449,107.2720336914
        1.4160988331,       -0.1736346483,0.0066472739,-0.0979754329,-12.0216894150,-13.1682529449,103.3657836914
        1.4186718464,       -0.2351580858,-0.0123956949,-0.1087176204,-3.9955663681,-10.1622714996,103.8388061523
        1.4212379456,       -0.2351580858,-0.0123956949,-0.1087176204,-3.9955663681,-10.1622714996,103.8388061523
        1.4238138199,       -0.2351580858,-0.0123956949,-0.1087176204,-0.5013036728,-6.7137851715,99.9172973633
        1.4265580177,       -0.2351580858,-0.0123956949,-0.1087176204,-0.5013036728,-6.7137851715,99.9172973633
        1.4291348457,       -0.2126971483,0.0544988364,-0.1477801204,-1.7372655869,-3.9519441128,96.3467407227
        1.4317049980,       -0.2126971483,0.0544988364,-0.1477801204,-1.7372655869,-3.9519441128,96.3467407227
        1.4342739582,       -0.2126971483,0.0544988364,-0.1477801204,-5.5061864853,-1.2511384487,95.0344848633
        1.4369537830,       -0.2126971483,0.0544988364,-0.1477801204,-5.5061864853,-1.2511384487,95.0344848633
        1.4395279884,       -0.1326190233,0.1033269614,-0.0886980891,-10.3432226181,0.8698332310,94.2562866211
        1.4421069622,       -0.1326190233,0.1033269614,-0.0886980891,-10.3432226181,0.8698332310,94.2562866211
        1.4446909428,       -0.1326190233,0.1033269614,-0.0886980891,-13.7001562119,2.2431242466,92.9745483398
        1.4473459721,       -0.1326190233,0.1033269614,-0.0886980891,-13.7001562119,2.2431242466,92.9745483398
        1.4500529766,        0.0158184767,0.0877019614,-0.0335223079,-14.7835302353,3.8147795200,92.1200561523
        1.4528629780,        0.0158184767,0.0877019614,-0.0335223079,-14.7835302353,3.8147795200,92.1200561523
        1.4555668831,        0.0158184767,0.0877019614,-0.0335223079,-14.2342138290,4.6997890472,91.5097045898
        1.4582839012,        0.1408184767,0.1477605551,-0.0227801204,-14.2342138290,4.6997890472,91.5097045898
        1.4609858990,        0.1627911329,0.1477605551,-0.0227801204,-13.4865331650,4.8371181488,91.6012573242
        1.4636909962,        0.1627911329,0.1477605551,-0.0227801204,-13.4865331650,4.8371181488,91.6012573242
        1.4664299488,        0.1627911329,0.1477605551,-0.0227801204,-13.7917089462,5.2185878754,91.4028930664
        1.4691329002,        0.2472637892,0.1560613364,0.0133526921,-13.7917089462,5.2185878754,91.4028930664
        1.4718430042,        0.2472637892,0.1560613364,0.0133526921,-17.1181259155,4.2267665863,89.3887329102
        1.4745519161,        0.2472637892,0.1560613364,0.0133526921,-17.1181259155,4.2267665863,89.3887329102
        1.4774298668,        0.2472637892,0.1560613364,0.0133526921,-22.0772323608,2.6856291294,87.0999145508
        1.4801039696,        0.3268536329,0.1414128989,0.0753644109,-22.0772323608,2.6856291294,87.0999145508
        1.4830498695,        0.3268536329,0.1414128989,0.0753644109,-26.6396102905,0.3357756138,85.9249877930
        1.4856238365,        0.3268536329,0.1414128989,0.0753644109,-26.6396102905,0.3357756138,85.9249877930
        1.4882907867,        0.3268536329,0.2087957114,0.1256573796,-31.4919052124,-2.7617585659,85.3756713867
        1.4908599854,        0.3756817579,0.2087957114,0.1256573796,-31.4919052124,-2.7617585659,85.3756713867
        1.4934289455,        0.3756817579,0.2087957114,0.1256573796,-34.3758163452,-6.0576572418,83.5903930664
        1.4959928989,        0.3756817579,0.2087957114,0.1256573796,-34.3758163452,-6.0576572418,83.5903930664
        1.4985640049,        0.3756817579,0.2200261801,0.1920636296,-34.3758163452,-8.0107822418,79.8825073242
        1.5011358261,        0.3698223829,0.2200261801,0.1920636296,-35.3828964233,-8.0107822418,79.8825073242
        1.5037047863,        0.3698223829,0.2200261801,0.1920636296,-35.3828964233,-11.9170322418,77.2274780273
        1.5062868595,        0.3698223829,0.2200261801,0.1920636296,-35.8406600952,-10.8641757965,77.2274780273
        1.5088598728,        0.3698223829,0.1643621176,0.2130597234,-35.8406600952,-10.8641757965,74.6334838867
        1.5114278793,        0.3722637892,0.1643621176,0.2130597234,-34.4826278687,-14.5415439606,74.6334838867
        1.5140018463,        0.3722637892,0.1643621176,0.2130597234,-34.4826278687,-14.5415439606,70.7272338867
        1.5167429447,        0.3722637892,0.1643621176,0.2130597234,-28.6842880249,-18.5240879059,71.1849975586
        1.5193178654,        0.3317364454,0.1228582114,0.2482159734,-28.6842880249,-18.5240879059,71.1849975586
        1.5218899250,        0.3317364454,0.1228582114,0.2482159734,-18.9339218140,-24.9022617340,66.7599487305
        1.5244629383,        0.3317364454,0.1228582114,0.2482159734,-18.9339218140,-24.9022617340,66.7599487305
        1.5271549225,        0.3317364454,0.1228582114,0.2482159734,-7.3982763290,-29.4493808746,63.2046508789
        1.5297198296,        0.1789044142,0.0535222739,0.2526105046,-7.3982763290,-29.4493808746,63.2046508789
        1.5322887897,        0.1789044142,0.0535222739,0.2526105046,4.1373682022,-32.8215713501,60.7327270508
        1.5348579884,        0.1789044142,0.0535222739,0.2526105046,4.1373682022,-32.8215713501,60.7327270508
        1.5375390053,        0.1789044142,0.0535222739,0.2526105046,12.7280664444,-37.9637832642,59.6951293945
        1.5401098728,        0.1500958204,0.0525457114,0.2902081609,12.7280664444,-37.9637832642,59.6951293945
        1.5426788330,        0.1500958204,0.0525457114,0.2902081609,21.7460098267,-42.5566787720,57.9708862305
        1.5452558994,        0.1500958204,0.0525457114,0.2902081609,21.7460098267,-42.5566787720,57.9708862305
        1.5478320122,        0.1500958204,0.0525457114,0.2902081609,35.1737442017,-42.5719375610,52.9202270508
        1.5504069328,       -0.3093768358,0.3503972888,0.1754620671,35.1737442017,-42.5719375610,52.9202270508
        1.5529808998,       -0.3093768358,0.3503972888,0.1754620671,46.8924942017,-35.8428115845,48.3273315430
        1.5555539131,       -0.3093768358,0.3503972888,0.1754620671,46.9077529907,-35.8428115845,48.3273315430
        1.5582959652,       -0.3093768358,0.3503972888,-0.5745379329,46.9077529907,-25.1616611481,48.8308715820
        1.5610048771,       -1.0842791796,0.3723699450,-0.5486590266,47.3807754517,-25.1616611481,48.8308715820
        1.5637128353,       -1.0842791796,0.3723699450,-0.5486590266,47.3807754517,-18.6614170074,53.3627319336
        1.5664629936,       -1.0842791796,0.3723699450,-0.5486590266,45.1682510376,-18.6614170074,53.3627319336
        1.5691750050,       -1.0842791796,-0.0123956949,-0.6365496516,45.1682510376,-16.4031162262,57.3147583008
        1.5718820095,       -1.1643573046,-0.0123956949,-0.6365496516,38.0423965454,-16.4031162262,57.3147583008
        1.5745868683,       -1.1643573046,-0.0123956949,-0.6365496516,38.0423965454,-15.8385410309,66.9583129883
        1.5773007870,       -1.1643573046,-0.0123956949,-0.6365496516,26.5067520142,-15.8385410309,66.9583129883
        1.5802810192,       -0.2708026171,-0.0900324136,0.1569073796,14.7880029678,-15.9758701324,73.7789916992
        1.5829889774,       -0.2708026171,-0.0900324136,0.1569073796,16.1460342407,-15.9758701324,73.7789916992
        1.5856959820,       -0.2708026171,-0.0900324136,0.1569073796,10.7902002335,-19.8210849762,77.7615356445
        1.5884499550,       -0.2708026171,-0.0900324136,0.1569073796,10.7902002335,-19.8210849762,77.7615356445
        1.5911588669,        0.1432598829,0.2722722888,0.5123761296,15.7340478897,-24.1393222809,74.9386596680
        1.5939569473,        0.1432598829,0.2722722888,0.5123761296,15.7340478897,-24.1393222809,74.9386596680
        1.5974419117,        0.1432598829,0.2722722888,0.5123761296,27.4222793579,-29.9681797028,68.7435913086
        1.6000168324,        0.0187481642,0.2981511950,0.2179425359,27.4222793579,-29.9681797028,68.7435913086
        1.6025879383,        0.0187481642,0.2981511950,0.2179425359,34.1666641235,-32.0281143188,63.5708618164
        1.6051678658,        0.0187481642,0.2981511950,0.2179425359,34.1666641235,-32.0281143188,63.5708618164
        1.6078269482,        0.0187481642,0.2981511950,0.2179425359,35.1890029907,-29.1747226715,60.0460815430
        1.6104028225,       -0.2234393358,0.3084051013,-0.0227801204,35.1890029907,-29.1747226715,60.0460815430
        1.6129758358,       -0.2234393358,0.3084051013,-0.0227801204,35.1890029907,-25.4515781403,58.3523559570
        1.6155478954,       -0.2234393358,0.3084051013,-0.0227801204,34.6396865845,-25.4515781403,58.3523559570
        1.6181669235,       -0.2234393358,0.3084051013,-0.0227801204,34.6396865845,-25.1311435699,56.2161254883
        1.6207427979,       -0.1033221483,0.3333074450,-0.0413348079,33.8004531860,-25.1311435699,56.2161254883
        1.6233170033,       -0.1033221483,0.3333074450,-0.0413348079,33.8004531860,-25.1311435699,51.5621948242
        1.6258909702,       -0.1033221483,0.3333074450,-0.0413348079,32.9612197876,-24.9327793121,51.5621948242
        1.6284728050,       -0.1033221483,0.3333074450,-0.0413348079,32.9612197876,-24.9327793121,47.6559448242
        1.6310420036,       -0.0979510546,0.3152410388,-0.0276629329,30.5808486938,-24.1698398590,47.8237915039
        1.6336178780,       -0.0979510546,0.3152410388,-0.0276629329,30.5808486938,-24.1698398590,47.8237915039
        1.6362547874,       -0.0979510546,0.3152410388,-0.0276629329,25.1639785767,-24.4139804840,44.8178100586
        1.6388268471,       -0.0979510546,0.3152410388,-0.0276629329,25.1639785767,-24.4139804840,44.8178100586
        1.6413989067,       -0.1072283983,0.3098699450,-0.0003191833,19.5792617798,-23.6052646637,42.0864868164
        1.6440949440,       -0.1072283983,0.3098699450,-0.0003191833,19.5792617798,-23.6052646637,42.0864868164
        1.6467888355,       -0.1072283983,0.3098699450,-0.0003191833,15.1389551163,-21.6063632965,39.4314575195
        1.6493668556,       -0.1072283983,0.3098699450,-0.1253191829,15.1389551163,-21.6063632965,39.4314575195
        1.6519398689,       -0.0574237108,0.2805730700,-0.0471941829,9.8288965225,-19.7753086090,37.9513549805
        1.6545159817,       -0.0574237108,0.2805730700,-0.0471941829,9.8288965225,-19.7753086090,37.9513549805
        1.6571779251,       -0.0574237108,0.2805730700,-0.0471941829,3.0997705460,-16.8913974762,35.1437377930
        1.6597478390,       -0.0574237108,0.2805730700,-0.0193621516,3.0997705460,-16.8913974762,35.1437377930
        1.6623129845,       -0.0417987108,0.2727605700,-0.0193621516,-2.1187353134,-14.8162021637,31.6342163086
        1.6648838520,       -0.0417987108,0.2727605700,-0.0193621516,-2.1187353134,-14.8162021637,31.6342163086
        1.6674618721,       -0.0417987108,0.2727605700,-0.0193621516,-5.0179052353,-14.2516269684,28.2162475586
        1.6700308323,       -0.0417987108,0.3977605700,0.0714581609,-5.0179052353,-14.2516269684,28.2162475586
        1.6725988388,       -0.0310565233,0.3328191638,0.0714581609,-5.0179052353,-13.3055820465,24.5236206055
        1.6751718521,       -0.0310565233,0.3328191638,0.0714581609,-7.4135351181,-13.3055820465,24.5236206055
        1.6777839661,       -0.0310565233,0.3328191638,0.0714581609,-7.4135351181,-13.3055820465,20.7241821289
        1.6804900169,       -0.0310565233,0.3391668200,0.0817120671,-8.8936376572,-12.5731601715,20.7241821289
        1.6830649376,        0.0719708204,0.3391668200,0.0817120671,-8.8936376572,-12.5731601715,16.1465454102
        1.6856379509,        0.0719708204,0.3391668200,0.0817120671,-8.6952733994,-11.4287509918,16.1465454102
        1.6883809566,        0.0719708204,0.3391668200,0.0817120671,-8.6952733994,-11.4287509918,11.1721811295
        1.6910448074,        0.1974591017,0.3460027575,0.1217511296,-8.9851903915,-9.7197666168,11.1721811295
        1.6942257881,        0.1974591017,0.3460027575,0.1217511296,-8.9851903915,-9.7197666168,5.8163461685
        1.6968669891,        0.1974591017,0.3460027575,0.1217511296,-8.4663915634,-8.1786289215,5.8163461685
        1.6994400024,        0.1974591017,0.3460027575,0.1217511296,-8.4663915634,-8.1786289215,-0.5618276596
        1.7020118237,        0.3122051954,0.4075261950,0.1276105046,-4.0260839462,-7.0952548981,-0.5618276596
        1.7045738697,        0.3122051954,0.4075261950,0.1276105046,-4.0260839462,-7.0952548981,-8.3743276596
        1.7072958946,        0.3122051954,0.4075261950,0.1276105046,0.3837060928,-6.2102451324,-8.0691518784
        1.7098670006,        0.3122051954,0.4075261950,0.0026105042,0.3837060928,-6.2102451324,-8.0691518784
        1.7124378681,        0.2077130079,0.2898504138,0.0973370671,0.2006006241,-5.7219638824,-14.2642202377
        1.7150058746,        0.2077130079,0.2898504138,0.0973370671,0.2006006241,-5.7219638824,-14.2642202377
        1.7176189423,        0.2077130079,0.2898504138,0.0973370671,-1.0048437119,-4.9590244293,-19.0249633789
        1.7201879025,        0.2077130079,0.2898504138,0.1056378484,-1.0048437119,-4.9590244293,-19.0249633789
        1.7227609158,        0.0441387892,0.3069402575,0.1056378484,-1.7525243759,-4.9742832184,-23.0227661133
        1.7253248692,        0.0441387892,0.3069402575,0.1056378484,-1.7525243759,-4.9742832184,-23.0227661133
        1.7279458046,        0.0441387892,0.3069402575,0.1056378484,-1.5236425400,-5.7677402496,-27.0663452148
        1.7305178642,        0.0441387892,0.3069402575,0.0626690984,-1.5236425400,-5.7677402496,-27.0663452148
        1.7330868244,       -0.1648455858,0.3113347888,0.0626690984,-0.4402685165,-6.1797275543,-31.6134643555
        1.7356569767,       -0.1648455858,0.3113347888,0.0626690984,-0.4402685165,-6.1797275543,-31.6134643555
        1.7383170128,       -0.1648455858,0.3113347888,0.0626690984,-0.9590673447,-6.7443027496,-36.2216186523
        1.7408947945,       -0.1648455858,0.3416082263,-0.0100848079,-0.9590673447,-6.7443027496,-36.2216186523
        1.7434718609,       -0.2903338671,0.3416082263,-0.0100848079,-0.9590673447,-7.9192295074,-40.2041625977
        1.7460718155,       -0.2903338671,0.3416082263,-0.0100848079,-1.9966650009,-7.9192295074,-40.2041625977
        1.7487800121,       -0.2903338671,0.3416082263,-0.0100848079,-1.9966650009,-8.2549228668,-44.2782592773
        1.7514967918,       -0.3972674608,0.3367254138,-0.0974871516,-2.6375341415,-8.2549228668,-44.2782592773
        1.7541999817,       -0.3972674608,0.3367254138,-0.0974871516,-2.6375341415,-7.9344882965,-48.3065795898
        1.7569179535,       -0.3972674608,0.3367254138,-0.0974871516,-2.8358983994,-7.9344882965,-48.3065795898
        1.7596218586,       -0.3972674608,0.3367254138,-0.0974871516,-2.8358983994,-7.2173252106,-52.7011108398
        1.7623229027,       -0.4290057421,0.3796941638,-0.1345965266,-3.3546972275,-7.2173252106,-52.7011108398
        1.7650318146,       -0.4290057421,0.3796941638,-0.1345965266,-3.3546972275,-5.5235996246,-58.2400512695
        1.7676618099,       -0.4290057421,0.3796941638,-0.1345965266,-2.6070165634,-5.5235996246,-58.2400512695
        1.7702279091,       -0.4290057421,0.3796941638,-0.1345965266,-2.6070165634,-5.5235996246,-63.7332153320
        1.7729129791,       -0.4417010546,0.4143621325,-0.1131121516,-0.3639745712,-3.4636628628,-63.7332153320
        1.7754859924,       -0.4417010546,0.4143621325,-0.1131121516,-0.3639745712,-3.4636628628,-68.2498168945
        1.7781767845,       -0.4417010546,0.4143621325,-0.1131121516,3.8321924210,-1.7546784878,-68.2498168945
        1.7808799744,       -0.4417010546,0.4143621325,-0.0481707454,3.8321924210,-1.7546784878,-73.3309936523
        1.7835829258,       -0.3967791796,0.4524480700,-0.0481707454,9.9814844131,-0.3508698940,-73.3309936523
        1.7862949371,       -0.3967791796,0.4524480700,-0.0481707454,9.9814844131,-0.3508698940,-78.9767456055
        1.7889988422,       -0.3967791796,0.4524480700,-0.0481707454,21.0898818970,1.7243254185,-78.9767456055
        1.7917048931,       -0.2717791796,0.4773504138,0.0328839421,21.0898818970,1.7243254185,-88.4371948242
        1.7944219112,       -0.2913104296,0.4773504138,0.0328839421,31.1759414673,2.3651945591,-88.4371948242
        1.7971417904,       -0.2913104296,0.4773504138,0.0328839421,31.1759414673,2.3651945591,-96.2496948242
        1.7998538017,       -0.2913104296,0.4773504138,0.0328839421,42.8794326782,3.6011564732,-97.9281616211
        1.8027448654,       -0.1687518358,0.5061590075,0.0797589421,42.8794326782,3.6011564732,-110.2877807617
        1.8054378033,       -0.1687518358,0.5061590075,0.0797589421,51.9584121704,3.3417570591,-110.2877807617
        1.8084008694,       -0.1687518358,0.5061590075,0.0797589421,51.9584121704,3.3417570591,-125.0430297852
        1.8111038208,       -0.1687518358,0.5061590075,0.0489972234,59.6335830688,4.3488368988,-125.0430297852
        1.8138129711,       -0.1184588671,0.5203191638,0.0489972234,59.6335830688,4.3488368988,-143.1857299805
        1.8165159225,       -0.1184588671,0.5203191638,0.0489972234,62.4259414673,4.9439296722,-143.1857299805
        1.8190939426,       -0.1184588671,0.5203191638,0.0489972234,62.4259414673,4.9439296722,-163.2052612305
        1.8216738701,       -0.1184588671,0.4719793200,-0.0628191829,61.8308486938,6.7139492035,-163.2052612305
        1.8242418766,       -0.3694354296,0.4719793200,-0.0628191829,61.8308486938,6.7139492035,-182.7365112305
        1.8269138336,       -0.3694354296,0.4719793200,-0.0628191829,69.3686904907,8.9569911957,-184.5523071289
        1.8296258450,       -0.3694354296,0.4719793200,-0.0628191829,69.3686904907,8.9569911957,-207.9898071289
        1.8323338032,       -0.7849627733,0.4949285388,-0.2044207454,79.6225967407,14.9536952972,-207.5320434570
        1.8350520134,       -0.7849627733,0.4949285388,-0.2044207454,79.6225967407,14.9536952972,-207.5320434570
        1.8377978802,       -0.7849627733,0.4949285388,-0.2044207454,91.0361709595,25.9247646332,-230.8932495117
        1.8403708935,       -0.7849627733,0.4949285388,-0.2044207454,91.0361709595,25.9247646332,-230.8932495117
        1.8429529667,       -1.3401385546,0.3152410388,-0.4085223079,107.6987686157,40.7868270874,-260.5258178711
        1.8455288410,       -1.3401385546,0.3152410388,-0.4085223079,107.6987686157,40.7868270874,-260.5258178711
        1.8481569290,       -1.3401385546,0.3152410388,-0.4085223079,120.9891738892,53.7873153687,-294.5834350586
        1.8507390022,       -1.3401385546,0.3152410388,-0.4085223079,120.9891738892,53.7873153687,-294.5834350586
        1.8533167839,       -2.0618181229,-0.3180597425,-0.4387957454,132.1891326904,65.1551132202,-335.7516479492
        1.8559010029,       -2.0618181229,-0.3180597425,-0.4387957454,132.1891326904,65.1551132202,-335.7516479492
        1.8586449623,       -2.0618181229,-0.3180597425,-0.4387957454,157.3966522217,75.6836776733,-376.5383911133
        1.8612229824,       -2.0618181229,-0.3180597425,-0.4387957454,157.3966522217,75.6836776733,-376.5383911133
        1.8638069630,       -3.6414079666,-1.5563410521,-0.0218035579,195.4978485107,88.9588241577,-414.1207885742
        1.8665378094,       -3.6414079666,-1.5563410521,-0.0218035579,195.4978485107,88.9588241577,-414.1207885742
        1.8691148758,       -3.6414079666,-1.5563410521,-0.0218035579,241.6099090576,93.7500839233,-432.0956420898
        1.8716959953,       -3.6414079666,-1.5563410521,0.8341534734,241.6099090576,93.7500839233,-432.0956420898
        1.8742659092,       -6.0022478104,-1.8165949583,0.8341534734,245.5161590576,62.8662948608,-365.8724975586
        1.8769068718,       -6.0022478104,-1.8165949583,0.8341534734,247.1183319092,62.8662948608,-365.8724975586
        1.8796157837,       -6.0022478104,-1.8165949583,0.8341534734,165.0870819092,12.2528896332,-205.8993530273
        1.8823239803,       -6.0022478104,5.7502994537,3.4445049763,163.4543914795,12.2528896332,-205.8993530273
        1.8850319386,       -6.0769548416,5.7502994537,3.4445049763,222.0481414795,6.4087734222,-162.6712036133
        1.8877439499,       -6.0769548416,5.7502994537,3.4445049763,223.3756561279,6.4087734222,-162.6712036133
        1.8904500008,       -6.0769548416,5.7502994537,3.4445049763,383.5318908691,45.0135116577,-305.9817504883
        1.8931620121,        3.6383771896,13.2537174225,1.4957745075,380.4648742676,45.0135116577,-305.9817504883
        1.8958699703,        3.6383771896,13.2537174225,1.4957745075,493.7461242676,-88.2720108032,-371.4877319336
        1.8985848427,        3.6383771896,13.2537174225,1.4957745075,494.3717346191,-88.2720108032,-371.4877319336
        1.9013988972,        3.6383771896,13.2537174225,1.4957745075,498.2779846191,-136.0930633545,-195.7369995117
        1.9041028023,        1.2916973829,-1.1603449583,0.4630597234,499.0409240723,-136.0930633545,-195.7369995117
        1.9068589211,        1.2916973829,-1.1603449583,0.4630597234,499.0409240723,-114.4255752563,11.7520151138
        1.9095699787,        1.2916973829,-1.1603449583,0.4630597234,499.0409240723,-114.4255752563,11.7520151138
        1.9122798443,        1.2916973829,0.2146550864,-0.0271746516,499.0409240723,-50.7659072876,168.0935668945
        1.9149978161,       -1.0662127733,0.2864324450,-0.0271746516,499.0409240723,-50.7659072876,168.0935668945
        1.9176399708,       -1.0662127733,0.2864324450,-0.0271746516,495.1346740723,17.1662197113,204.0585327148
        1.9202198982,       -1.0662127733,0.2864324450,-0.0271746516,497.0420227051,17.1662197113,204.0585327148
        1.9230079651,        0.9337872267,-1.6632746458,0.7999737859,497.0420227051,84.3506698608,213.0612182617
        1.9255847931,        0.9147442579,-1.6632746458,0.7999737859,375.3531799316,84.3506698608,213.0612182617
        1.9285418987,        0.9147442579,-1.6632746458,0.7999737859,55.0406875610,121.6431503296,241.3967895508
        1.9312489033,        0.9147442579,-1.6632746458,0.7999737859,55.5900039673,121.6431503296,241.3967895508
        1.9339640141,       -0.3933612108,-5.7243099213,0.4596417546,-221.7537384033,122.9401473999,217.3184204102
        1.9366848469,       -0.3933612108,-5.7243099213,0.4596417546,-223.1270294189,122.9401473999,217.3184204102
        1.9393908978,       -0.3933612108,-5.7243099213,0.4596417546,-422.3457946777,130.0507354736,235.9646606445
        1.9421069622,       -0.3933612108,-5.7243099213,0.0846417546,-423.6733093262,130.0507354736,235.9646606445
        1.9448149204,       -0.2302752733,-2.1593682766,0.0411847234,-493.9858093262,119.3543319702,222.3538208008
        1.9475378990,       -0.2302752733,-2.1593682766,0.0411847234,-494.5809020996,119.3543319702,222.3538208008
        1.9502518177,       -0.2302752733,-2.1593682766,0.0411847234,-478.9559020996,102.4781112671,177.4777221680
        1.9529650211,       -0.2302752733,-0.8390558362,0.7960675359,-476.8044128418,102.4781112671,177.4777221680
        1.9556739330,        0.9093731642,-0.8390558362,0.7960675359,-476.8044128418,71.6400985718,132.2201538086
        1.9582660198,        0.9093731642,-0.8390558362,0.7960675359,-423.7343444824,71.6400985718,132.2201538086
        1.9608438015,        0.9093731642,-0.8390558362,0.7960675359,-423.7343444824,71.6400985718,105.4257202148
        1.9634289742,        0.5343731642,-1.0631769896,0.9166730046,-371.5340270996,14.5874843597,105.4257202148
        1.9661738873,        0.4855450392,-1.0631769896,0.9166730046,-371.5340270996,14.5874843597,72.6498413086
        1.9687500000,        0.4855450392,-1.0631769896,0.9166730046,-324.4148864746,-7.3546543121,72.6498413086
        1.9713318348,        0.4855450392,-1.0631769896,0.9166730046,-324.4148864746,-7.3546543121,41.3998413086
        1.9739038944,        0.4689434767,-0.4704034925,0.0807355046,-263.1661071777,-27.7403964996,40.4080200195
        1.9765977859,        0.4689434767,-0.4704034925,0.0807355046,-263.1661071777,-27.7403964996,40.4080200195
        1.9791769981,        0.4689434767,-0.4704034925,0.0807355046,-190.1070098877,-37.2008438110,12.3776254654
        1.9817559719,        0.4689434767,-0.4704034925,0.0807355046,-190.1070098877,-37.2008438110,12.3776254654
        1.9843389988,        0.4694317579,-0.3854425550,-0.1048113704,-121.6408309937,-39.4133682251,-18.7503051758
        1.9871029854,        0.4694317579,-0.3854425550,-0.1048113704,-121.6408309937,-39.4133682251,-18.7503051758
        1.9899048805,        0.4694317579,-0.3854425550,-0.1048113704,-73.0721054077,-38.8487930298,-46.9943237305
        1.9927129745,        0.4694317579,-0.3854425550,0.0201886296,-73.0721054077,-38.8487930298,-46.9943237305
        1.9953029156,        0.5104473829,-0.3175714612,0.0851300359,-39.1365585327,-39.2607803345,-68.1887817383
        1.9980499744,        0.5104473829,-0.3175714612,0.0851300359,-39.1365585327,-39.2607803345,-68.1887817383
        2.0007247925,        0.5104473829,-0.3175714612,0.0851300359,-14.3257665634,-38.0858535767,-79.5565795898
        2.0039048195,        0.4191387892,-0.2843683362,-0.0066668396,-14.3257665634,-38.0858535767,-83.4628295898
        2.0065109730,        0.4191387892,-0.2843683362,-0.0066668396,-3.7056493759,-37.9332656860,-84.1189575195
        2.0090858936,        0.4191387892,-0.2843683362,-0.0066668396,-3.7056493759,-37.9332656860,-84.1189575195
        2.0116558075,        0.4191387892,-0.2843683362,-0.0066668396,0.4447412491,-38.8182754517,-81.4944458008
        2.0142250061,        0.4513653517,-0.2955988050,-0.1844012141,0.4447412491,-38.8182754517,-81.4944458008
        2.0168428421,        0.4513653517,-0.2955988050,-0.1844012141,3.7406396866,-38.5741348267,-72.2628784180
        2.0194129944,        0.4513653517,-0.2955988050,-0.1844012141,3.7406396866,-38.5741348267,-72.2628784180
        2.0219838619,        0.4513653517,-0.2955988050,-0.1844012141,6.5329980850,-35.5071182251,-62.8176879883
        2.0245490074,        0.4508770704,-0.2853448987,-0.3006121516,6.5329980850,-35.5071182251,-62.8176879883
        2.0271368027,        0.4508770704,-0.2853448987,-0.3006121516,9.2795801163,-30.7311191559,-55.9664916992
        2.0298178196,        0.4508770704,-0.2853448987,-0.3006121516,9.2795801163,-30.7311191559,-55.9664916992
        2.0323917866,        0.4508770704,-0.2853448987,-0.3006121516,14.5591211319,-25.3752841949,-48.9321899414
        2.0349647999,        0.6037091017,-0.2863214612,-0.3557879329,14.5591211319,-25.3752841949,-48.9321899414
        2.0376729965,        0.6037091017,-0.2863214612,-0.3557879329,19.2130508423,-20.5535068512,-41.8826293945
        2.0402488708,        0.6037091017,-0.2863214612,-0.3557879329,19.2130508423,-20.5535068512,-41.8826293945
        2.0428237915,        0.6037091017,-0.2863214612,-0.3557879329,19.2130508423,-15.2281894684,-35.0619506836
        2.0453908443,        0.6984356642,-0.3107355237,-0.3015887141,28.8718643188,-15.2281894684,-35.0619506836
        2.0481288433,        0.6984356642,-0.3107355237,-0.3015887141,28.8718643188,-15.2281894684,-32.7120971680
        2.0507059097,        0.6984356642,-0.3107355237,-0.3015887141,41.0483779907,-15.2434482574,-32.7120971680
        2.0532839298,        0.6984356642,-0.3107355237,-0.1765887141,41.0483779907,-15.2434482574,-35.0619506836
        2.0558619499,        0.6818341017,-0.3190363050,-0.2493426204,58.6112442017,-14.9993076324,-35.0619506836
        2.0585319996,        0.6818341017,-0.3190363050,-0.2493426204,58.6112442017,-14.9993076324,-38.1900024414
        2.0611038208,        0.6818341017,-0.3190363050,-0.2493426204,76.2046279907,-14.4652500153,-38.1900024414
        2.0636749268,        0.6818341017,-0.3190363050,-0.2923113704,76.2046279907,-14.4652500153,-38.1900024414
        2.0662839413,        0.6613262892,-0.4625909925,-0.2923113704,89.3271865845,-16.3725986481,-41.8978881836
        2.0688598156,        0.6613262892,-0.4625909925,-0.2923113704,89.3271865845,-16.3725986481,-41.8978881836
        2.0714290142,        0.6613262892,-0.4625909925,-0.2923113704,94.5762100220,-17.7611484528,-45.3158569336
        2.0740048885,        0.6613262892,-0.4625909925,-0.3626238704,94.5762100220,-17.7611484528,-45.3158569336
        2.0766668320,        0.6569317579,-0.4987238050,-0.3626238704,94.6677627563,-17.8984775543,-48.1082153320
        2.0793747902,        0.6569317579,-0.4987238050,-0.3626238704,94.6677627563,-17.8984775543,-48.1082153320
        2.0820848942,        0.6569317579,-0.4987238050,-0.3626238704,91.4786758423,-16.5404453278,-49.2831420898
        2.0847918987,        0.6583966017,-0.4196222425,-0.3269793391,91.4786758423,-16.5404453278,-49.2831420898
        2.0875120163,        0.6583966017,-0.4196222425,-0.3269793391,84.5969619751,-14.5873203278,-48.5354614258
        2.0902190208,        0.6583966017,-0.4196222425,-0.3269793391,84.5969619751,-14.5873203278,-48.5354614258
        2.0930368900,        0.6583966017,-0.4196222425,-0.3269793391,72.7866592407,-11.7491855621,-46.9027709961
        2.0957498550,        0.5949200392,-0.3615167737,-0.2014910579,72.7866592407,-11.7491855621,-46.9027709961
        2.0984749794,        0.5949200392,-0.3615167737,-0.2014910579,55.3000869751,-7.9497470856,-43.8052368164
        2.1011757851,        0.5949200392,-0.3615167737,-0.2014910579,55.3000869751,-7.9497470856,-43.8052368164
        2.1038827896,        0.5949200392,-0.3615167737,-0.2014910579,35.5399551392,-3.6162507534,-40.9976196289
        2.1065759659,        0.5290020704,-0.3307550550,-0.1326434016,35.5399551392,-3.6162507534,-40.9976196289
        2.1091527939,        0.5290020704,-0.3307550550,-0.1326434016,16.5122451782,0.5799162388,-38.6477661133
        2.1117269993,        0.5290020704,-0.3307550550,-0.1326434016,16.5122451782,0.5799162388,-38.6477661133
        2.1144418716,        0.5290020704,-0.3307550550,-0.1219012141,-3.4462499619,4.2420253754,-33.7496948242
        2.1173138618,        0.4835919142,-0.2555597425,-0.1219012141,-3.4462499619,4.2420253754,-33.7496948242
        2.1198818684,        0.4835919142,-0.2555597425,-0.1219012141,-21.2227401733,7.8888759613,-29.6603393555
        2.1224548817,        0.4835919142,-0.2555597425,-0.1219012141,-21.2227401733,7.8888759613,-29.6603393555
        2.1250228882,        0.4835919142,-0.0978449136,-0.1287371516,-34.7267684937,11.4136562347,-28.0429077148
        2.1276409626,        0.4874981642,-0.0978449136,-0.1287371516,-34.7267684937,11.4136562347,-28.0429077148
        2.1302127838,        0.4874981642,-0.0978449136,-0.1287371516,-43.6073837280,12.9395351410,-26.3491821289
        2.1327869892,        0.4874981642,-0.0978449136,-0.1287371516,-43.6073837280,12.9395351410,-26.3491821289
        2.1353609562,        0.5124005079,0.0466863364,-0.1013934016,-47.5136337280,12.8937587738,-26.4407348633
        2.1379837990,        0.5124005079,0.0466863364,-0.1013934016,-46.0030136108,12.8937587738,-26.4407348633
        2.1405589581,        0.5124005079,0.0466863364,-0.1013934016,-46.0030136108,12.8937587738,-26.7459106445
        2.1431338787,        0.5124005079,0.0466863364,-0.1013934016,-44.2787704468,11.6425380707,-26.7459106445
        2.1457068920,        0.5636700392,0.1160222739,-0.0877215266,-44.2787704468,11.6425380707,-26.7306518555
        2.1483299732,        0.5636700392,0.1160222739,-0.0877215266,-38.7398300171,10.2845058441,-26.7306518555
        2.1509058475,        0.5636700392,0.1160222739,-0.0877215266,-38.7398300171,10.2845058441,-26.7306518555
        2.1534769535,        0.5636700392,0.1160222739,-0.0877215266,-29.3098983765,7.6294765472,-26.2118530273
        2.1562039852,        0.5924786329,0.0798894614,-0.0994402766,-29.3098983765,7.6294765472,-26.2118530273
        2.1587769985,        0.5924786329,0.0798894614,-0.0994402766,-17.8047714233,3.4333097935,-24.5639038086
        2.1613438129,        0.5924786329,0.0798894614,-0.0994402766,-17.8047714233,3.4333097935,-24.5639038086
        2.1639099121,        0.5924786329,0.0798894614,-0.0994402766,-6.3454198837,0.6104338169,-25.0674438477
        2.1665909290,        0.6046856642,-0.0622003824,-0.0979754329,-6.3454198837,0.6104338169,-25.0674438477
        2.1691629887,        0.6046856642,-0.0622003824,-0.0979754329,4.7782373428,-2.8075349331,-27.3715209961
        2.1717278957,        0.6046856642,-0.0622003824,-0.0979754329,4.7782373428,-2.8075349331,-27.3715209961
        2.1742999554,        0.6046856642,-0.0622003824,-0.0979754329,17.6413955688,-5.0810947418,-29.4161987305
        2.1770398617,        0.6251934767,-0.1730402261,-0.0935809016,17.6413955688,-5.0810947418,-29.4161987305
        2.1797409058,        0.6251934767,-0.1730402261,-0.0935809016,31.3895645142,-6.6527500153,-31.5219116211
        2.1824429035,        0.6251934767,-0.1730402261,-0.0935809016,31.3895645142,-6.6527500153,-31.5219116211
        2.1851530075,        0.6251934767,-0.2980402112,-0.1214129329,42.4369277954,-7.5987949371,-34.8635864258
        2.1878719330,        0.6476544142,-0.2746027112,-0.1214129329,42.4369277954,-7.5987949371,-34.8635864258
        2.1905779839,        0.6476544142,-0.2746027112,-0.1214129329,53.4079971313,-6.4543857574,-37.3355102539
        2.1932837963,        0.6476544142,-0.2746027112,-0.1214129329,53.4079971313,-6.4543857574,-37.3355102539
        2.1959979534,        0.5958966017,-0.3004816175,-0.1350848079,61.7087783813,-3.4941804409,-38.5714721680
        2.1987018585,        0.5958966017,-0.3004816175,-0.1350848079,61.7087783813,-3.4941804409,-38.5714721680
        2.2014009953,        0.5958966017,-0.3004816175,-0.1350848079,68.5141983032,-0.3508698940,-37.9916381836
        2.2041118145,        0.5958966017,-0.3004816175,-0.1350848079,68.5141983032,-0.3508698940,-37.9916381836
        2.2068297863,        0.5465801954,-0.1559503824,-0.1155535579,75.5790176392,2.5177824497,-36.1148071289
        2.2094068527,        0.5465801954,-0.1559503824,-0.1155535579,75.5790176392,2.5177824497,-36.1148071289
        2.2119870186,        0.5465801954,-0.1559503824,-0.1155535579,83.2541885376,5.5847988129,-33.3529663086
        2.2145619392,        0.5465801954,-0.1559503824,-0.1155535579,83.2541885376,5.5847988129,-33.3529663086
        2.2172629833,        0.4874981642,-0.0114191324,-0.0979754329,88.5184707642,7.9804286957,-29.2636108398
        2.2200789452,        0.4874981642,-0.0114191324,-0.0979754329,88.5184707642,7.9804286957,-29.2636108398
        2.2227849960,        0.4874981642,-0.0114191324,-0.0979754329,92.1500625610,10.8643398285,-24.1213989258
        2.2254898548,        0.4874981642,0.1135808676,-0.0589129329,92.1500625610,10.8643398285,-24.1213989258
        2.2282018661,        0.4552716017,0.0964910239,-0.0589129329,94.5762100220,14.5722255707,-18.0789184570
        2.2309079170,        0.4552716017,0.0964910239,-0.0589129329,94.5762100220,14.5722255707,-18.0789184570
        2.2338089943,        0.4552716017,0.0964910239,-0.0589129329,96.6971817017,16.5711269379,-11.1819448471
        2.2368929386,        0.4660137892,0.1033269614,-0.0125262141,96.6971817017,16.5711269379,-11.1819448471
        2.2396090031,        0.4660137892,0.1033269614,-0.0125262141,99.3674697876,17.5476894379,-4.5596303940
        2.2423179150,        0.4660137892,0.1033269614,-0.0125262141,99.3674697876,17.5476894379,-4.5596303940
        2.2450268269,        0.4660137892,0.1033269614,-0.0125262141,99.1538467407,18.9667568207,0.0943002701
        2.2477488518,        0.4796856642,-0.0451105386,0.0831769109,99.1538467407,18.9667568207,0.0943002701
        2.2504498959,        0.4796856642,-0.0451105386,0.0831769109,93.0503311157,19.3940029144,2.7951059341
        2.2531518936,        0.4796856642,-0.0451105386,0.0831769109,93.0503311157,19.3940029144,2.7951059341
        2.2558619976,        0.4796856642,-0.2951105237,0.0900128484,84.8868789673,18.4174404144,2.5662240982
        2.2584547997,        0.4904278517,-0.2985284925,0.0900128484,84.8868789673,18.4174404144,2.5662240982
        2.2610299587,        0.4904278517,-0.2985284925,0.0900128484,79.6683731079,16.5863857269,0.5520639420
        2.2636008263,        0.4904278517,-0.2985284925,0.0900128484,79.6683731079,16.5863857269,0.5520639420
        2.2662467957,        0.4904278517,-0.3659113050,0.0045636292,75.4111709595,13.6261806488,-2.8201284409
        2.2688219547,        0.5475567579,-0.3659113050,0.0045636292,75.4111709595,13.6261806488,-2.8201284409
        2.2713940144,        0.5475567579,-0.3659113050,0.0045636292,75.4111709595,10.0861415863,-6.5890493393
        2.2739648819,        0.5475567579,-0.3659113050,0.0045636292,68.9719619751,10.0861415863,-6.5890493393
        2.2765347958,        0.6725567579,-0.3366144300,-0.0613543391,68.9719619751,10.0861415863,-10.8462514877
        2.2791149616,        0.6320294142,-0.3366144300,-0.0613543391,61.8155899048,7.2937831879,-10.8462514877
        2.2816889286,        0.6320294142,-0.3366144300,-0.0613543391,61.8155899048,7.2937831879,-14.7525014877
        2.2843708992,        0.6320294142,-0.3366144300,-0.0613543391,55.8188858032,4.3335781097,-14.5083608627
        2.2871158123,        0.6378887892,-0.2550714612,-0.0901629329,55.8188858032,4.3335781097,-18.4146118164
        2.2896909714,        0.6378887892,-0.2550714612,-0.0901629329,52.8586807251,1.2665617466,-17.5906372070
        2.2922689915,        0.6378887892,-0.2550714612,-0.0901629329,52.8586807251,1.2665617466,-17.5906372070
        2.2949309349,        0.6378887892,-0.2550714612,-0.0901629329,53.6521377563,-1.8462312222,-20.7492065430
        2.2976338863,        0.6085919142,-0.2233331949,-0.0257098079,53.6521377563,-1.8462312222,-20.7492065430
        2.3002128601,        0.6085919142,-0.2233331949,-0.0257098079,59.8929824829,-4.6691074371,-22.1682739258
        2.3027880192,        0.6085919142,-0.2233331949,-0.0257098079,59.8929824829,-4.6691074371,-22.1682739258
        2.3053648472,        0.6085919142,-0.2233331949,-0.0257098079,62.0597305298,-4.3181552887,-21.1001586914
        2.3081939220,        0.5031231642,-0.3034113050,-0.0481707454,62.0597305298,-4.3181552887,-21.1001586914
        2.3108630180,        0.5031231642,-0.3034113050,-0.0481707454,49.9137344360,-2.6854646206,-18.1094360352
        2.3137388229,        0.5031231642,-0.3034113050,-0.0481707454,49.9137344360,-2.6854646206,-18.1094360352
        2.3164029121,        0.5031231642,-0.4284113050,-0.1492449641,27.9105606079,-1.4189851284,-13.0740346909
        2.3189888000,        0.4542950392,-0.3620050550,-0.1492449641,27.9105606079,-1.4189851284,-13.0740346909
        2.3215568066,        0.4542950392,-0.3620050550,-0.1492449641,6.8839502335,0.1831877232,-6.1007680893
        2.3241209984,        0.4542950392,-0.3620050550,-0.1492449641,6.8839502335,0.1831877232,-6.1007680893
        2.3266940117,        0.4542950392,-0.3507745862,-0.1062762141,-12.0064306259,2.0600187778,1.0556039810
        2.3292639256,        0.4186505079,-0.3507745862,-0.1062762141,-12.0064306259,2.0600187778,1.0556039810
        2.3318338394,        0.4186505079,-0.3507745862,-0.1062762141,-28.1349716187,3.4485685825,6.9912729263
        2.3343977928,        0.4186505079,-0.3507745862,-0.1062762141,-28.1349716187,3.4485685825,6.9912729263
        2.3370099068,        0.4186505079,-0.3512628675,-0.0393816829,-41.3033065796,5.5237636566,11.4010629654
        2.3395810127,        0.3908184767,-0.3512628675,-0.0393816829,-41.3033065796,5.5237636566,11.4010629654
        2.3421528339,        0.3908184767,-0.3512628675,-0.0393816829,-41.3033065796,8.5144863129,14.5443735123
        2.3447189331,        0.3908184767,-0.3512628675,-0.0393816829,-51.6029891968,8.5144863129,14.5443735123
        2.3474040031,        0.3498028517,-0.3756769300,-0.0774676204,-51.6029891968,12.4207363129,15.5667123795
        2.3499829769,        0.3498028517,-0.3756769300,-0.0774676204,-61.3380966187,11.8409023285,15.5667123795
        2.3525519371,        0.3498028517,-0.3756769300,-0.0774676204,-61.3380966187,11.8409023285,13.6288461685
        2.3551278114,        0.3498028517,-0.3756769300,-0.0774676204,-68.9064559937,14.4043788910,13.6288461685
        2.3577599525,        0.3224591017,-0.4401300550,-0.0672137141,-68.9064559937,14.4043788910,9.7225961685
        2.3603398800,        0.3224591017,-0.4401300550,-0.0672137141,-68.7843856812,15.5335292816,8.6087045670
        2.3629179001,        0.3224591017,-0.4401300550,-0.0672137141,-68.7843856812,15.5335292816,8.6087045670
        2.3654878139,        0.3224591017,-0.4401300550,-0.0672137141,-67.8688583374,18.0817470551,0.3842172623
        2.3682668209,        0.3678692579,-0.5231378675,-0.1668230891,-67.8688583374,18.0817470551,0.3842172623
        2.3709750175,        0.3678692579,-0.5231378675,-0.1668230891,-74.7047958374,20.6604824066,-10.1748647690
        2.3736839294,        0.3678692579,-0.5231378675,-0.1668230891,-74.7047958374,20.6604824066,-10.1748647690
        2.3763949871,        0.3678692579,-0.5231378675,-0.1668230891,-84.1194686890,20.0653896332,-20.0320434570
        2.3791029453,        0.4962872267,-0.3981378675,-0.1814715266,-84.1194686890,20.0653896332,-20.0320434570
        2.3818128109,        0.4962872267,-0.3981378675,-0.1814715266,-86.0878524780,20.5078945160,-29.0347290039
        2.3845210075,        0.4962872267,-0.3981378675,-0.1814715266,-86.0878524780,20.5078945160,-29.0347290039
        2.3872749805,        0.4962872267,-0.1261652261,0.0157940984,-77.5887069702,20.5231533051,-37.7627563477
        2.3899888992,        0.5587872267,-0.1261652261,0.0157940984,-77.5887069702,20.5231533051,-37.7627563477
        2.3926978111,        0.5587872267,-0.1261652261,0.0157940984,-62.0247421265,18.9820156097,-43.6068725586
        2.3953998089,        0.5587872267,-0.1261652261,0.0157940984,-62.0247421265,18.9820156097,-43.6068725586
        2.3981428146,        0.4625958204,0.2224675864,0.0787823796,-42.4934921265,16.2049160004,-45.1480102539
        2.4007248878,        0.4625958204,0.2224675864,0.0787823796,-42.4934921265,16.2049160004,-45.1480102539
        2.4033038616,        0.4625958204,0.2224675864,0.0787823796,-18.9491806030,13.5498867035,-40.9060668945
        2.4058849812,        0.4625958204,0.2224675864,0.0787823796,-18.9491806030,13.5498867035,-40.9060668945
        2.4086198807,        0.3332012892,0.5237371325,0.0934308171,9.0354394913,10.1929531097,-32.3611450195
        2.4123589993,        0.3332012892,0.5237371325,0.0934308171,9.0354394913,10.1929531097,-21.1001586914
        2.4149320126,        0.3332012892,0.5237371325,0.0934308171,38.4238662720,6.8970546722,-21.1001586914
        2.4175128937,        0.3332012892,0.4949285388,0.0006573792,38.4238662720,6.8970546722,-21.1001586914
        2.4200878143,        0.2545880079,0.4949285388,0.0006573792,57.9703750610,4.2420253754,-8.3285512924
        2.4226570129,        0.2545880079,0.4949285388,0.0006573792,57.9703750610,4.2420253754,-8.3285512924
        2.4252309799,        0.2545880079,0.4949285388,0.0006573792,68.3921279907,3.3722746372,4.8855600357
        2.4278078079,        0.2545880079,0.2473699301,-0.0628191829,68.3921279907,3.3722746372,4.8855600357
        2.4303748608,        0.1613262892,0.2473699301,-0.0628191829,75.8841934204,3.3875334263,18.7252807617
        2.4329428673,        0.1613262892,0.2473699301,-0.0628191829,75.8841934204,3.3875334263,18.7252807617
        2.4355130196,        0.1613262892,0.2473699301,-0.0628191829,74.4193496704,5.8136806488,33.0532836914
        2.4381308556,        0.1613262892,-0.0123956949,-0.2185809016,74.4193496704,5.8136806488,33.0532836914
        2.4407029152,        0.1207989454,-0.0123956949,-0.2185809016,57.1158828735,9.6741542816,50.5703735352
        2.4432718754,        0.1207989454,-0.0123956949,-0.2185809016,57.1158828735,9.6741542816,50.5703735352
        2.4458489418,        0.1207989454,-0.0123956949,-0.2185809016,27.2086563110,13.7329921722,73.4280395508
        2.4484288692,        0.0597637892,-0.0831964761,-0.2127215266,27.2086563110,13.7329921722,73.4280395508
        2.4509999752,        0.0597637892,-0.0831964761,-0.2127215266,27.2086563110,19.0583095551,98.3761596680
        2.4535779953,        0.0597637892,-0.0831964761,-0.2127215266,-15.6380224228,19.0583095551,98.3761596680
        2.4563679695,        0.0597637892,-0.0831964761,-0.2127215266,-15.6380224228,22.9645595551,123.2022094727
        2.4589509964,       -0.0339862108,-0.0807550699,0.0709698796,-65.5952987671,24.3378505707,123.2022094727
        2.4615259171,       -0.0339862108,-0.0807550699,0.0709698796,-65.5952987671,24.3378505707,144.6102905273
        2.4640979767,       -0.0339862108,-0.0807550699,0.0709698796,-109.2964706421,27.8778896332,144.6102905273
        2.4668068886,       -0.0339862108,-0.0807550699,0.0709698796,-109.2964706421,27.8778896332,162.1273803711
        2.4693808556,        0.0094708204,0.0823308676,0.3409894109,-143.0031280518,29.1596279144,162.1273803711
        2.4719488621,        0.0094708204,0.0823308676,0.3409894109,-143.0031280518,29.1596279144,162.1273803711
        2.4745287895,        0.0094708204,0.0823308676,0.3409894109,-156.5529327393,31.0212001801,185.3054809570
        2.4772229195,        0.0094708204,0.0823308676,0.3409894109,-156.5529327393,31.0212001801,185.3054809570
        2.4798069000,        0.4874981642,6.8909244537,2.5113995075,10.1188135147,0.8087980747,241.2136840820
        2.4823729992,        0.4874981642,6.8909244537,2.5113995075,10.1188135147,0.8087980747,241.2136840820
        2.4849419594,        0.4874981642,6.8909244537,2.5113995075,321.9016418457,46.7377548218,274.4778442383
        2.4875288010,        0.4874981642,6.8909244537,2.5113995075,321.9016418457,46.7377548218,274.4778442383
        2.4901018143,       -4.0764665604,7.1897525787,-3.0052020550,-265.4854431152,245.1020050049,385.1498413086
        2.4926688671,       -4.0764665604,7.1897525787,-3.0052020550,-265.4854431152,245.1020050049,385.1498413086
        2.4952437878,       -4.0764665604,7.1897525787,-3.0052020550,172.5333709717,2.5025236607,335.1773071289
        2.4979319572,       -4.0764665604,7.1897525787,1.2960674763,172.5333709717,2.5025236607,335.1773071289
        2.5006408691,       -8.5334978104,-5.5255794525,1.2960674763,246.5995330811,-6.7595615387,254.5040893555
        2.5032207966,       -8.5334978104,-5.5255794525,1.2960674763,246.5995330811,-6.7595615387,254.5040893555
        2.5057938099,       -8.5334978104,-5.5255794525,1.2960674763,-146.7720489502,-68.9696426392,108.3706665039
        2.5086050034,       -8.5334978104,-7.3029232025,2.2140362263,-146.7720489502,-68.9696426392,108.3706665039
        2.5127518177,       -3.8503923416,-7.3029232025,2.2140362263,-64.4203720093,-63.9952774048,131.6860961914
        2.5153269768,       -3.8503923416,-7.3029232025,2.2140362263,-64.4203720093,-63.9952774048,131.6860961914
        2.5179708004,       -3.8503923416,-7.3029232025,0.8390362859,70.3910293579,14.1297206879,248.5073852539
        2.5205388069,       -1.6877948046,0.9002019763,0.8541730046,70.3910293579,14.1297206879,248.5073852539
        2.5231108665,       -1.6877948046,0.9002019763,0.8541730046,-31.9344100952,-28.8237705231,265.7345581055
        2.5256788731,       -1.6877948046,0.9002019763,0.8541730046,-31.9344100952,-28.8237705231,265.7345581055
        2.5282599926,       -1.6877948046,0.9002019763,-1.7986590862,-92.2829208374,-61.1571426392,251.8032836914
        2.5308268070,       -0.7244158983,3.3552801609,-1.7986590862,-92.2829208374,-61.1571426392,251.8032836914
        2.5333969593,       -0.7244158983,3.3552801609,-1.7986590862,-36.4357528687,-74.5696182251,194.7659301758
        2.5360009670,       -0.7244158983,3.3552801609,-1.7986590862,-36.4357528687,-74.5696182251,194.7659301758
        2.5386559963,       -0.7244158983,0.1052800864,-1.7459247112,22.6767959595,-70.7091445923,135.3329467773
        2.5413358212,        0.6959942579,0.0432683676,-1.7459247112,22.6767959595,-70.7091445923,135.3329467773
        2.5439109802,        0.6959942579,0.0432683676,-1.7459247112,15.5967187881,-44.0672988892,108.0349731445
        2.5465478897,        0.6959942579,0.0432683676,-1.7459247112,15.5967187881,-44.0672988892,108.0349731445
        2.5491240025,        0.6959942579,0.8308660388,-1.4900653362,-0.0282812119,-17.2423496246,70.7424926758
        2.5516989231,        0.6940411329,0.8308660388,-1.4900653362,-1.5846776962,-17.2423496246,70.7424926758
        2.5542709827,        0.6940411329,0.8308660388,-1.4900653362,-1.5846776962,-1.6173493862,40.4080200195
        2.5569570065,        0.6940411329,0.8308660388,-1.4900653362,-30.6068954468,-0.1982820034,40.4080200195
        2.5595338345,       -0.2922869921,0.3630926013,-0.3855730891,-30.6068954468,-0.1982820034,23.3792114258
        2.5621049404,       -0.2922869921,0.3630926013,-0.3855730891,-68.9980087280,2.8382170200,23.3792114258
        2.5646789074,       -0.2922869921,0.3630926013,-0.3855730891,-68.9980087280,2.8382170200,14.6969614029
        2.5674169064,       -0.2922869921,0.3630926013,-0.3855730891,-90.5129013062,7.6599941254,14.6969614029
        2.5701220036,       -0.0354510546,0.3084051013,1.0363018513,-90.5129013062,7.6599941254,12.5454721451
        2.5728228092,       -0.0354510546,0.3084051013,1.0363018513,-80.8235702515,-1.8309724331,12.5454721451
        2.5755219460,       -0.0354510546,0.3084051013,1.0363018513,-80.8235702515,-1.8309724331,1.0250864029
        2.5782678127,       -0.0354510546,0.3084051013,1.0363018513,-65.8852157593,-15.3197422028,1.0250864029
        2.5809738636,       -0.1550799608,0.3840886950,0.7145245671,-65.8852157593,-15.3197422028,-15.1797475815
        2.5836799145,       -0.1550799608,0.3840886950,0.7145245671,-39.1670761108,-10.0096836090,-15.1797475815
        2.5863759518,       -0.1550799608,0.3840886950,0.7145245671,-39.1670761108,-10.0096836090,-26.8984985352
        2.5889489651,       -0.1550799608,0.3840886950,-0.1946551204,-18.9491806030,-1.8157136440,-25.1437377930
        2.5915207863,       -0.7322283983,0.3543035388,-0.1946551204,-18.9491806030,-1.8157136440,-25.1437377930
        2.5940949917,       -0.7322283983,0.3543035388,-0.1946551204,-17.0265731812,6.1188564301,-30.4995727539
        2.5966989994,       -0.7322283983,0.3543035388,-0.1946551204,-17.0265731812,6.1188564301,-30.4995727539
        2.5994088650,       -0.7322283983,0.3377019763,-0.4383074641,-19.2543563843,13.2447109222,-31.0336303711
        2.6021389961,       -0.3650408983,0.3377019763,-0.4383074641,-19.2543563843,13.2447109222,-31.0336303711
        2.6048278809,       -0.3650408983,0.3377019763,-0.4383074641,-23.5268173218,16.9068202972,-32.9562377930
        2.6076037884,       -0.3650408983,0.3377019763,-0.4383074641,-23.5268173218,16.9068202972,-32.9562377930
        2.6102728844,        0.0592755079,0.1311589926,-0.1995379329,-27.4483261108,16.4643154144,-32.7731323242
        2.6131958961,        0.0592755079,0.1311589926,-0.1995379329,-27.4483261108,16.4643154144,-32.7731323242
        2.6159110069,        0.0592755079,0.1311589926,-0.1995379329,-30.8205184937,16.7237148285,-31.2167358398
        2.6186618805,        0.0592755079,0.1311589926,-0.1995379329,-30.8205184937,16.7237148285,-31.2167358398
        2.6213698387,        0.0641583204,0.2595769763,-0.0081316829,-33.2924423218,17.4713954926,-32.3458862305
        2.6240758896,        0.0641583204,0.2595769763,-0.0081316829,-33.2924423218,17.4713954926,-32.3458862305
        2.6267888546,        0.0641583204,0.2595769763,-0.0081316829,-33.2314071655,16.1896572113,-37.4118041992
        2.6294949055,        0.0641583204,0.2595769763,0.0192120671,-33.2314071655,16.1896572113,-37.4118041992
        2.6322028637,       -0.2273455858,0.2400457114,0.0192120671,-29.4472274780,14.3433437347,-42.5997924805
        2.6349198818,       -0.2273455858,0.2400457114,0.0192120671,-29.4472274780,14.3433437347,-42.5997924805
        2.6375918388,       -0.2273455858,0.2400457114,0.0192120671,-22.8096542358,11.7340908051,-46.5975952148
        2.6401679516,       -0.2273455858,0.0559636801,-0.0271746516,-22.8096542358,11.7340908051,-46.5975952148
        2.6427488327,       -0.2693377733,0.0559636801,-0.0271746516,-15.6532812119,8.3618984222,-49.2831420898
        2.6453249454,       -0.2693377733,0.0559636801,-0.0271746516,-15.6532812119,8.3618984222,-49.2831420898
        2.6479589939,       -0.2693377733,0.0559636801,-0.0271746516,-11.4265966415,4.7760829926,-49.9697875977
        2.6505339146,       -0.1711932421,-0.0143488199,-0.0603777766,-11.4265966415,4.7760829926,-49.9697875977
        2.6531069279,       -0.1711932421,-0.0143488199,-0.0603777766,-11.7622900009,2.2736418247,-49.3441772461
        2.6556909084,       -0.1711932421,-0.0143488199,-0.0603777766,-11.7622900009,2.2736418247,-49.3441772461
        2.6583077908,       -0.1711932421,-0.0143488199,-0.0603777766,-12.7541112900,-0.3508698940,-50.0765991211
        2.6608839035,       -0.1228533983,0.1433660239,-0.0457293391,-12.7541112900,-0.3508698940,-50.0765991211
        2.6634638309,       -0.1228533983,0.1433660239,-0.0457293391,-12.7541112900,-2.1361482143,-51.5567016602
        2.6661019325,       -0.1228533983,0.1433660239,-0.0457293391,-12.9829931259,-2.1361482143,-51.5567016602
        2.6689419746,       -0.1228533983,0.1433660239,-0.0457293391,-12.7083349228,-3.5094392300,-53.5861206055
        2.6716477871,       -0.1399432421,0.1633855551,-0.0388934016,-12.7083349228,-3.5094392300,-53.5861206055
        2.6743559837,       -0.1399432421,0.1633855551,-0.0388934016,-12.7083349228,-2.9296052456,-55.9664916992
        2.6770780087,       -0.1399432421,0.1633855551,-0.0388934016,-11.5791845322,-2.9296052456,-55.9664916992
        2.6797869205,       -0.1399432421,0.1633855551,0.0192120671,-7.6729345322,-2.3650300503,-57.8280639648
        2.6824920177,       -0.1497088671,0.0369207114,0.0192120671,-9.3819189072,-2.3650300503,-57.8280639648
        2.6852009296,       -0.1497088671,0.0369207114,0.0192120671,-9.3819189072,-2.0598542690,-59.5370483398
        2.6878228188,       -0.1497088671,0.0369207114,0.0192120671,-8.2527685165,-2.0598542690,-59.5370483398
        2.6903929710,       -0.1497088671,0.0579168051,0.0660870671,-8.2527685165,-2.0598542690,-61.9021606445
        2.6929619312,       -0.1370135546,0.0579168051,0.0660870671,-6.9405126572,-2.3039948940,-61.9021606445
        2.6955318451,       -0.1370135546,0.0579168051,0.0660870671,-6.9405126572,-2.3039948940,-64.5114135742
        2.6982839108,       -0.1370135546,0.0579168051,0.0660870671,-5.1247167587,-2.2582185268,-64.5114135742
        2.7009828091,       -0.1116229296,0.2068425864,0.0367901921,-5.1247167587,-2.2582185268,-67.9751586914
        2.7036869526,       -0.1116229296,0.2068425864,0.0367901921,-3.7361669540,-2.3955476284,-67.9751586914
        2.7064368725,       -0.1116229296,0.2068425864,0.0367901921,-3.7361669540,-2.3955476284,-72.9647827148
        2.7091429234,       -0.1116229296,0.2068425864,0.0367901921,-1.5999364853,-1.6020905972,-72.9647827148
        2.7118458748,       -0.1199237108,0.2517644763,-0.0100848079,-1.5999364853,-1.6020905972,-78.0612182617
        2.7145359516,       -0.1199237108,0.2517644763,-0.0100848079,2.5199365616,-0.9764802456,-78.0612182617
        2.7172529697,       -0.1199237108,0.2517644763,-0.0100848079,2.5199365616,-0.9764802456,-83.3255004883
        2.7199628353,       -0.1199237108,0.2517644763,0.1149151921,7.5553369522,-1.5410554409,-83.3255004883
        2.7229328156,       -0.1350604296,0.2156316489,-0.0042254333,7.5553369522,-5.4473056793,-87.7047729492
        2.7260549068,       -0.1350604296,0.2156316489,-0.0042254333,12.8501367569,-2.5481355190,-87.7047729492
        2.7286310196,       -0.1350604296,0.2156316489,-0.0042254333,12.8501367569,-3.4484040737,-92.6791381836
        2.7312068939,       -0.1736346483,0.1301824301,0.0289776921,18.3280410767,-3.4484040737,-92.6791381836
        2.7338960171,       -0.1736346483,0.1301824301,0.0289776921,18.3280410767,-3.4484040737,-97.6229858398
        2.7364978790,       -0.1736346483,0.1301824301,0.0289776921,21.5934219360,-5.3252353668,-97.6229858398
        2.7392079830,       -0.1736346483,0.1301824301,0.0289776921,21.5934219360,-9.2314853668,-101.9564819336
        2.7419228554,       -0.2185565233,0.1780339926,-0.0047137146,22.6920547485,-7.0342197418,-101.9564819336
        2.7446279526,       -0.2185565233,0.1780339926,-0.0047137146,22.6920547485,-7.0342197418,-105.0845336914
        2.7473537922,       -0.2185565233,0.1780339926,-0.0047137146,23.9737930298,-8.6363925934,-105.0845336914
        2.7500598431,       -0.2185565233,0.1780339926,-0.0047137146,23.9737930298,-12.5426425934,-105.8779907227
        2.7527718544,       -0.3010760546,0.2571355700,-0.0486590266,24.7977676392,-10.1470127106,-105.8779907227
        2.7554869652,       -0.3010760546,0.2571355700,-0.0486590266,24.7977676392,-10.1470127106,-105.4202270508
        2.7580869198,       -0.3010760546,0.2571355700,-0.0486590266,28.3072891235,-10.9557285309,-105.4202270508
        2.7606649399,       -0.3010760546,0.2571355700,-0.1194598079,28.3072891235,-10.9557285309,-101.5139770508
        2.7632489204,       -0.2766619921,0.1785222739,-0.1194598079,31.7252578735,-11.1846103668,-100.8425903320
        2.7658259869,       -0.2766619921,0.1785222739,-0.1194598079,31.7252578735,-11.1846103668,-100.8425903320
        2.7684199810,       -0.2766619921,0.1785222739,-0.1194598079,27.1018447876,-12.1611728668,-92.4349975586
        2.7710018158,       -0.2766619921,0.0535222739,-0.1136004329,27.1018447876,-12.1611728668,-92.4349975586
        2.7735779285,       -0.1956073046,0.1492253989,-0.1136004329,18.8468399048,-12.0391025543,-80.9909057617
        2.7763459682,       -0.1956073046,0.1492253989,-0.1136004329,18.8468399048,-12.0391025543,-80.9909057617
        2.7789249420,       -0.1956073046,0.1492253989,-0.1136004329,11.1564111710,-8.9720859528,-69.7909545898
        2.7814998627,       -0.1956073046,0.0505925864,-0.1887957454,11.1564111710,-8.9720859528,-69.7909545898
        2.7840797901,       -0.2332049608,0.0505925864,-0.1887957454,1.0398340225,-6.6069736481,-58.7435913086
        2.7867980003,       -0.2332049608,0.0505925864,-0.1887957454,1.0398340225,-6.6069736481,-58.7435913086
        2.7895028591,       -0.2332049608,0.0505925864,-0.1887957454,-12.7846288681,-3.5246980190,-44.2019653320
        2.7922039032,       -0.4275408983,0.1746160239,-0.3499285579,-12.7846288681,-3.5246980190,-44.2019653320
        2.7949140072,       -0.4275408983,0.1746160239,-0.3499285579,-22.7181015015,5.3253993988,-19.4216918945
        2.7977747917,       -0.4275408983,0.1746160239,-0.3499285579,-22.7181015015,5.3253993988,-19.4216918945
        2.8004798889,       -0.4275408983,0.1746160239,-0.3499285579,-39.1823348999,15.0452480316,5.2822885513
        2.8031818867,       -0.5457049608,0.8235418200,-0.4881121516,-39.1823348999,15.0452480316,5.2822885513
        2.8058907986,       -0.5457049608,0.8235418200,-0.4881121516,-68.8606796265,19.8365077972,22.6773071289
        2.8086009026,       -0.5457049608,0.8235418200,-0.4881121516,-68.8606796265,19.8365077972,22.6773071289
        2.8113198280,       -0.5457049608,0.9485418200,-0.1907488704,-89.4753036499,25.2228603363,30.9017944336
        2.8140249252,       -0.3567401171,0.9763738513,-0.1907488704,-89.4753036499,25.2228603363,30.9017944336
        2.8167428970,       -0.3567401171,0.9763738513,-0.1907488704,-98.1117782593,30.6549892426,36.3796997070
        2.8194589615,       -0.3567401171,0.9763738513,-0.1907488704,-98.1117782593,30.6549892426,36.3796997070
        2.8221678734,       -0.0403338671,0.5100652575,-0.0730730891,-109.4948348999,33.7677841187,47.6101684570
        2.8248798847,       -0.0403338671,0.5100652575,-0.0730730891,-109.4948348999,33.7677841187,47.6101684570
        2.8275218010,       -0.0403338671,0.5100652575,-0.0730730891,-124.8604354858,36.1328964233,58.5964965820
        2.8301010132,       -0.0403338671,0.5100652575,-0.0730730891,-124.8604354858,36.1328964233,58.5964965820
        2.8326838017,        0.1442364454,-0.0123956949,-0.1277605891,-134.4887237549,38.1317977905,64.4863891602
        2.8352608681,        0.1442364454,-0.0123956949,-0.1277605891,-134.4887237549,38.1317977905,64.4863891602
        2.8379499912,        0.1442364454,-0.0123956949,-0.1277605891,-135.3126983643,40.0391464233,66.6836547852
        2.8406589031,        0.1442364454,-0.0123956949,-0.1277605891,-135.3126983643,40.0391464233,66.6836547852
        2.8434398174,        0.2965801954,-0.2760675550,-0.2093035579,-130.3535919189,41.0462265015,65.4629516602
        2.8465979099,        0.2965801954,-0.2760675550,-0.2093035579,-130.3535919189,41.0462265015,65.4629516602
        2.8493130207,        0.2965801954,-0.2760675550,-0.2093035579,-122.7242050171,41.5802841187,60.5801391602
        2.8520228863,        0.2965801954,-0.4372003675,-0.1804949641,-122.7242050171,41.5802841187,60.5801391602
        2.8547329903,        0.4420880079,-0.4372003675,-0.1804949641,-114.5149765015,42.1753768921,52.4014282227
        2.8574478626,        0.4420880079,-0.4372003675,-0.1804949641,-114.5149765015,42.1753768921,52.4014282227
        2.8601579666,        0.4420880079,-0.4372003675,-0.1804949641,-108.9302597046,42.0685653687,40.7131958008
        2.8629808426,        0.5416973829,-0.5626886487,0.0607159734,-108.9302597046,42.0685653687,40.7131958008
        2.8656938076,        0.5416973829,-0.5626886487,0.0607159734,-108.0910263062,36.3312606812,25.5459594727
        2.8684558868,        0.5416973829,-0.5626886487,0.0607159734,-108.0910263062,36.3312606812,25.5459594727
        2.8711738586,        0.5416973829,-0.5626886487,0.0607159734,-120.6032333374,31.7078456879,4.0463266373
        2.8738789558,        0.4796856642,-0.8629816175,0.1910870671,-120.6032333374,31.7078456879,4.0463266373
