time, acceleration x, acceleration y, acceleration z, gyro x gyro y, gyro z
        0.0000000000,       -0.0117739439,-0.0520124584,-0.0091748312,-1.9979418516,0.1409071684,-5.9477920532
        0.0025629997,       -0.0117739439,-0.0520124584,-0.0091748312,-2.4251878262,0.3850477934,-5.3832168579
        0.0051238537,       -0.0117739439,-0.0520124584,-0.0091748312,-2.4251878262,0.3850477934,-5.3832168579
        0.0076858997,       -0.0078676939,-0.0534773022,-0.0135693625,-2.6082932949,0.6444472075,-4.5439834595
        0.0104498863,       -0.0078676939,-0.0534773022,-0.0135693625,-2.6082932949,0.6444472075,-4.5439834595
        0.0131289959,       -0.0078676939,-0.0534773022,-0.0135693625,-2.7303636074,0.3697890043,-4.4066543579
        0.0158059597,       -0.0078676939,-0.0534773022,-0.0135693625,-2.7303636074,0.3697890043,-4.4066543579
        0.0185368061,       -0.0039614439,-0.0471296459,0.0015673563,-2.7151048183,0.9343641996,-4.5134658813
        0.0212090015,       -0.0039614439,-0.0471296459,0.0015673563,-2.7151048183,0.9343641996,-4.5134658813
        0.0238878727,       -0.0039614439,-0.0471296459,0.0015673563,-2.9287278652,0.5223768950,-4.3303604126
        0.0265629292,       -0.0039614439,-0.0471296459,-0.0155224875,-2.9287278652,0.5223768950,-4.3303604126
        0.0291860104,       -0.0039614439,-0.0485944897,-0.0155224875,-2.5625169277,0.5071181059,-4.7423477173
        0.0317468643,       -0.0039614439,-0.0485944897,-0.0155224875,-2.5625169277,0.5071181059,-4.7423477173
        0.0343058109,       -0.0039614439,-0.0485944897,-0.0155224875,-2.5625169277,0.2782362700,-4.5897598267
        0.0369138718,       -0.0039614439,-0.0485944897,0.0005907938,-2.6998460293,0.2782362700,-4.5897598267
        0.0395507812,       -0.0049380064,-0.0544538647,0.0005907938,-2.6998460293,0.2782362700,-4.3303604126
        0.0421168804,       -0.0049380064,-0.0544538647,0.0005907938,-2.5167405605,0.5681532621,-4.3303604126
        0.0446918011,       -0.0049380064,-0.0544538647,0.0005907938,-2.5167405605,0.5681532621,-4.3151016235
        0.0472559929,       -0.0049380064,-0.0485944897,-0.0130810812,-2.0437180996,0.1256483793,-4.3151016235
        0.0499858856,       -0.0015200377,-0.0485944897,-0.0130810812,-2.0437180996,0.1256483793,-4.3151016235
        0.0528509617,       -0.0015200377,-0.0485944897,-0.0130810812,-2.1810472012,0.0188368559,-4.2845840454
        0.0555489063,       -0.0015200377,-0.0485944897,-0.0130810812,-2.1810472012,0.0188368559,-4.2998428345
        0.0582568645,       -0.0088442564,-0.0510358959,-0.0077099875,-2.2115647793,0.2172011137,-4.2998428345
        0.0609469414,       -0.0088442564,-0.0510358959,-0.0077099875,-2.2115647793,0.2172011137,-4.1014785767
        0.0636458397,       -0.0088442564,-0.0510358959,-0.0077099875,-1.6164721251,0.0646132231,-4.1014785767
        0.0665218830,       -0.0088442564,-0.0510358959,-0.0077099875,-1.6164721251,0.0646132231,-3.6131973267
        0.0693538189,       -0.0005434752,-0.0564069897,-0.0077099875,-1.5249193907,-0.1947861910,-3.6131973267
        0.0720658302,       -0.0005434752,-0.0564069897,-0.0077099875,-1.5249193907,-0.1947861910,-3.5216445923
        0.0747649670,       -0.0005434752,-0.0564069897,-0.0077099875,-1.9521654844,-0.2863389254,-3.5216445923
        0.0774619579,       -0.0005434752,-0.0598249584,-0.0106396750,-1.9521654844,-0.2863389254,-3.5521621704
        0.0800578594,       -0.0117739439,-0.0598249584,-0.0106396750,-1.5249193907,-0.6983262300,-3.5521621704
        0.0826199055,       -0.0117739439,-0.0598249584,-0.0106396750,-1.5249193907,-0.6983262300,-3.5521621704
        0.0851860046,       -0.0117739439,-0.0598249584,-0.0106396750,-1.2197436094,-0.6830674410,-3.5063858032
        0.0877590179,       -0.0117739439,-0.0617780834,-0.0116162375,-1.2197436094,-0.6830674410,-3.0486221313
        0.0909709930,       -0.0107973814,-0.0617780834,-0.0116162375,-1.6012133360,-0.4999619722,-3.0486221313
        0.0935389996,       -0.0107973814,-0.0617780834,-0.0116162375,-1.6012133360,-0.4999619722,-3.0486221313
        0.0960948467,       -0.0107973814,-0.0617780834,-0.0116162375,-2.4099290371,-0.2100449800,-2.6976699829
        0.0987348557,       -0.0039614439,-0.0471296459,-0.0106396750,-2.4099290371,-0.2100449800,-2.6976699829
        0.1012978554,       -0.0039614439,-0.0471296459,-0.0106396750,-2.8066575527,-0.2863389254,-2.5450820923
        0.1038589478,       -0.0039614439,-0.0471296459,-0.0106396750,-2.8066575527,-0.2863389254,-2.5450820923
        0.1064188480,       -0.0039614439,-0.0471296459,-0.0106396750,-2.3336350918,-0.2253037691,-2.4840469360
        0.1089839935,       -0.0039614439,-0.0393171459,0.0015673563,-2.3336350918,-0.2253037691,-2.4840469360
        0.1115469933,       -0.0039614439,-0.0393171459,0.0015673563,-1.9674242735,-0.0879746675,-2.3162002563
        0.1141119003,       -0.0039614439,-0.0393171459,0.0015673563,-1.9674242735,-0.0879746675,-2.3162002563
        0.1167969704,       -0.0039614439,-0.0393171459,0.0015673563,-2.1810472012,0.3697890043,-2.1941299438
        0.1193718910,       -0.0117739439,-0.0593366772,-0.0003857687,-2.1810472012,0.3697890043,-2.1941299438
        0.1219389439,       -0.0117739439,-0.0593366772,-0.0003857687,-2.6388108730,0.4003065825,-1.5227432251
        0.1245009899,       -0.0117739439,-0.0593366772,-0.0003857687,-2.6388108730,0.4003065825,-1.5227432251
        0.1270608902,       -0.0117739439,-0.0593366772,-0.0003857687,-2.6388108730,0.0035780668,-1.1870498657
        0.1296658516,       -0.0059145689,-0.0573835522,-0.0067334250,-2.7456223965,0.0035780668,-1.1870498657
        0.1322209835,       -0.0059145689,-0.0573835522,-0.0067334250,-2.7456223965,0.0035780668,-1.1717910767
        0.1347827911,       -0.0059145689,-0.0573835522,-0.0067334250,-2.9897630215,0.1103895903,-1.1717910767
        0.1373429298,       -0.0059145689,-0.0573835522,-0.0067334250,-2.9897630215,0.1103895903,-1.0192031860
        0.1400330067,       -0.0020083189,-0.0554304272,0.0079150125,-2.9592454433,0.1561659575,-1.0192031860
        0.1426019669,       -0.0020083189,-0.0554304272,0.0079150125,-2.9592454433,0.1561659575,-1.0192031860
        0.1451640129,       -0.0020083189,-0.0554304272,0.0079150125,-2.8371751308,0.0798720121,-0.9276503921
        0.1477229595,       -0.0020083189,-0.0554304272,0.0005907938,-2.8371751308,0.0798720121,-0.9276503921
        0.1505699158,       -0.0039614439,-0.0441999584,0.0005907938,-2.8829514980,0.5834120512,-0.9581679702
        0.1532588005,       -0.0039614439,-0.0441999584,0.0005907938,-2.8829514980,0.5834120512,-0.9581679702
        0.1559419632,       -0.0039614439,-0.0441999584,0.0005907938,-2.7913987637,0.9343641996,-1.1565322876
        0.1588099003,       -0.0064028502,-0.0417585522,0.0025439188,-2.7913987637,0.9343641996,-1.1565322876
        0.1615118980,       -0.0064028502,-0.0417585522,0.0025439188,-2.6998460293,0.7970350981,-0.8818740249
        0.1642029285,       -0.0064028502,-0.0417585522,0.0025439188,-2.6998460293,0.7970350981,-0.8818740249
        0.1668918133,       -0.0064028502,-0.0417585522,0.0025439188,-2.4709641933,0.3850477934,-0.8055800796
        0.1697080135,       -0.0049380064,-0.0539655834,-0.0072217062,-2.4709641933,0.3850477934,-0.8055800796
        0.1723959446,       -0.0049380064,-0.0539655834,-0.0072217062,-2.6235520840,0.5528944731,-0.8513564467
        0.1750779152,       -0.0049380064,-0.0539655834,-0.0072217062,-2.6235520840,0.5528944731,-0.8513564467
        0.1777658463,       -0.0049380064,-0.0539655834,-0.0072217062,-2.5167405605,0.4003065825,-0.8513564467
        0.1805469990,        0.0009213686,-0.0564069897,-0.0091748312,-2.5167405605,0.4003065825,-0.8513564467
        0.1831209660,        0.0009213686,-0.0564069897,-0.0091748312,-1.6927660704,0.3392714262,-0.9581679702
        0.1856868267,        0.0009213686,-0.0564069897,-0.0091748312,-1.6927660704,0.3392714262,-0.9581679702
        0.1882758141,        0.0009213686,-0.0564069897,0.0010790750,-1.4638842344,0.1561659575,-1.1717910767
        0.1911849976,       -0.0049380064,-0.0461530834,0.0010790750,-1.4638842344,0.1561659575,-1.1717910767
        0.1938748360,       -0.0049380064,-0.0461530834,0.0010790750,-2.1810472012,0.4460829496,-1.0497207642
        0.1965579987,       -0.0049380064,-0.0461530834,0.0010790750,-2.1810472012,0.4460829496,-1.0497207642
        0.1992750168,       -0.0010317564,-0.0427351147,-0.0106396750,-1.9521654844,0.2019423246,-1.1870498657
        0.2019720078,       -0.0010317564,-0.0427351147,-0.0106396750,-1.9521654844,0.2019423246,-1.1870498657
        0.2047989368,       -0.0010317564,-0.0427351147,-0.0106396750,-1.6164721251,-0.1795274019,-1.1717910767
        0.2083299160,       -0.0010317564,-0.0427351147,-0.0052685812,-1.6164721251,-0.1795274019,-1.1260147095
        0.2109019756,       -0.0093325377,-0.0427351147,-0.0052685812,-1.3112963438,0.1256483793,-1.1260147095
        0.2134659290,       -0.0093325377,-0.0427351147,-0.0052685812,-1.3112963438,0.1256483793,-1.3396377563
        0.2160258293,       -0.0093325377,-0.0427351147,-0.0052685812,-2.0742356777,0.1714247465,-1.3396377563
        0.2186880112,       -0.0093325377,-0.0427351147,0.0030322000,-2.0742356777,0.1714247465,-1.3396377563
        0.2212529182,       -0.0073794127,-0.0417585522,0.0030322000,-1.8300951719,0.4308241606,-1.3091201782
        0.2238118649,       -0.0073794127,-0.0417585522,0.0030322000,-1.8300951719,0.4308241606,-1.3091201782
        0.2263748646,       -0.0073794127,-0.0417585522,0.0030322000,-1.7995775938,-0.0727158785,-1.0497207642
        0.2289409637,       -0.0073794127,-0.0505476147,-0.0013623312,-1.7995775938,-0.0727158785,-1.0497207642
        0.2315049171,       -0.0044497252,-0.0505476147,-0.0013623312,-1.4486254454,0.3697890043,-1.2786026001
        0.2340688705,       -0.0044497252,-0.0505476147,-0.0013623312,-1.4486254454,0.3697890043,-1.2786026001
        0.2366290092,       -0.0044497252,-0.0505476147,-0.0013623312,-1.3265551329,0.5834120512,-1.0497207642
        0.2391979694,       -0.0044497252,-0.0598249584,0.0001025125,-1.3265551329,0.5834120512,-1.0497207642
        0.2417628765,        0.0004330873,-0.0598249584,0.0001025125,-1.7538012266,0.3697890043,-0.9276503921
        0.2444260120,        0.0004330873,-0.0598249584,0.0001025125,-1.7538012266,0.3697890043,-0.9276503921
        0.2469890118,        0.0004330873,-0.0598249584,0.0001025125,-1.4028490782,0.2782362700,-0.7445449233
        0.2495508194,       -0.0039614439,-0.0559187084,-0.0062451437,-1.4028490782,0.2782362700,-0.7445449233
        0.2521159649,       -0.0039614439,-0.0559187084,-0.0062451437,-1.4028490782,0.9038466215,-0.5461806655
        0.2546799183,       -0.0039614439,-0.0559187084,-0.0062451437,-1.2960375547,0.9038466215,-0.5461806655
        0.2572379112,       -0.0039614439,-0.0559187084,-0.0062451437,-1.2960375547,0.9038466215,-0.3783339858
        0.2599878311,        0.0004330873,-0.0505476147,-0.0091748312,-0.7314623594,0.9343641996,-0.3783339858
        0.2625567913,        0.0004330873,-0.0505476147,-0.0091748312,-0.7314623594,0.9343641996,-0.6529921889
        0.2651188374,        0.0004330873,-0.0505476147,-0.0091748312,-0.3957689703,0.3545302153,-0.6529921889
        0.2676858902,        0.0004330873,-0.0505476147,-0.0091748312,-0.3957689703,0.3545302153,-0.5156630874
        0.2704839706,       -0.0039614439,-0.0378523022,0.0005907938,-0.3499926031,1.0259169340,-0.5156630874
        0.2731850147,       -0.0039614439,-0.0378523022,0.0005907938,-0.3499926031,1.0259169340,-0.5156630874
        0.2758829594,       -0.0039614439,-0.0378523022,0.0005907938,-0.6856859922,0.9801405668,-0.5461806655
        0.2785658836,       -0.0039614439,-0.0378523022,0.0005907938,-0.6856859922,0.9801405668,-0.5461806655
        0.2811248302,       -0.0024966002,-0.0417585522,-0.0008740500,-0.3042162359,0.9648817778,-0.5004042983
        0.2836899757,       -0.0024966002,-0.0417585522,-0.0008740500,-0.3042162359,0.9648817778,-0.5004042983
        0.2862539291,       -0.0024966002,-0.0417585522,-0.0008740500,-0.0753343999,0.7970350981,-0.8055800796
        0.2888758183,       -0.0024966002,-0.0417585522,-0.0008740500,-0.0753343999,0.7970350981,-0.8055800796
        0.2915768623,       -0.0054262877,-0.0573835522,-0.0018506125,-0.6856859922,0.9801405668,-0.6224746108
        0.2942719460,       -0.0054262877,-0.0573835522,-0.0018506125,-0.6856859922,0.9801405668,-0.6224746108
        0.2969708443,       -0.0054262877,-0.0573835522,-0.0018506125,-0.6093920469,1.1174696684,-0.5919570327
        0.2996737957,       -0.0054262877,-0.0549421459,-0.0067334250,-0.6093920469,1.1174696684,-0.5919570327
        0.3023748398,       -0.0015200377,-0.0549421459,-0.0067334250,-0.9450854063,0.9648817778,-0.6835097671
        0.3050749302,       -0.0015200377,-0.0549421459,-0.0067334250,-0.9450854063,0.9648817778,-0.6835097671
        0.3078908920,       -0.0015200377,-0.0549421459,-0.0067334250,-1.1281908751,0.9648817778,-0.4851455092
        0.3105909824,       -0.0088442564,-0.0471296459,-0.0047803000,-1.1281908751,0.9648817778,-0.4851455092
        0.3132867813,       -0.0088442564,-0.0471296459,-0.0047803000,-0.7772387266,0.6902235746,-0.1799697280
        0.3159828186,       -0.0088442564,-0.0471296459,-0.0047803000,-0.7772387266,0.6902235746,-0.1799697280
        0.3187279701,       -0.0088442564,-0.0471296459,-0.0047803000,-0.2126635015,0.4460829496,-0.4546279311
        0.3214278221,       -0.0059145689,-0.0515241772,0.0030322000,-0.2126635015,0.4460829496,-0.4546279311
        0.3242239952,       -0.0059145689,-0.0515241772,0.0030322000,-0.4262865484,0.4460829496,-0.5004042983
        0.3269238472,       -0.0059145689,-0.0515241772,0.0030322000,-0.4262865484,0.4460829496,-0.5004042983
        0.3298189640,       -0.0059145689,-0.0515241772,0.0005907938,-0.6551684141,0.7512587309,-0.5004042983
        0.3323860168,       -0.0044497252,-0.0476179272,0.0005907938,-0.6551684141,0.7512587309,-0.5004042983
        0.3349559307,       -0.0044497252,-0.0476179272,0.0005907938,-0.4568041265,0.9953993559,0.0641708970
        0.3375179768,       -0.0044497252,-0.0476179272,0.0005907938,-0.4568041265,0.9953993559,0.0641708970
        0.3402140141,       -0.0044497252,-0.0407819897,-0.0081982687,-0.9756029844,0.7054823637,-0.0121230483
        0.3429169655,       -0.0132387877,-0.0407819897,-0.0081982687,-0.9756029844,0.7054823637,-0.0121230483
        0.3456189632,       -0.0132387877,-0.0407819897,-0.0081982687,-1.0671557188,0.7665175200,-0.5156630874
        0.3483338356,       -0.0132387877,-0.0407819897,-0.0081982687,-1.0671557188,0.7665175200,-0.5156630874
        0.3510329723,       -0.0083559752,-0.0476179272,0.0059618875,-0.3499926031,0.8733290434,-0.2257460952
        0.3537328243,       -0.0083559752,-0.0476179272,0.0059618875,-0.3499926031,0.8733290434,-0.2257460952
        0.3564360142,       -0.0083559752,-0.0476179272,0.0059618875,-0.1821459234,0.3545302153,0.0031357408
        0.3590829372,       -0.0083559752,-0.0476179272,0.0059618875,-0.1821459234,0.3545302153,0.0031357408
        0.3616478443,       -0.0005434752,-0.0427351147,-0.0047803000,-0.3499926031,0.2629774809,0.1557236314
        0.3642129898,       -0.0005434752,-0.0427351147,-0.0047803000,-0.3499926031,0.2629774809,0.1557236314
        0.3667848110,       -0.0005434752,-0.0427351147,-0.0047803000,-0.5178393126,0.5071181059,0.1557236314
        0.3693628311,       -0.0005434752,-0.0427351147,-0.0047803000,-0.5178393126,0.5071181059,0.1557236314
        0.3720288277,       -0.0020083189,-0.0525007397,-0.0062451437,-0.5178393126,0.6597059965,0.0794296861
        0.3745899200,       -0.0020083189,-0.0525007397,-0.0062451437,-0.7619799376,0.6597059965,0.0794296861
        0.3771548271,       -0.0020083189,-0.0525007397,-0.0062451437,-0.7619799376,0.4918593168,0.4761582017
        0.3798317909,       -0.0020083189,-0.0525007397,-0.0062451437,0.3061353266,0.4918593168,0.4761582017
        0.3823988438,       -0.0112856627,-0.0515241772,-0.0028271750,0.3061353266,0.4918593168,0.6287460923
        0.3849678040,       -0.0112856627,-0.0515241772,-0.0028271750,0.7944165468,0.2782362700,0.6287460923
        0.3875370026,       -0.0112856627,-0.0515241772,-0.0028271750,0.7944165468,0.2782362700,0.7813339829
        0.3903539181,       -0.0112856627,-0.0515241772,0.0010790750,1.2064038515,0.2477186918,0.7813339829
        0.3930439949,       -0.0073794127,-0.0481062084,0.0010790750,1.2064038515,0.2477186918,0.7965927720
        0.3959059715,       -0.0073794127,-0.0481062084,0.0010790750,1.6489087343,0.1561659575,0.7965927720
        0.3986809254,       -0.0073794127,-0.0481062084,0.0010790750,1.6489087343,0.1561659575,0.8118515611
        0.4013450146,       -0.0088442564,-0.0490827709,-0.0096631125,1.8777905703,0.3087538481,0.8118515611
        0.4048559666,       -0.0088442564,-0.0490827709,-0.0096631125,2.2440016270,0.2324599028,1.0712509155
        0.4074208736,       -0.0088442564,-0.0490827709,-0.0096631125,2.2440016270,0.2324599028,1.0712509155
        0.4100728035,       -0.0088442564,-0.0490827709,-0.0096631125,2.2440016270,0.2324599028,1.2696151733
        0.4126288891,       -0.0054262877,-0.0456648022,0.0015673563,2.9153883457,0.2324599028,1.2696151733
        0.4151909351,       -0.0054262877,-0.0456648022,0.0015673563,2.9153883457,0.2324599028,1.4679794312
        0.4177498817,       -0.0054262877,-0.0456648022,0.0015673563,2.9153883457,-0.0116807222,1.4679794312
        0.4203178883,       -0.0054262877,-0.0456648022,-0.0091748312,2.9153883457,-0.0116807222,1.6968612671
        0.4228739738,       -0.0049380064,-0.0412702709,-0.0091748312,2.9459059238,0.2782362700,1.6968612671
        0.4254310131,       -0.0049380064,-0.0412702709,-0.0091748312,2.9459059238,0.2782362700,1.6968612671
        0.4279890060,       -0.0049380064,-0.0412702709,-0.0091748312,2.9459059238,0.1409071684,1.7121200562
        0.4305558205,       -0.0049380064,-0.0412702709,-0.0042920187,2.9459059238,0.1409071684,1.7121200562
        0.4331128597,       -0.0049380064,-0.0461530834,-0.0042920187,3.3426344395,0.0035780668,2.1546249390
        0.4356758595,       -0.0049380064,-0.0461530834,-0.0042920187,3.3426344395,0.0035780668,2.1546249390
        0.4384739399,       -0.0049380064,-0.0461530834,-0.0042920187,3.7241041660,-0.0879746675,2.3072128296
        0.4410378933,       -0.0049380064,-0.0490827709,0.0020556375,3.7241041660,-0.0879746675,2.3072128296
        0.4435949326,       -0.0098208189,-0.0490827709,0.0020556375,3.4036695957,-0.2253037691,2.6123886108
        0.4461569786,       -0.0098208189,-0.0490827709,0.0020556375,3.4036695957,-0.2253037691,2.6123886108
        0.4488759041,       -0.0098208189,-0.0490827709,0.0020556375,3.3426344395,-0.7593613863,2.9938583374
        0.4514458179,       -0.0098208189,-0.0544538647,-0.0042920187,3.3426344395,-0.7593613863,2.9938583374
        0.4540028572,       -0.0064028502,-0.0544538647,-0.0042920187,2.7628004551,-0.4541856050,2.9785995483
        0.4565689564,       -0.0064028502,-0.0544538647,-0.0042920187,2.7628004551,-0.4541856050,2.9785995483
        0.4592978954,       -0.0064028502,-0.0544538647,-0.0042920187,3.0679762363,-0.2405625582,3.1922225952
        0.4619917870,       -0.0044497252,-0.0539655834,0.0044970438,3.0679762363,-0.2405625582,3.1922225952
        0.4646799564,       -0.0044497252,-0.0539655834,0.0044970438,3.3578932285,-0.2558213472,3.2990341187
        0.4673759937,       -0.0044497252,-0.0539655834,0.0044970438,3.3578932285,-0.2558213472,3.2990341187
        0.4700789452,       -0.0044497252,-0.0539655834,0.0044970438,3.6630690098,-0.3473740816,4.0772323608
        0.4727768898,       -0.0073794127,-0.0476179272,-0.0086865500,3.6630690098,-0.3473740816,4.0772323608
        0.4754679203,       -0.0073794127,-0.0476179272,-0.0086865500,4.6701488495,-0.3626328707,4.4434432983
        0.4781639576,       -0.0073794127,-0.0476179272,-0.0086865500,4.6701488495,-0.3626328707,4.4434432983
        0.4807288647,       -0.0073794127,-0.0476179272,-0.0086865500,4.6701488495,-0.3931504488,4.6570663452
        0.4832949638,       -0.0054262877,-0.0549421459,0.0035204813,5.3262767792,-0.3931504488,4.6570663452
        0.4858608246,       -0.0054262877,-0.0549421459,0.0035204813,5.3262767792,-0.3931504488,4.9469833374
        0.4884619713,       -0.0054262877,-0.0549421459,0.0035204813,6.8368968964,-0.2100449800,4.9469833374
        0.4911599159,       -0.0054262877,-0.0549421459,0.0079150125,6.8368968964,-0.2100449800,5.3284530640
        0.4938609600,       -0.0156801939,-0.0554304272,0.0079150125,8.6221752167,-0.0879746675,5.3284530640
        0.4965538979,       -0.0156801939,-0.0554304272,0.0079150125,8.6221752167,-0.0879746675,5.4657821655
        0.4993519783,       -0.0156801939,-0.0554304272,0.0079150125,9.5529613495,0.2172011137,5.4657821655
        0.5021538734,       -0.0151919127,-0.0529890209,-0.0008740500,9.5529613495,0.2172011137,5.9540634155
        0.5048398972,       -0.0151919127,-0.0529890209,-0.0008740500,9.7513256073,0.0340956450,5.9540634155
        0.5075259209,       -0.0151919127,-0.0529890209,-0.0008740500,9.7513256073,0.0340956450,6.2744979858
        0.5103828907,       -0.0151919127,-0.0529890209,-0.0008740500,10.0870189667,0.1256483793,6.2744979858
        0.5130767822,       -0.0029848814,-0.0315046459,-0.0023388937,10.0870189667,0.3087538481,6.2439804077
        0.5159637928,       -0.0029848814,-0.0315046459,-0.0023388937,10.1785717010,0.3087538481,6.2439804077
        0.5188498497,       -0.0029848814,-0.0315046459,-0.0023388937,10.1785717010,0.3087538481,6.2744979858
        0.5215539932,       -0.0029848814,-0.0315046459,-0.0038037375,10.2396068573,0.3087538481,6.2744979858
        0.5242547989,       -0.0054262877,-0.0285749584,-0.0038037375,10.2396068573,0.2477186918,6.4423446655
        0.5269589424,       -0.0054262877,-0.0285749584,-0.0038037375,10.1480541229,0.2477186918,6.4423446655
        0.5295739174,       -0.0054262877,-0.0285749584,-0.0038037375,10.1480541229,0.2477186918,6.5338973999
        0.5321469307,       -0.0054262877,-0.0158796459,0.0049853250,10.2548656464,0.0951308012,6.5338973999
        0.5347199440,       -0.0034731627,-0.0158796459,0.0049853250,10.2548656464,0.0951308012,5.9998397827
        0.5372929573,       -0.0034731627,-0.0158796459,0.0049853250,10.4684886932,0.2782362700,5.9998397827
        0.5399928093,       -0.0034731627,-0.0158796459,0.0049853250,10.4684886932,0.2782362700,5.5420761108
        0.5426928997,        0.0038510561,-0.0075788647,0.0054736063,10.2548656464,0.7665175200,5.5420761108
        0.5453908443,        0.0038510561,-0.0075788647,0.0054736063,10.2548656464,0.7665175200,4.9317245483
        0.5481269360,        0.0038510561,-0.0075788647,0.0054736063,9.4003734589,0.4155653715,4.9317245483
        0.5506949425,        0.0038510561,-0.0075788647,0.0054736063,9.4003734589,0.4155653715,4.9317245483
        0.5532639027,        0.0067807436,-0.0046491772,-0.0008740500,8.8357982635,0.2019423246,4.3366317749
        0.5558300018,        0.0067807436,-0.0046491772,-0.0008740500,8.8357982635,0.2019423246,4.3366317749
        0.5584018230,        0.0067807436,-0.0046491772,-0.0008740500,8.8968334198,0.6139296293,3.7110214233
        0.5609719753,        0.0067807436,-0.0046491772,-0.0008740500,8.8968334198,0.6139296293,3.7110214233
        0.5635449886,       -0.0064028502,-0.0178327709,-0.0023388937,9.0951976776,0.8122938871,3.2685165405
        0.5662147999,       -0.0064028502,-0.0178327709,-0.0023388937,9.0951976776,0.8122938871,3.2685165405
        0.5689067841,       -0.0064028502,-0.0178327709,-0.0023388937,8.6374340057,0.8122938871,2.0935897827
        0.5714788437,       -0.0064028502,-0.0178327709,-0.0023388937,8.6374340057,0.8122938871,2.0935897827
        0.5740478039,       -0.0064028502,-0.0168562084,0.0001025125,8.2559642792,0.6902235746,2.3224716187
        0.5766198635,       -0.0064028502,-0.0168562084,0.0001025125,8.2559642792,0.6902235746,2.3224716187
        0.5792748928,       -0.0064028502,-0.0168562084,0.0001025125,7.9202709198,0.6444472075,1.9257431030
        0.5818448067,       -0.0064028502,-0.0168562084,0.0001025125,7.9202709198,0.6444472075,1.9257431030
        0.5844199657,       -0.0064028502,-0.0246687084,-0.0057568625,8.1186351776,0.4308241606,1.3764266968
        0.5869820118,       -0.0064028502,-0.0246687084,-0.0057568625,8.1186351776,0.4308241606,1.3764266968
        0.5896489620,       -0.0064028502,-0.0246687084,-0.0057568625,8.1186351776,0.2172011137,0.8881455064
        0.5923488140,       -0.0064028502,-0.0246687084,-0.0018506125,8.5306224823,0.2172011137,0.8881455064
        0.5950438976,       -0.0093325377,-0.0319929272,-0.0018506125,8.5306224823,0.1103895903,0.9796982408
        0.5977377892,       -0.0093325377,-0.0319929272,-0.0018506125,8.7595043182,0.1103895903,0.9796982408
        0.6004488468,       -0.0093325377,-0.0319929272,-0.0018506125,8.7595043182,0.3697890043,0.7813339829
        0.6031448841,       -0.0122622252,-0.0471296459,-0.0145459250,8.1033763885,0.3697890043,0.7813339829
        0.6058399677,       -0.0122622252,-0.0471296459,-0.0145459250,8.1033763885,0.3697890043,0.9796982408
        0.6085188389,       -0.0122622252,-0.0471296459,-0.0145459250,7.2336254120,0.3697890043,0.9796982408
        0.6110827923,       -0.0122622252,-0.0471296459,-0.0145459250,7.2336254120,0.3697890043,1.2543563843
        0.6136479378,       -0.0068911314,-0.0388288647,-0.0106396750,6.5774974823,0.1103895903,1.2543563843
        0.6162118912,       -0.0068911314,-0.0388288647,-0.0106396750,6.5774974823,0.1103895903,1.7121200562
        0.6188869476,       -0.0068911314,-0.0388288647,-0.0106396750,5.7687816620,0.1866835356,1.7121200562
        0.6214528084,       -0.0068911314,-0.0388288647,-0.0106396750,5.7687816620,0.1866835356,1.7121200562
        0.6240170002,       -0.0034731627,-0.0144148022,-0.0013623312,5.0363597870,0.1409071684,1.7731552124
        0.6265788078,       -0.0034731627,-0.0144148022,-0.0013623312,5.0363597870,0.1409071684,1.7731552124
        0.6293888092,       -0.0034731627,-0.0144148022,-0.0013623312,4.3649730682,0.1409071684,1.4374618530
        0.6319608688,       -0.0034731627,-0.0144148022,-0.0013623312,4.3649730682,0.1409071684,1.4374618530
        0.6347467899,        0.0009213686,-0.0105085522,0.0040087625,4.4107494354,-0.0727158785,1.1628036499
        0.6373169422,        0.0009213686,-0.0105085522,0.0040087625,4.4107494354,-0.0727158785,1.1628036499
        0.6401479244,        0.0009213686,-0.0105085522,0.0040087625,4.2123851776,0.2934950590,0.9034042954
        0.6428449154,        0.0009213686,-0.0105085522,0.0010790750,4.2123851776,0.2934950590,0.9034042954
        0.6455459595,        0.0067807436,-0.0173444897,0.0010790750,3.6325514317,0.2477186918,0.8576279283
        0.6482529640,        0.0067807436,-0.0173444897,0.0010790750,3.6325514317,0.2477186918,0.8576279283
        0.6509590149,        0.0067807436,-0.0173444897,0.0010790750,3.4036695957,-0.1184922457,0.6287460923
        0.6536588669,        0.0004330873,-0.0139265209,0.0044970438,3.4036695957,-0.1184922457,0.6287460923
        0.6563549042,        0.0004330873,-0.0139265209,0.0044970438,2.7170240879,0.1866835356,0.4761582017
        0.6590650082,        0.0004330873,-0.0139265209,0.0044970438,2.7170240879,0.1866835356,0.4761582017
        0.6617619991,        0.0004330873,-0.0139265209,0.0044970438,2.1677076817,0.2782362700,0.1404648423
        0.6644599438,       -0.0029848814,-0.0153913647,-0.0003857687,2.1677076817,0.2782362700,0.1404648423
        0.6671588421,       -0.0029848814,-0.0153913647,-0.0003857687,1.8014966249,0.1409071684,-0.3020400405
        0.6697688103,       -0.0029848814,-0.0153913647,-0.0003857687,1.8014966249,0.1409071684,-0.3020400405
        0.6723318100,       -0.0029848814,-0.0153913647,-0.0003857687,1.5420972109,0.1866835356,-0.9123916030
        0.6748988628,       -0.0005434752,-0.0109968334,0.0025439188,1.5420972109,0.1866835356,-0.9123916030
        0.6774678230,       -0.0005434752,-0.0109968334,0.0025439188,1.0995923281,0.3850477934,-0.8666152358
        0.6800878048,       -0.0005434752,-0.0109968334,0.0025439188,1.0995923281,0.3850477934,-0.8666152358
        0.6826570034,       -0.0005434752,-0.0109968334,0.0025439188,0.4129468501,0.0951308012,-0.9123916030
        0.6852219105,        0.0121518373,-0.0051374584,-0.0086865500,0.4129468501,0.0951308012,-0.9123916030
        0.6877889633,        0.0121518373,-0.0051374584,-0.0086865500,0.1382886469,-0.0421983004,-0.9123916030
        0.6904098988,        0.0121518373,-0.0051374584,-0.0086865500,0.1382886469,-0.0421983004,-0.9123916030
        0.6930868626,        0.0121518373,-0.0051374584,-0.0106396750,0.1382886469,0.2172011137,-1.5227432251
        0.6956617832,       -0.0015200377,-0.0232038647,-0.0106396750,0.8707104921,0.2172011137,-1.5227432251
        0.6983809471,       -0.0015200377,-0.0232038647,-0.0106396750,0.8707104921,0.0035780668,-1.4159317017
        0.7010898590,       -0.0015200377,-0.0232038647,-0.0106396750,0.8707104921,0.0035780668,-1.4159317017
        0.7037858963,       -0.0015200377,-0.0310163647,-0.0047803000,0.8707104921,0.1409071684,-1.1412734985
        0.7064759731,        0.0028744936,-0.0310163647,-0.0047803000,-0.1516283453,0.1409071684,-1.1412734985
        0.7091858387,        0.0028744936,-0.0310163647,-0.0047803000,-0.1516283453,0.3850477934,-0.9886855483
        0.7118859291,        0.0028744936,-0.0310163647,-0.0047803000,-0.7009447813,0.3850477934,-0.9886855483
        0.7145857811,       -0.0024966002,-0.0212507397,-0.0072217062,-0.7009447813,0.3850477934,-1.2023086548
        0.7172858715,       -0.0024966002,-0.0212507397,-0.0072217062,-0.5636156797,0.4155653715,-1.2023086548
        0.7199938297,       -0.0024966002,-0.0212507397,-0.0072217062,-0.5636156797,0.4155653715,-1.1260147095
        0.7226958275,       -0.0024966002,-0.0212507397,-0.0072217062,-0.2584398687,-0.0116807222,-1.1260147095
        0.7253940105,       -0.0010317564,-0.0295515209,-0.0057568625,-0.2584398687,-0.0116807222,-0.9886855483
        0.7281279564,       -0.0010317564,-0.0295515209,-0.0057568625,-0.2279222906,-0.0727158785,-0.9886855483
        0.7306938171,       -0.0010317564,-0.0295515209,-0.0057568625,-0.2279222906,-0.0727158785,-0.7750625014
        0.7332630157,       -0.0010317564,-0.0295515209,-0.0057568625,0.0467359126,-0.4236680269,-0.7750625014
        0.7358260155,       -0.0054262877,-0.0251569897,0.0015673563,0.0467359126,-0.4236680269,-0.7750625014
        0.7384459972,       -0.0054262877,-0.0251569897,0.0015673563,-0.5941332579,-0.6220322847,-0.9123916030
        0.7411448956,       -0.0054262877,-0.0251569897,0.0015673563,-0.5941332579,-0.6220322847,-0.9123916030
        0.7438428402,       -0.0054262877,-0.0251569897,0.0005907938,-0.9756029844,-0.4389268160,-1.1260147095
        0.7465388775,       -0.0010317564,-0.0124616772,0.0005907938,-0.9756029844,-0.4389268160,-1.1260147095
        0.7492499352,       -0.0010317564,-0.0124616772,0.0005907938,-0.7314623594,-0.1795274019,-1.0039443970
        0.7519478798,       -0.0010317564,-0.0124616772,0.0005907938,-0.7314623594,-0.1795274019,-1.0039443970
        0.7547678947,       -0.0068911314,-0.0168562084,0.0005907938,-0.4415453374,-0.2100449800,-0.9123916030
        0.7580130100,       -0.0068911314,-0.0168562084,0.0005907938,-0.4415453374,-0.2100449800,-1.1717910767
        0.7607188225,       -0.0068911314,-0.0168562084,0.0005907938,-0.3499926031,-0.1032334566,-1.1717910767
        0.7634179592,       -0.0068911314,-0.0168562084,0.0005907938,-0.3499926031,-0.1032334566,-1.0802383423
        0.7661190033,       -0.0024966002,-0.0315046459,0.0064501688,0.0162183344,-0.3626328707,-1.0802383423
        0.7688269615,       -0.0024966002,-0.0315046459,0.0064501688,0.0162183344,-0.3626328707,-1.0039443970
        0.7715229988,       -0.0024966002,-0.0315046459,0.0064501688,-0.2126635015,-0.1795274019,-1.0039443970
        0.7742218971,       -0.0024966002,-0.0315046459,0.0093798563,-0.2126635015,-0.1795274019,-0.9734267592
        0.7769169807,       -0.0029848814,-0.0261335522,0.0093798563,-0.2584398687,-0.4084092379,-0.9734267592
        0.7795469761,       -0.0029848814,-0.0261335522,0.0093798563,-0.2584398687,-0.4084092379,-1.2175674438
        0.7821118832,       -0.0029848814,-0.0261335522,0.0093798563,-0.0905931890,-0.2100449800,-1.2175674438
        0.7846748829,       -0.0029848814,-0.0222273022,0.0064501688,-0.0905931890,-0.2100449800,-1.2175674438
        0.7872419357,        0.0009213686,-0.0222273022,0.0064501688,0.7028638124,-0.0269395113,-1.2480850220
        0.7898550034,        0.0009213686,-0.0222273022,0.0064501688,0.7028638124,-0.0269395113,-1.2480850220
        0.7924230099,        0.0009213686,-0.0222273022,0.0064501688,0.9012280703,-0.2405625582,-1.6753311157
        0.7949860096,       -0.0059145689,-0.0163679272,-0.0047803000,0.9012280703,-0.2405625582,-1.6753311157
        0.7975540161,       -0.0059145689,-0.0163679272,-0.0047803000,0.9622632265,-0.3321152925,-1.6753311157
        0.8001267910,       -0.0059145689,-0.0163679272,-0.0047803000,0.9622632265,-0.3321152925,-1.6753311157
        0.8027038574,       -0.0059145689,-0.0163679272,-0.0047803000,0.5502759218,-0.6372910738,-1.7363662720
        0.8052649498,       -0.0015200377,-0.0066023022,-0.0052685812,0.5502759218,-0.6372910738,-1.7363662720
        0.8084299564,       -0.0015200377,-0.0066023022,-0.0052685812,0.4434644282,-0.6372910738,-2.5145645142
        0.8109920025,       -0.0015200377,-0.0066023022,-0.0052685812,0.4434644282,-0.6372910738,-2.5145645142
        0.8135550022,       -0.0015200377,-0.0066023022,-0.0052685812,0.9317456484,-0.7746201754,-3.1554336548
        0.8161208630,       -0.0049380064,-0.0061140209,-0.0033154562,0.9317456484,-0.7746201754,-3.1554336548
        0.8187289238,       -0.0049380064,-0.0061140209,-0.0033154562,1.8625317812,-0.7898789644,-3.6894912720
        0.8214077950,       -0.0049380064,-0.0061140209,-0.0033154562,1.8625317812,-0.7898789644,-3.6894912720
        0.8239679337,       -0.0049380064,-0.0061140209,-0.0033154562,3.0984938145,-0.9272080660,-3.6742324829
        0.8265299797,       -0.0000551939,-0.0285749584,-0.0062451437,3.0984938145,-0.9272080660,-3.6742324829
        0.8291277885,       -0.0000551939,-0.0285749584,-0.0062451437,3.0984938145,-1.1408311129,-3.5826797485
        0.8316907883,       -0.0000551939,-0.0285749584,-0.0062451437,2.9764235020,-1.1408311129,-3.5826797485
        0.8342509270,       -0.0000551939,-0.0285749584,-0.0062451437,2.9764235020,-1.1408311129,-3.5674209595
        0.8368198872,       -0.0034731627,-0.0217390209,-0.0096631125,2.5186598301,-1.1103135347,-3.5674209595
        0.8393878937,       -0.0034731627,-0.0217390209,-0.0096631125,2.5186598301,-1.1103135347,-3.6589736938
        0.8419549465,       -0.0034731627,-0.0217390209,-0.0096631125,2.0151197910,-1.0797959566,-3.6589736938
        0.8445119858,       -0.0034731627,-0.0217390209,-0.0047803000,2.0151197910,-1.0797959566,-3.6589736938
        0.8470737934,       -0.0010317564,-0.0227155834,-0.0047803000,1.5268384218,-1.5223008394,-3.6284561157
        0.8498048782,       -0.0010317564,-0.0227155834,-0.0047803000,1.5268384218,-1.5223008394,-3.6284561157
        0.8523719311,       -0.0010317564,-0.0227155834,-0.0047803000,0.8707104921,-1.8579941988,-3.8725967407
        0.8549368382,       -0.0010317564,-0.0227155834,0.0044970438,0.8707104921,-1.8579941988,-3.8725967407
        0.8575069904,       -0.0029848814,-0.0232038647,0.0044970438,0.9164868593,-1.4917832613,-3.5369033813
        0.8602828979,       -0.0029848814,-0.0232038647,0.0044970438,0.9164868593,-1.4917832613,-3.5369033813
        0.8629908562,       -0.0029848814,-0.0232038647,0.0044970438,1.0232983828,-1.3239365816,-3.4453506470
        0.8656878471,        0.0067807436,-0.0207624584,0.0074267313,1.0232983828,-1.3239365816,-3.4453506470
        0.8683888912,        0.0067807436,-0.0207624584,0.0074267313,1.0995923281,-1.6596299410,-3.6284561157
        0.8710939884,        0.0067807436,-0.0207624584,0.0074267313,1.0995923281,-1.6596299410,-3.6284561157
        0.8737897873,        0.0067807436,-0.0207624584,0.0074267313,1.4658032656,-1.5680772066,-3.5216445923
        0.8764820099,        0.0043393373,-0.0212507397,0.0059618875,1.4658032656,-1.5680772066,-3.5216445923
        0.8791358471,        0.0043393373,-0.0212507397,0.0059618875,1.5726147890,-1.4917832613,-3.3690567017
        0.8816959858,        0.0043393373,-0.0212507397,0.0059618875,1.5726147890,-1.4917832613,-3.3690567017
        0.8843688965,        0.0043393373,-0.0212507397,0.0059618875,1.9083081484,-1.4612656832,-3.0638809204
        0.8869338036,        0.0009213686,-0.0261335522,0.0005907938,1.9083081484,-1.4612656832,-3.0638809204
        0.8896088600,        0.0009213686,-0.0261335522,0.0005907938,2.2745192051,-1.5528184175,-3.1249160767
        0.8923130035,        0.0009213686,-0.0261335522,0.0005907938,2.2745192051,-1.5528184175,-3.1249160767
        0.8950078487,        0.0009213686,-0.0261335522,0.0025439188,2.5339186192,-1.0950547457,-3.4606094360
        0.8977048397,       -0.0029848814,-0.0271101147,0.0025439188,2.5339186192,-1.0950547457,-3.4606094360
        0.9004168510,       -0.0029848814,-0.0271101147,0.0025439188,2.6559889317,-0.4084092379,-3.1096572876
        0.9031147957,       -0.0029848814,-0.0271101147,0.0025439188,2.6559889317,-0.4084092379,-3.1096572876
        0.9058167934,       -0.0029848814,-0.0393171459,0.0054736063,2.6865065098,-0.9119492769,-3.0028457642
        0.9085609913,       -0.0132387877,-0.0393171459,0.0054736063,2.6865065098,-0.9119492769,-3.0028457642
        0.9112498760,       -0.0132387877,-0.0393171459,0.0054736063,2.2440016270,-0.9424668550,-2.8197402954
        0.9139637947,       -0.0132387877,-0.0393171459,0.0054736063,2.2440016270,-0.9424668550,-2.8197402954
        0.9167108536,       -0.0073794127,-0.0422468334,0.0069384500,2.4271070957,-1.1255723238,-2.4230117798
        0.9198248386,       -0.0073794127,-0.0422468334,0.0069384500,2.4271070957,-1.1255723238,-2.4230117798
        0.9225249290,       -0.0073794127,-0.0422468334,0.0069384500,1.8014966249,-0.8356553316,-2.0110244751
        0.9252228737,       -0.0073794127,-0.0422468334,0.0069384500,1.8014966249,-0.8356553316,-2.0110244751
        0.9279367924,       -0.0005434752,-0.0212507397,0.0054736063,1.5726147890,-0.6983262300,-1.8889541626
        0.9305059910,       -0.0005434752,-0.0212507397,0.0054736063,1.5726147890,-0.6983262300,-1.8889541626
        0.9330728054,       -0.0005434752,-0.0212507397,0.0054736063,1.7709790468,-1.0187608004,-1.9042129517
        0.9356420040,       -0.0005434752,-0.0212507397,0.0118212625,1.7709790468,-1.0187608004,-1.9042129517
        0.9382348061,       -0.0024966002,-0.0295515209,0.0118212625,2.0151197910,-0.9729844332,-1.9347305298
        0.9409379959,       -0.0024966002,-0.0295515209,0.0118212625,2.0151197910,-0.9729844332,-1.9347305298
        0.9436278343,       -0.0024966002,-0.0295515209,0.0118212625,2.2897779942,-0.8356553316,-2.0873184204
        0.9463229179,       -0.0024966002,-0.0192976147,-0.0003857687,2.2897779942,-0.8356553316,-2.0873184204
        0.9491000175,       -0.0049380064,-0.0192976147,-0.0003857687,2.6254713535,-0.8814316988,-1.9194717407
        0.9516639709,       -0.0049380064,-0.0192976147,-0.0003857687,2.6254713535,-0.8814316988,-1.9194717407
        0.9542288780,       -0.0049380064,-0.0192976147,-0.0003857687,2.6254713535,-0.6983262300,-1.7974014282
        0.9567949772,       -0.0068911314,-0.0305280834,0.0079150125,2.6559889317,-0.6983262300,-1.7974014282
        0.9593667984,       -0.0068911314,-0.0305280834,0.0079150125,2.6559889317,-0.6983262300,-1.7974014282
        0.9619379044,       -0.0068911314,-0.0305280834,0.0079150125,2.8543531895,-0.5915147066,-1.7974014282
        0.9645059109,       -0.0068911314,-0.0305280834,0.0079150125,2.8543531895,-0.5915147066,-1.7974014282
        0.9670720100,       -0.0098208189,-0.0290632397,0.0040087625,2.5034010410,-0.5609971285,-1.6448135376
        0.9697999954,       -0.0098208189,-0.0290632397,0.0040087625,2.5034010410,-0.5609971285,-1.6448135376
        0.9723668098,       -0.0098208189,-0.0290632397,0.0040087625,2.6559889317,-0.5304795504,-2.1178359985
        0.9749298096,       -0.0098208189,-0.0290632397,0.0040087625,2.6559889317,-0.5304795504,-2.1178359985
        0.9774968624,       -0.0000551939,-0.0280866772,0.0015673563,1.9693433046,-0.5915147066,-1.5074844360
        0.9801709652,       -0.0000551939,-0.0280866772,0.0015673563,1.9693433046,-0.5915147066,-1.5074844360
        0.9827418327,       -0.0000551939,-0.0280866772,0.0015673563,1.8167554140,-0.4236680269,-0.9886855483
        0.9853088856,       -0.0000551939,-0.0280866772,0.0015673563,1.8167554140,-0.4236680269,-0.9886855483
        0.9878818989,       -0.0044497252,-0.0222273022,0.0010790750,1.7709790468,-0.5915147066,-1.1565322876
        0.9905807972,       -0.0044497252,-0.0222273022,0.0010790750,1.7709790468,-0.5915147066,-1.1565322876
        0.9932799339,       -0.0044497252,-0.0222273022,0.0010790750,1.7709790468,-0.3778916597,-1.0649795532
        0.9959728718,       -0.0044497252,-0.0222273022,0.0040087625,1.7709790468,-0.3778916597,-1.0649795532
        0.9986789227,       -0.0020083189,-0.0295515209,0.0040087625,2.0303785801,-0.2710801363,-1.1870498657
        1.0013768673,       -0.0020083189,-0.0295515209,0.0040087625,2.0303785801,-0.2710801363,-1.1870498657
        1.0040788651,       -0.0020083189,-0.0295515209,0.0040087625,2.7933180332,-0.3321152925,-1.1107559204
        1.0067799091,       -0.0020083189,-0.0305280834,0.0176806375,2.7933180332,-0.3321152925,-1.1107559204
        1.0094819069,       -0.0044497252,-0.0305280834,0.0176806375,2.4118483067,-0.0421983004,-0.7750625014
        1.0122849941,       -0.0044497252,-0.0305280834,0.0176806375,2.4118483067,-0.0421983004,-0.7750625014
        1.0149788857,       -0.0044497252,-0.0305280834,0.0176806375,2.1829664707,-0.1490098238,-0.6682509780
        1.0176718235,        0.0023862123,-0.0315046459,0.0074267313,2.1829664707,-0.1490098238,-0.6682509780
        1.0203168392,        0.0023862123,-0.0315046459,0.0074267313,2.1219313145,0.1561659575,-0.3935927749
        1.0228807926,        0.0023862123,-0.0315046459,0.0074267313,2.1219313145,0.1561659575,-0.3935927749
        1.0254478455,        0.0023862123,-0.0315046459,0.0074267313,2.1066725254,0.2019423246,0.3846054673
        1.0280709267,       -0.0049380064,-0.0388288647,0.0137743875,2.1066725254,0.2019423246,0.3846054673
        1.0307447910,       -0.0049380064,-0.0388288647,0.0137743875,2.3660719395,-0.1184922457,0.4914169908
        1.0334289074,       -0.0049380064,-0.0388288647,0.0137743875,2.3660719395,-0.1184922457,0.4914169908
        1.0363628864,       -0.0049380064,-0.0388288647,0.0137743875,2.3965895176,0.3392714262,0.7050400376
        1.0392258167,       -0.0015200377,-0.0310163647,0.0064501688,2.3965895176,0.3392714262,0.7050400376
        1.0418858528,       -0.0015200377,-0.0310163647,0.0064501688,1.8014966249,0.6291884184,0.8881455064
        1.0445439816,       -0.0015200377,-0.0310163647,0.0064501688,1.8014966249,0.6291884184,0.8881455064
        1.0472059250,       -0.0015200377,-0.0295515209,0.0093798563,1.6946851015,0.5376356840,0.9491806626
        1.0499429703,       -0.0059145689,-0.0295515209,0.0093798563,1.6946851015,0.5376356840,0.9491806626
        1.0526390076,       -0.0059145689,-0.0295515209,0.0093798563,2.2287428379,0.2172011137,1.3611679077
        1.0553398132,       -0.0059145689,-0.0295515209,0.0093798563,2.2287428379,0.2172011137,1.3611679077
        1.0580809116,       -0.0054262877,-0.0168562084,0.0044970438,2.3660719395,0.3240126371,1.5747909546
        1.0606479645,       -0.0054262877,-0.0168562084,0.0044970438,2.3660719395,0.3240126371,1.5747909546
        1.0632109642,       -0.0054262877,-0.0168562084,0.0044970438,2.3660719395,0.2172011137,1.3459091187
        1.0657768250,       -0.0054262877,-0.0168562084,0.0044970438,2.2745192051,0.2172011137,1.3459091187
        1.0683679581,       -0.0010317564,-0.0139265209,0.0030322000,2.2745192051,0.2172011137,1.2696151733
        1.0709359646,       -0.0010317564,-0.0139265209,0.0030322000,1.9693433046,0.3392714262,1.2696151733
        1.0735039711,       -0.0010317564,-0.0139265209,0.0030322000,1.9693433046,0.3392714262,0.9186630845
        1.0761759281,       -0.0010317564,-0.0139265209,0.0030322000,2.1066725254,0.4003065825,0.9186630845
        1.0787467957,       -0.0005434752,-0.0080671459,-0.0018506125,2.1066725254,0.4003065825,0.9186630845
        1.0813138485,       -0.0005434752,-0.0080671459,-0.0018506125,2.4118483067,0.2019423246,1.4222030640
        1.0838799477,       -0.0005434752,-0.0080671459,-0.0018506125,2.4118483067,0.2019423246,1.4222030640
        1.0864439011,       -0.0005434752,-0.0080671459,-0.0018506125,1.9235669374,0.0340956450,1.1322860718
        1.0890588760,       -0.0044497252,-0.0144148022,0.0074267313,1.9235669374,0.0340956450,1.1322860718
        1.0916218758,       -0.0044497252,-0.0144148022,0.0074267313,2.3355543613,0.0493544340,0.8271103501
        1.0941889286,       -0.0044497252,-0.0144148022,0.0074267313,2.3355543613,0.0493544340,0.8271103501
        1.0967669487,       -0.0044497252,-0.0144148022,0.0074267313,2.6865065098,0.3240126371,1.3001327515
        1.0994958878,       -0.0029848814,-0.0168562084,0.0113329813,2.6865065098,0.3240126371,1.3001327515
        1.1021978855,       -0.0029848814,-0.0168562084,0.0113329813,2.3965895176,0.2629774809,1.2543563843
        1.1048898697,       -0.0029848814,-0.0168562084,0.0113329813,2.3965895176,0.2629774809,1.2543563843
        1.1075909138,       -0.0029848814,-0.0271101147,0.0113329813,2.1066725254,0.2477186918,1.3916854858
        1.1102099419,        0.0004330873,-0.0271101147,0.0113329813,2.1066725254,0.2477186918,1.3916854858
        1.1127748489,        0.0004330873,-0.0271101147,0.0113329813,2.1982252598,0.5986708403,1.4679794312
        1.1153428555,        0.0004330873,-0.0271101147,0.0113329813,2.1982252598,0.5986708403,1.4679794312
        1.1178820133,        0.0004330873,-0.0275983959,0.0079150125,2.1371901035,0.6902235746,1.9562606812
        1.1205790043,       -0.0029848814,-0.0275983959,0.0079150125,2.1371901035,0.6902235746,1.9562606812
        1.1232769489,       -0.0029848814,-0.0275983959,0.0079150125,1.8014966249,0.9953993559,2.4903182983
        1.1259698868,       -0.0029848814,-0.0275983959,0.0079150125,1.8014966249,0.9953993559,2.4903182983
        1.1286759377,       -0.0098208189,-0.0275983959,0.0030322000,1.7862378359,1.2547987700,2.6581649780
        1.1313738823,       -0.0098208189,-0.0275983959,0.0030322000,1.7862378359,1.2547987700,2.6581649780
        1.1340727806,       -0.0098208189,-0.0275983959,0.0030322000,1.9235669374,0.8885878325,2.7649765015
        1.1367688179,       -0.0098208189,-0.0275983959,0.0030322000,1.9235669374,0.8885878325,2.7649765015
        1.1394758224,       -0.0029848814,-0.0324812084,0.0147509500,1.9235669374,1.0259169340,3.2074813843
        1.1422798634,       -0.0029848814,-0.0324812084,0.0147509500,1.8014966249,1.0259169340,3.2074813843
        1.1449799538,       -0.0029848814,-0.0324812084,0.0147509500,1.3895093203,1.1174696684,3.0091171265
        1.1476747990,       -0.0029848814,-0.0324812084,-0.0023388937,1.3895093203,1.1174696684,3.0091171265
        1.1502659321,        0.0004330873,-0.0139265209,-0.0023388937,1.3895093203,1.1022108793,3.2685165405
        1.1528367996,        0.0004330873,-0.0139265209,-0.0023388937,1.4810620546,1.1022108793,3.2685165405
        1.1554999352,        0.0004330873,-0.0139265209,-0.0023388937,1.4810620546,1.1022108793,3.3295516968
        1.1585459709,       -0.0068911314,-0.0158796459,0.0049853250,1.6794263124,1.1022108793,3.3295516968
        1.1612458229,       -0.0068911314,-0.0158796459,0.0049853250,1.6794263124,1.1479872465,3.3753280640
        1.1639440060,       -0.0068911314,-0.0158796459,0.0049853250,1.7099438906,1.1479872465,3.3753280640
        1.1666429043,       -0.0068911314,-0.0158796459,0.0049853250,1.7099438906,0.8733290434,3.1922225952
        1.1693530083,       -0.0000551939,-0.0080671459,0.0069384500,1.4200268984,0.8733290434,3.1922225952
        1.1720519066,       -0.0000551939,-0.0080671459,0.0069384500,1.4200268984,1.0106581450,2.9023056030
        1.1747620106,       -0.0000551939,-0.0080671459,0.0069384500,1.2369214296,1.0106581450,2.9023056030
        1.1774599552,       -0.0000551939,-0.0080671459,0.0069384500,1.2369214296,1.0869520903,2.6429061890
        1.1801710129,        0.0009213686,-0.0149030834,0.0074267313,1.6336499453,1.0869520903,2.6429061890
        1.1828689575,        0.0009213686,-0.0149030834,0.0074267313,1.6336499453,1.2242811918,2.2309188843
        1.1855659485,        0.0009213686,-0.0149030834,0.0074267313,1.4810620546,1.2242811918,2.2309188843
        1.1882638931,        0.0009213686,-0.0149030834,0.0069384500,1.4810620546,1.1632460356,2.5208358765
        1.1908278465,       -0.0073794127,-0.0202741772,0.0069384500,1.8167554140,1.1632460356,2.5208358765
        1.1933898926,       -0.0073794127,-0.0202741772,0.0069384500,1.8167554140,1.1632460356,2.7954940796
        1.1959619522,       -0.0073794127,-0.0202741772,0.0069384500,1.9540845156,1.1479872465,2.7954940796
        1.1985650063,       -0.0073794127,-0.0149030834,-0.0028271750,1.9540845156,1.1479872465,2.7954940796
        1.2011640072,       -0.0024966002,-0.0149030834,-0.0028271750,1.6489087343,0.8733290434,2.6276473999
        1.2039508820,       -0.0024966002,-0.0149030834,-0.0028271750,1.6489087343,0.8733290434,2.6276473999
        1.2066259384,       -0.0024966002,-0.0149030834,-0.0028271750,1.4047681093,1.2395399809,2.7497177124
        1.2092468739,        0.0009213686,-0.0124616772,0.0132861063,1.4047681093,1.2395399809,2.7497177124
        1.2118148804,        0.0009213686,-0.0124616772,0.0132861063,1.4047681093,1.4531630278,2.9175643921
        1.2143828869,        0.0009213686,-0.0124616772,0.0132861063,1.4047681093,1.4531630278,2.9175643921
        1.2169508934,        0.0009213686,-0.0124616772,0.0132861063,1.9998608828,1.1785048246,3.4668807983
        1.2196888924,        0.0043393373,-0.0178327709,-0.0003857687,1.9998608828,1.1785048246,3.4668807983
        1.2223908901,        0.0043393373,-0.0178327709,-0.0003857687,1.7862378359,1.2700575590,3.7415390015
        1.2250897884,        0.0043393373,-0.0178327709,-0.0003857687,1.7862378359,1.2700575590,3.7415390015
        1.2277798653,        0.0043393373,-0.0178327709,-0.0003857687,1.6794263124,1.1479872465,3.4973983765
        1.2304859161,        0.0053158998,-0.0163679272,0.0044970438,1.6794263124,1.1479872465,3.4973983765
        1.2331738472,        0.0053158998,-0.0163679272,0.0044970438,1.1911450624,0.9648817778,3.2837753296
        1.2358667850,        0.0053158998,-0.0163679272,0.0044970438,1.1911450624,0.9648817778,3.2837753296
        1.2385568619,        0.0053158998,-0.0163679272,0.0084032938,1.1911450624,1.3463515043,3.6499862671
        1.2411248684,       -0.0054262877,-0.0163679272,0.0084032938,1.1911450624,1.3463515043,3.6499862671
        1.2436947823,       -0.0054262877,-0.0163679272,0.0084032938,1.5268384218,1.2853163481,4.1382675171
        1.2462599277,       -0.0054262877,-0.0163679272,0.0084032938,1.5268384218,1.2853163481,4.1382675171
        1.2488789558,       -0.0054262877,-0.0163679272,0.0010790750,1.1453686953,1.3005751371,4.2145614624
        1.2515799999,        0.0014096498,-0.0139265209,0.0010790750,1.1453686953,1.3005751371,4.2145614624
        1.2542729378,        0.0014096498,-0.0139265209,0.0010790750,1.2216626406,1.4379042387,4.8096542358
        1.2569708824,        0.0014096498,-0.0139265209,0.0010790750,1.2216626406,1.4379042387,4.8096542358
        1.2596769333,       -0.0088442564,-0.0061140209,0.0044970438,1.0385571718,1.6362684965,4.9622421265
        1.2623798847,       -0.0088442564,-0.0061140209,0.0044970438,1.0385571718,1.6362684965,4.9622421265
        1.2650799751,       -0.0088442564,-0.0061140209,0.0044970438,0.8401929140,1.2853163481,4.3061141968
        1.2677807808,       -0.0088442564,-0.0061140209,0.0044970438,0.8401929140,1.2853163481,4.3061141968
        1.2705948353,       -0.0010317564,-0.0036726147,0.0005907938,0.5197583437,1.4531630278,3.6805038452
        1.2732989788,       -0.0010317564,-0.0036726147,0.0005907938,0.5197583437,1.4531630278,3.6805038452
        1.2761669159,       -0.0010317564,-0.0036726147,0.0005907938,1.0080395937,1.3768690825,3.6042098999
        1.2790219784,       -0.0010317564,-0.0036726147,0.0069384500,1.0080395937,1.3768690825,3.6042098999
        1.2817249298,        0.0018979311,-0.0051374584,0.0069384500,1.3742505312,1.4989393950,3.7720565796
        1.2844238281,        0.0018979311,-0.0051374584,0.0069384500,1.3742505312,1.4989393950,3.7720565796
        1.2871289253,        0.0018979311,-0.0051374584,0.0069384500,1.5573559999,1.3158339262,3.7262802124
        1.2897529602,        0.0018979311,0.0012101978,-0.0013623312,1.5573559999,1.3158339262,3.7262802124
        1.2923247814,        0.0033627748,0.0012101978,-0.0013623312,1.5573559999,1.4226454496,3.6957626343
        1.2948918343,        0.0033627748,0.0012101978,-0.0013623312,1.5573559999,1.4226454496,3.6957626343
        1.2974569798,        0.0033627748,0.0012101978,-0.0013623312,1.6946851015,1.4684218168,3.4821395874
        1.3004918098,       -0.0024966002,-0.0070905834,0.0035204813,1.6946851015,1.4684218168,3.4821395874
        1.3037919998,       -0.0024966002,-0.0070905834,0.0035204813,1.5726147890,1.3768690825,3.7567977905
        1.3064939976,       -0.0024966002,-0.0070905834,0.0035204813,1.5726147890,1.3768690825,3.7567977905
        1.3091449738,       -0.0024966002,-0.0070905834,0.0069384500,1.4047681093,1.2395399809,3.0701522827
        1.3117098808,       -0.0010317564,-0.0105085522,0.0069384500,1.4047681093,1.2395399809,3.0701522827
        1.3142778873,       -0.0010317564,-0.0105085522,0.0069384500,1.3284741640,1.3005751371,3.4973983765
        1.3168399334,       -0.0010317564,-0.0105085522,0.0069384500,1.3284741640,1.3005751371,3.4973983765
        1.3195388317,       -0.0010317564,-0.0105085522,0.0064501688,1.1453686953,1.5447157621,4.1230087280
        1.3222408295,       -0.0064028502,-0.0051374584,0.0064501688,1.1453686953,1.5447157621,4.1230087280
        1.3249390125,       -0.0064028502,-0.0051374584,0.0064501688,0.9317456484,1.4531630278,4.1077499390
        1.3276410103,       -0.0064028502,-0.0051374584,0.0064501688,0.9317456484,1.4531630278,4.1077499390
        1.3303430080,        0.0009213686,-0.0066023022,-0.0013623312,0.8707104921,1.3768690825,3.8636093140
        1.3330409527,        0.0009213686,-0.0066023022,-0.0013623312,0.8707104921,1.3768690825,3.8636093140
        1.3358550072,        0.0009213686,-0.0066023022,-0.0013623312,0.7791577578,1.2547987700,3.9246444702
        1.3385407925,        0.0009213686,-0.0066023022,-0.0013623312,0.7791577578,1.2547987700,3.9246444702
        1.3411059380,       -0.0015200377,-0.0026960522,0.0054736063,0.8401929140,1.2853163481,3.7873153687
        1.3436768055,       -0.0015200377,-0.0026960522,0.0054736063,0.8401929140,1.2853163481,3.7873153687
        1.3462409973,       -0.0015200377,-0.0026960522,0.0054736063,0.8401929140,1.5447157621,3.3905868530
        1.3489007950,       -0.0015200377,-0.0026960522,0.0054736063,0.6570874453,1.5447157621,3.3905868530
        1.3514668941,        0.0028744936,-0.0017194897,-0.0052685812,0.6570874453,1.5447157621,3.6042098999
        1.3540308475,        0.0028744936,-0.0017194897,-0.0052685812,0.6876050234,1.5904921293,3.6042098999
        1.3566038609,        0.0028744936,-0.0017194897,-0.0052685812,0.6876050234,1.5904921293,3.5584335327
        1.3593180180,        0.0028744936,-0.0017194897,-0.0052685812,0.4587232172,1.4379042387,3.5584335327
        1.3620200157,       -0.0000551939,0.0026750416,0.0035204813,0.4587232172,1.4379042387,3.5889511108
        1.3647198677,       -0.0000551939,0.0026750416,0.0035204813,0.9775220156,1.5599745512,3.5889511108
        1.3674159050,       -0.0000551939,0.0026750416,0.0035204813,0.9775220156,1.5599745512,3.7567977905
        1.3701598644,       -0.0000551939,-0.0017194897,0.0123095438,0.9470044374,1.7735975981,3.7567977905
        1.3728590012,        0.0018979311,-0.0017194897,0.0123095438,0.9470044374,1.7735975981,3.6499862671
        1.3755569458,        0.0018979311,-0.0017194897,0.0123095438,0.8096753359,1.6362684965,3.6499862671
        1.3782558441,        0.0018979311,-0.0017194897,0.0123095438,0.8096753359,1.6362684965,3.6652450562
        1.3809528351,        0.0023862123,-0.0026960522,-0.0033154562,0.6113110781,1.5294569731,3.6652450562
        1.3836519718,        0.0023862123,-0.0026960522,-0.0033154562,0.6113110781,1.5294569731,3.7262802124
        1.3863458633,        0.0023862123,-0.0026960522,-0.0033154562,0.4739820063,1.5752333403,3.7262802124
        1.3890039921,        0.0023862123,-0.0026960522,-0.0033154562,0.4739820063,1.5752333403,3.7262802124
        1.3915657997,        0.0038510561,0.0070695728,0.0079150125,0.7181226015,1.3616102934,3.5889511108
        1.3941287994,        0.0038510561,0.0070695728,0.0079150125,0.7181226015,1.3616102934,3.5889511108
        1.3966908455,        0.0038510561,0.0070695728,0.0079150125,0.9470044374,1.4531630278,3.1464462280
        1.3994410038,        0.0038510561,0.0070695728,0.0079150125,0.9470044374,1.4531630278,3.1464462280
        1.4019978046,        0.0067807436,0.0021867603,-0.0077099875,0.6265698671,1.6820448637,3.2685165405
        1.4045579433,        0.0067807436,0.0021867603,-0.0077099875,0.6265698671,1.6820448637,3.2685165405
        1.4071209431,        0.0067807436,0.0021867603,-0.0077099875,0.8707104921,1.6820448637,2.8412704468
        1.4097199440,        0.0067807436,0.0021867603,-0.0077099875,0.8707104921,1.6820448637,2.8412704468
        1.4122838974,       -0.0054262877,0.0007219166,0.0069384500,0.5655347109,1.5141981840,2.4140243530
        1.4148809910,       -0.0054262877,0.0007219166,0.0069384500,0.5655347109,1.5141981840,2.4140243530
        1.4174499512,       -0.0054262877,0.0007219166,0.0069384500,0.3671704829,1.2090224028,2.3529891968
        1.4200677872,       -0.0054262877,0.0007219166,0.0069384500,0.3671704829,1.2090224028,2.3529891968
        1.4226279259,       -0.0000551939,0.0041398853,0.0093798563,0.2145825922,1.4379042387,2.4598007202
        1.4252448082,       -0.0000551939,0.0041398853,0.0093798563,0.2145825922,1.4379042387,2.4598007202
        1.4285678864,       -0.0000551939,0.0041398853,0.0093798563,0.4892407954,1.4531630278,2.0020370483
        1.4311327934,       -0.0000551939,0.0046281666,-0.0067334250,0.4892407954,1.4531630278,2.0020370483
        1.4336938858,        0.0038510561,0.0046281666,-0.0067334250,0.5197583437,1.1937636137,2.1851425171
        1.4362587929,        0.0038510561,0.0046281666,-0.0067334250,0.5197583437,1.1937636137,2.1851425171
        1.4388267994,        0.0038510561,0.0046281666,-0.0067334250,0.5197583437,1.3158339262,1.8799667358
        1.4413897991,        0.0023862123,0.0095109791,0.0020556375,0.1535474360,1.3158339262,1.8799667358
        1.4439468384,        0.0023862123,0.0095109791,0.0020556375,0.1535474360,5.2220840454,1.6510848999
        1.4465148449,        0.0023862123,0.0095109791,0.0020556375,-0.2736986578,1.4989393950,1.6510848999
        1.4491558075,        0.0023862123,0.0095109791,0.0020556375,-0.2736986578,1.4989393950,1.6816024780
        1.4517168999,       -0.0029848814,-0.0017194897,-0.0047803000,0.0009595454,1.2242811918,1.6816024780
        1.4542798996,       -0.0029848814,-0.0017194897,-0.0047803000,0.0009595454,1.2242811918,1.6816024780
        1.4568397999,       -0.0029848814,-0.0017194897,-0.0047803000,-0.0142992437,1.0869520903,1.4832382202
        1.4594638348,       -0.0029848814,-0.0017194897,-0.0047803000,-0.0142992437,1.0869520903,1.4832382202
        1.4621348381,       -0.0103091002,0.0016984791,0.0030322000,-0.0142992437,0.9953993559,1.4374618530
        1.4646999836,       -0.0103091002,0.0016984791,0.0030322000,-0.0142992437,0.9953993559,1.4374618530
        1.4672608376,       -0.0103091002,0.0016984791,0.0030322000,-0.1363695562,1.3005751371,1.7884140015
        1.4699828625,       -0.0103091002,0.0016984791,0.0030322000,-0.1363695562,1.3005751371,1.7884140015
        1.4725439548,       -0.0005434752,0.0080461353,0.0030322000,0.1077710688,1.3005751371,1.7273788452
        1.4751088619,       -0.0005434752,0.0080461353,0.0030322000,0.1077710688,1.3005751371,1.7273788452
        1.4776699543,       -0.0005434752,0.0080461353,0.0030322000,-0.1363695562,1.2700575590,1.2390975952
        1.4803609848,       -0.0005434752,0.0080461353,0.0030322000,-0.1363695562,1.2700575590,1.2390975952
        1.4829239845,        0.0077573061,0.0095109791,0.0040087625,0.1230298579,1.3463515043,1.3001327515
        1.4854898453,        0.0077573061,0.0095109791,0.0040087625,0.1230298579,1.3463515043,1.3001327515
        1.4881148338,        0.0077573061,0.0095109791,0.0040087625,0.2298413813,1.1327284575,1.1780624390
        1.4906818867,        0.0077573061,0.0095109791,0.0040087625,0.2298413813,1.1327284575,1.1780624390
        1.4932539463,        0.0082455873,0.0104875416,-0.0057568625,0.2298413813,0.9191054106,1.1933212280
        1.4958219528,        0.0082455873,0.0104875416,-0.0057568625,0.1382886469,0.9191054106,1.1933212280
        1.4984188080,        0.0082455873,0.0104875416,-0.0057568625,0.1382886469,1.0106581450,0.9644394517
        1.5011188984,        0.0082455873,0.0104875416,0.0035204813,-0.1668871343,1.0106581450,0.9644394517
        1.5038208961,        0.0009213686,0.0109758228,0.0035204813,-0.1668871343,1.0106581450,0.8118515611
        1.5065169334,        0.0009213686,0.0109758228,0.0035204813,0.2451001704,1.1174696684,0.8118515611
        1.5092329979,        0.0009213686,0.0109758228,0.0035204813,0.2451001704,1.1174696684,0.5219345689
        1.5119318962,        0.0009213686,0.0046281666,0.0088915750,0.6570874453,0.8122938871,0.5219345689
        1.5146238804,       -0.0044497252,0.0046281666,0.0088915750,0.6570874453,0.8122938871,0.5982285142
        1.5173199177,       -0.0044497252,0.0046281666,0.0088915750,0.6265698671,0.8122938871,0.5982285142
        1.5200297832,       -0.0044497252,0.0046281666,0.0088915750,0.6265698671,0.8122938871,0.6440048814
        1.5227248669,       -0.0005434752,0.0016984791,-0.0096631125,0.5197583437,0.7054823637,0.6440048814
        1.5255348682,       -0.0005434752,0.0016984791,-0.0096631125,0.5197583437,0.7054823637,0.8423691392
        1.5282449722,       -0.0005434752,0.0016984791,-0.0096631125,0.2451001704,0.8580702543,0.8423691392
        1.5309469700,       -0.0005434752,0.0016984791,-0.0096631125,0.2451001704,0.8580702543,0.7202988267
        1.5336489677,       -0.0059145689,0.0090226978,-0.0033154562,0.0314771235,1.1174696684,0.7202988267
        1.5364289284,       -0.0059145689,0.0090226978,-0.0033154562,0.0314771235,1.1174696684,0.6745224595
        1.5390889645,       -0.0059145689,0.0090226978,-0.0033154562,-0.1211107671,0.9496229887,0.6745224595
        1.5416560173,       -0.0059145689,0.0090226978,0.0054736063,-0.1211107671,0.9496229887,0.6287460923
        1.5442278385,        0.0014096498,0.0119523853,0.0054736063,0.0314771235,0.9953993559,0.6287460923
        1.5467908382,        0.0014096498,0.0119523853,0.0054736063,0.0314771235,0.9953993559,0.6287460923
        1.5494439602,        0.0014096498,0.0119523853,0.0054736063,0.4434644282,1.0106581450,0.4456406236
        1.5521569252,        0.0014096498,0.0104875416,-0.0077099875,0.4434644282,1.0106581450,0.4456406236
        1.5548558235,        0.0053158998,0.0104875416,-0.0077099875,-0.2431810796,1.1785048246,0.4761582017
        1.5575549603,        0.0053158998,0.0104875416,-0.0077099875,-0.2431810796,1.1785048246,0.4761582017
        1.5602629185,        0.0053158998,0.0104875416,-0.0077099875,-0.3499926031,1.0869520903,0.5982285142
        1.5629568100,        0.0048276186,0.0051164478,0.0005907938,-0.3499926031,1.0869520903,0.5982285142
        1.5656609535,        0.0048276186,0.0051164478,0.0005907938,-0.2889574468,1.1022108793,0.5371933579
        1.5683529377,        0.0048276186,0.0051164478,0.0005907938,-0.2889574468,1.1022108793,0.5371933579
        1.5709228516,        0.0048276186,0.0051164478,0.0005907938,-0.5788744688,1.1174696684,0.2930527329
        1.5734908581,        0.0058041811,0.0090226978,-0.0067334250,-0.5788744688,1.1174696684,0.2930527329
        1.5760548115,        0.0058041811,0.0090226978,-0.0067334250,-0.6399096251,0.9801405668,0.0183945298
        1.5787398815,        0.0058041811,0.0090226978,-0.0067334250,-0.6399096251,0.9801405668,0.0183945298
        1.5813179016,        0.0058041811,0.0090226978,-0.0067334250,-0.7314623594,0.6291884184,0.3083115220
        1.5838868618,        0.0004330873,0.0095109791,0.0020556375,-0.7314623594,0.6291884184,0.3083115220
        1.5864529610,        0.0004330873,0.0095109791,0.0020556375,-0.7314623594,1.0259169340,0.2625351548
        1.5891659260,        0.0004330873,0.0095109791,0.0020556375,-0.7314623594,1.0259169340,0.2625351548
        1.5917308331,        0.0004330873,0.0095109791,0.0020556375,-0.5025805235,1.4836806059,0.3998642564
        1.5943019390,        0.0023862123,0.0016984791,0.0123095438,-0.5025805235,1.4836806059,0.3998642564
        1.5968639851,        0.0023862123,0.0016984791,0.0123095438,-0.6399096251,1.5141981840,0.1099472642
        1.5995597839,        0.0023862123,0.0016984791,0.0123095438,-0.6399096251,1.5141981840,0.1099472642
        1.6022679806,        0.0023862123,0.0016984791,0.0113329813,-1.0824145079,1.4836806059,-0.0731582046
        1.6049687862,        0.0043393373,0.0099992603,0.0113329813,-1.0824145079,1.4836806059,-0.0731582046
        1.6076669693,        0.0043393373,0.0099992603,0.0113329813,-1.0213793516,1.6057509184,-0.3172988296
        1.6103768349,        0.0043393373,0.0099992603,0.0113329813,-1.0213793516,1.6057509184,-0.3172988296
        1.6130759716,        0.0058041811,0.0143937916,0.0010790750,-0.8840502501,1.2242811918,-0.4698867202
        1.6157748699,        0.0058041811,0.0143937916,0.0010790750,-0.8840502501,1.2242811918,-0.4698867202
        1.6184778214,        0.0058041811,0.0143937916,0.0010790750,-0.8840502501,1.1022108793,-0.5919570327
        1.6211748123,        0.0058041811,0.0143937916,0.0010790750,-0.8230150938,1.1022108793,-0.5919570327
        1.6238808632,        0.0053158998,0.0222062916,-0.0033154562,-0.8230150938,1.1937636137,-0.6072158217
        1.6265799999,        0.0053158998,0.0222062916,-0.0033154562,-1.3723315001,1.1937636137,-0.6072158217
        1.6292808056,        0.0053158998,0.0222062916,-0.0033154562,-1.3723315001,1.3005751371,-0.8208388686
        1.6319789886,        0.0053158998,0.0222062916,-0.0033154562,-0.9603441954,1.3005751371,-0.8208388686
        1.6346759796,        0.0092221498,0.0099992603,-0.0067334250,-0.9603441954,1.4226454496,-0.8666152358
        1.6373767853,        0.0092221498,0.0099992603,-0.0067334250,-0.9298266172,1.4226454496,-0.8666152358
        1.6399710178,        0.0092221498,0.0099992603,-0.0067334250,-0.9298266172,1.4226454496,-0.8818740249
        1.6425399780,        0.0092221498,0.0099992603,0.0015673563,-1.1892260313,1.3768690825,-0.8818740249
        1.6451098919,       -0.0049380064,0.0099992603,0.0015673563,-1.1892260313,1.3768690825,-0.9123916030
        1.6476798058,       -0.0049380064,0.0099992603,0.0015673563,-1.5249193907,1.3921278715,-0.9123916030
        1.6503968239,       -0.0049380064,0.0099992603,0.0015673563,-1.5249193907,1.3921278715,-0.9581679702
        1.6531980038,       -0.0049380064,0.0075578541,-0.0013623312,-1.4028490782,1.2700575590,-0.9581679702
        1.6558928490,       -0.0010317564,0.0075578541,-0.0013623312,-1.4028490782,1.2700575590,-1.0954971313
        1.6585998535,       -0.0010317564,0.0075578541,-0.0013623312,-1.7538012266,1.3158339262,-1.0954971313
        1.6612999439,       -0.0010317564,0.0075578541,-0.0013623312,-1.7538012266,1.3158339262,-1.4006729126
        1.6639959812,        0.0043393373,0.0119523853,0.0035204813,-1.6164721251,1.0869520903,-1.4006729126
        1.6667017937,        0.0043393373,0.0119523853,0.0035204813,-1.6164721251,1.0869520903,-1.4464492798
        1.6694109440,        0.0043393373,0.0119523853,0.0035204813,-1.7843188047,1.2547987700,-1.4464492798
        1.6721148491,        0.0043393373,0.0119523853,0.0035204813,-1.7843188047,1.2547987700,-1.4311904907
        1.6748118401,       -0.0005434752,0.0109758228,0.0049853250,-1.8758715391,1.4073866606,-1.4311904907
        1.6775078773,       -0.0005434752,0.0109758228,0.0049853250,-1.8758715391,1.4073866606,-1.4311904907
        1.6802239418,       -0.0005434752,0.0109758228,0.0049853250,-1.2044848204,1.2547987700,-1.2938613892
        1.6829178333,       -0.0005434752,0.0109758228,-0.0052685812,-1.2044848204,1.2547987700,-1.2938613892
        1.6856138706,        0.0043393373,0.0178117603,-0.0052685812,-1.0671557188,0.7512587309,-1.6905899048
        1.6883158684,        0.0043393373,0.0178117603,-0.0052685812,-1.0671557188,0.7512587309,-1.6905899048
        1.6908819675,        0.0043393373,0.0178117603,-0.0052685812,-1.0518969297,0.5376356840,-2.2551651001
        1.6934537888,        0.0043393373,0.0134172291,0.0064501688,-1.0518969297,0.5376356840,-2.2551651001
        1.6960189342,        0.0062924623,0.0134172291,0.0064501688,-0.9603441954,1.1632460356,-2.3772354126
        1.6986799240,        0.0062924623,0.0134172291,0.0064501688,-0.9603441954,1.1632460356,-2.3772354126
        1.7013838291,        0.0062924623,0.0134172291,0.0064501688,-1.0671557188,1.1022108793,-2.2399063110
        1.7040808201,        0.0072690248,0.0114641041,-0.0018506125,-1.0671557188,1.1022108793,-2.2399063110
        1.7067778111,        0.0072690248,0.0114641041,-0.0018506125,-1.3570727110,0.9191054106,-2.0873184204
        1.7094860077,        0.0072690248,0.0114641041,-0.0018506125,-1.3570727110,0.9191054106,-2.0873184204
        1.7121798992,        0.0072690248,0.0114641041,-0.0018506125,-1.8911303282,1.1022108793,-2.2551651001
        1.7148878574,       -0.0005434752,0.0143937916,0.0040087625,-1.8911303282,1.1022108793,-2.2551651001
        1.7176859379,       -0.0005434752,0.0143937916,0.0040087625,-2.2420823574,0.9801405668,-2.4382705688
        1.7203979492,       -0.0005434752,0.0143937916,0.0040087625,-2.2420823574,0.9801405668,-2.4382705688
        1.7231018543,       -0.0005434752,0.0143937916,0.0040087625,-2.2878587246,1.0869520903,-2.7587051392
        1.7257959843,        0.0072690248,0.0104875416,-0.0018506125,-2.2878587246,1.0869520903,-2.7587051392
        1.7287559509,        0.0072690248,0.0104875416,-0.0018506125,-2.1352708340,0.6291884184,-2.9265518188
        1.7314188480,        0.0072690248,0.0104875416,-0.0018506125,-2.1352708340,0.6291884184,-2.9265518188
        1.7341628075,       -0.0024966002,0.0099992603,0.0093798563,-1.9063891172,0.9648817778,-3.0181045532
        1.7371997833,       -0.0024966002,0.0099992603,0.0093798563,-1.9063891172,0.9648817778,-3.0181045532
        1.7398488522,       -0.0024966002,0.0099992603,0.0093798563,-2.0284593105,0.9953993559,-3.4911270142
        1.7424190044,       -0.0024966002,0.0099992603,0.0093798563,-2.0284593105,0.9953993559,-3.4911270142
        1.7449839115,        0.0116635561,0.0197648853,0.0001025125,-2.0742356777,1.1937636137,-3.4911270142
        1.7475478649,        0.0116635561,0.0197648853,0.0001025125,-2.0742356777,1.1937636137,-3.4911270142
        1.7502398491,        0.0116635561,0.0197648853,0.0001025125,-2.3031175137,1.2395399809,-3.7657852173
        1.7529389858,        0.0116635561,0.0197648853,0.0001025125,-2.3031175137,1.2395399809,-3.7657852173
        1.7556409836,        0.0028744936,0.0085344166,-0.0072217062,-2.1810472012,0.9801405668,-4.2388076782
        1.7583529949,        0.0028744936,0.0085344166,-0.0072217062,-2.1810472012,0.9801405668,-4.2388076782
        1.7610518932,        0.0028744936,0.0085344166,-0.0072217062,-1.7995775938,0.9343641996,-4.3303604126
        1.7637538910,        0.0028744936,0.0085344166,0.0044970438,-1.7995775938,0.9343641996,-4.3303604126
        1.7664577961,        0.0009213686,0.0124406666,0.0044970438,-1.7538012266,1.0411757231,-4.4371719360
        1.7691099644,        0.0009213686,0.0124406666,0.0044970438,-1.7538012266,1.0411757231,-4.4371719360
        1.7716758251,        0.0009213686,0.0124406666,0.0044970438,-1.9826830626,0.7207411528,-4.3608779907
        1.7742447853,        0.0009213686,0.0026750416,-0.0028271750,-1.9826830626,0.7207411528,-4.3608779907
        1.7768108845,       -0.0034731627,0.0026750416,-0.0028271750,-2.3183763027,0.4766005278,-4.7728652954
        1.7794368267,       -0.0034731627,0.0026750416,-0.0028271750,-2.3183763027,0.4766005278,-4.7728652954
        1.7819998264,       -0.0034731627,0.0026750416,-0.0028271750,-2.1200120449,0.8733290434,-4.7576065063
        1.7846679688,       -0.0039614439,-0.0002546459,0.0005907938,-2.1200120449,0.8733290434,-4.7576065063
        1.7872419357,       -0.0039614439,-0.0002546459,0.0005907938,-1.6012133360,0.8580702543,-4.0251846313
        1.7899699211,       -0.0039614439,-0.0002546459,0.0005907938,-1.6012133360,0.8580702543,-4.0251846313
        1.7925407887,       -0.0039614439,-0.0002546459,0.0005907938,-1.6012133360,0.9343641996,-4.4676895142
        1.7951018810,       -0.0039614439,0.0021867603,0.0123095438,-1.8300951719,0.9343641996,-4.4676895142
        1.7976667881,       -0.0039614439,0.0021867603,0.0123095438,-1.8300951719,0.9343641996,-4.4066543579
        1.8003909588,       -0.0039614439,0.0021867603,0.0123095438,-1.8606127501,0.8428114653,-4.4066543579
        1.8030908108,       -0.0039614439,0.0021867603,0.0123095438,-1.8606127501,0.8428114653,-4.3303604126
        1.8057839870,       -0.0010317564,0.0002336353,0.0049853250,-1.5859545469,0.5223768950,-4.3303604126
        1.8085339069,       -0.0010317564,0.0002336353,0.0049853250,-1.5859545469,0.5223768950,-4.2693252563
        1.8112349510,       -0.0010317564,0.0002336353,0.0049853250,-1.5096606016,0.4155653715,-4.2693252563
        1.8139319420,       -0.0010317564,0.0002336353,0.0049853250,-1.5096606016,0.4155653715,-4.6202774048
        1.8166298866,       -0.0068911314,-0.0070905834,0.0093798563,-1.7232836485,0.4003065825,-4.6202774048
        1.8193459511,       -0.0068911314,-0.0070905834,0.0093798563,-1.7232836485,0.4003065825,-4.6202774048
        1.8220458031,       -0.0068911314,-0.0070905834,0.0093798563,-1.8148363829,0.7665175200,-4.6202774048
        1.8247449398,       -0.0068911314,0.0007219166,0.0064501688,-1.8148363829,0.7665175200,-3.8268203735
        1.8274397850,       -0.0044497252,0.0007219166,0.0064501688,-1.3875902891,1.1327284575,-3.8268203735
        1.8302829266,       -0.0044497252,0.0007219166,0.0064501688,-1.3875902891,1.1327284575,-3.1859512329
        1.8329789639,       -0.0044497252,0.0007219166,0.0064501688,-1.2960375547,0.8428114653,-3.1859512329
        1.8356859684,        0.0023862123,-0.0002546459,-0.0003857687,-1.2960375547,0.8428114653,-3.0333633423
        1.8383829594,        0.0023862123,-0.0002546459,-0.0003857687,-1.1281908751,0.4460829496,-3.0333633423
        1.8409509659,        0.0023862123,-0.0002546459,-0.0003857687,-1.1281908751,0.4460829496,-3.2317276001
        1.8435199261,        0.0023862123,-0.0002546459,-0.0003857687,-1.1892260313,0.6291884184,-3.2317276001
        1.8462150097,        0.0033627748,0.0046281666,-0.0028271750,-1.1892260313,0.6291884184,-3.1554336548
        1.8496170044,        0.0033627748,0.0046281666,-0.0028271750,-1.4791430235,1.1174696684,-3.1554336548
        1.8521828651,        0.0033627748,0.0046281666,-0.0028271750,-1.4791430235,1.1174696684,-3.1249160767
        1.8547468185,        0.0033627748,0.0046281666,0.0074267313,-1.2044848204,1.4836806059,-3.1249160767
        1.8573060036,       -0.0000551939,0.0002336353,0.0074267313,-1.2044848204,1.4836806059,-3.0028457642
        1.8599069118,       -0.0000551939,0.0002336353,0.0074267313,-1.0213793516,1.1632460356,-3.0028457642
        1.8624689579,       -0.0000551939,0.0002336353,0.0074267313,-1.0213793516,1.1632460356,-3.0028457642
        1.8650310040,       -0.0000551939,-0.0051374584,0.0001025125,-0.9145678282,0.6444472075,-3.2012100220
        1.8675918579,       -0.0034731627,-0.0051374584,0.0001025125,-0.9145678282,0.6444472075,-3.2012100220
        1.8701589108,       -0.0034731627,-0.0051374584,0.0001025125,-1.1434496641,0.9343641996,-2.9875869751
        1.8727219105,       -0.0034731627,-0.0051374584,0.0001025125,-1.1434496641,0.9343641996,-2.9875869751
        1.8752839565,       -0.0034731627,-0.0007429272,0.0035204813,-1.3570727110,0.9801405668,-2.7587051392
        1.8778789043,       -0.0000551939,-0.0007429272,0.0035204813,-1.3570727110,0.9801405668,-2.7587051392
        1.8804500103,       -0.0000551939,-0.0007429272,0.0035204813,-1.2807787657,1.0106581450,-2.7129287720
        1.8830108643,       -0.0000551939,-0.0007429272,0.0035204813,-1.2807787657,1.0106581450,-2.7129287720
        1.8855698109,       -0.0000551939,0.0012101978,0.0059618875,-1.2350023985,1.0259169340,-2.3619766235
        1.8881759644,       -0.0005434752,0.0012101978,0.0059618875,-1.2350023985,1.0259169340,-2.3619766235
        1.8907399178,       -0.0005434752,0.0012101978,0.0059618875,-0.7924975157,0.4460829496,-2.5298233032
        1.8932979107,       -0.0005434752,0.0012101978,0.0059618875,-0.7924975157,0.4460829496,-2.5298233032
        1.8958590031,       -0.0059145689,-0.0036726147,0.0069384500,-0.7924975157,0.5834120512,-2.4840469360
        1.8985388279,       -0.0059145689,-0.0036726147,0.0069384500,-1.1587084532,0.5834120512,-2.4840469360
        1.9011089802,       -0.0059145689,-0.0036726147,0.0069384500,-1.1587084532,0.5834120512,-2.3924942017
        1.9036729336,       -0.0059145689,-0.0036726147,0.0069384500,-0.8687914610,0.7054823637,-2.3924942017
        1.9062438011,        0.0043393373,-0.0070905834,0.0103564188,-0.8687914610,0.7054823637,-2.2551651001
        1.9089357853,        0.0043393373,-0.0070905834,0.0103564188,-0.3652513921,0.9191054106,-2.2551651001
        1.9117429256,        0.0043393373,-0.0070905834,0.0103564188,-0.3652513921,0.9191054106,-1.8736953735
        1.9144368172,        0.0043393373,-0.0070905834,0.0103564188,-0.6551684141,0.8122938871,-1.8736953735
        1.9171338081,        0.0053158998,0.0070695728,-0.0008740500,-0.6551684141,0.8122938871,-1.5685195923
        1.9198458195,        0.0053158998,0.0070695728,-0.0008740500,-0.3957689703,0.5528944731,-1.5685195923
        1.9225409031,        0.0053158998,0.0070695728,-0.0008740500,-0.3957689703,0.5528944731,-1.8889541626
        1.9252378941,        0.0053158998,0.0070695728,-0.0047803000,-0.7314623594,0.6902235746,-1.8889541626
        1.9279458523,       -0.0010317564,0.0016984791,-0.0047803000,-0.7314623594,0.6902235746,-1.6905899048
        1.9306418896,       -0.0010317564,0.0016984791,-0.0047803000,-0.4720629156,0.8122938871,-1.6905899048
        1.9334318638,       -0.0010317564,0.0016984791,-0.0047803000,-0.4720629156,0.8122938871,-1.6905899048
        1.9360179901,       -0.0010317564,0.0002336353,0.0005907938,-0.5025805235,0.5528944731,-1.8126602173
        1.9386858940,       -0.0039614439,0.0002336353,0.0005907938,-0.5025805235,0.5528944731,-1.8126602173
        1.9413509369,       -0.0039614439,0.0002336353,0.0005907938,-0.4262865484,0.2629774809,-1.8279190063
        1.9447999001,       -0.0039614439,0.0002336353,0.0005907938,-0.4262865484,0.2629774809,-1.5074844360
        1.9473729134,       -0.0024966002,0.0031633228,0.0025439188,-0.6551684141,0.8122938871,-1.5074844360
        1.9500348568,       -0.0024966002,0.0031633228,0.0025439188,-0.6551684141,0.8122938871,-1.5227432251
        1.9526000023,       -0.0024966002,0.0031633228,0.0025439188,-0.8230150938,1.0411757231,-1.5227432251
        1.9551639557,       -0.0024966002,0.0031633228,0.0025439188,-0.8230150938,1.0411757231,-1.5227432251
        1.9577269554,       -0.0024966002,-0.0051374584,0.0059618875,-0.8535326719,0.8122938871,-1.3548965454
        1.9603009224,       -0.0024966002,-0.0051374584,0.0059618875,-0.8535326719,0.8122938871,-1.3548965454
        1.9628667831,       -0.0024966002,-0.0051374584,0.0059618875,-1.0518969297,1.1327284575,-1.1412734985
        1.9654288292,       -0.0024966002,-0.0051374584,0.0059618875,-1.0518969297,1.1327284575,-1.1412734985
        1.9679989815,       -0.0054262877,-0.0007429272,0.0118212625,-1.2197436094,1.1785048246,-1.1260147095
        1.9705638885,       -0.0054262877,-0.0007429272,0.0118212625,-1.2197436094,1.1785048246,-1.1260147095
        1.9731237888,       -0.0054262877,-0.0007429272,0.0118212625,-0.9908617735,1.3616102934,-0.8360976577
        1.9757997990,       -0.0054262877,-0.0007429272,0.0040087625,-0.9908617735,1.3616102934,-0.8360976577
        1.9784789085,        0.0009213686,-0.0007429272,0.0040087625,-0.8230150938,1.3158339262,-0.7445449233
        1.9810438156,        0.0009213686,-0.0007429272,0.0040087625,-0.8230150938,1.3158339262,-0.7445449233
        1.9836049080,        0.0009213686,-0.0007429272,0.0040087625,-1.1892260313,1.2242811918,-0.8360976577
        1.9861638546,        0.0009213686,-0.0007429272,0.0103564188,-1.1892260313,1.2242811918,-0.8360976577
        1.9888780117,       -0.0020083189,-0.0041608959,0.0103564188,-1.1281908751,1.1632460356,-0.5461806655
        1.9914460182,       -0.0020083189,-0.0041608959,0.0103564188,-1.1281908751,1.1632460356,-0.5461806655
        1.9940118790,       -0.0020083189,-0.0041608959,0.0103564188,-1.1281908751,1.1937636137,-0.4088515639
        1.9965858459,       -0.0020083189,-0.0026960522,0.0035204813,-1.1129320860,1.1937636137,-0.4088515639
        1.9993770123,       -0.0024966002,-0.0026960522,0.0035204813,-1.1129320860,1.1785048246,-0.7292861342
        2.0020689964,       -0.0024966002,-0.0026960522,0.0035204813,-0.8382738829,1.1785048246,-0.7292861342
        2.0047528744,       -0.0024966002,-0.0026960522,0.0035204813,-0.8382738829,1.1937636137,-0.6224746108
        2.0074319839,       -0.0010317564,0.0026750416,0.0010790750,-0.7924975157,1.1937636137,-0.6224746108
        2.0101249218,       -0.0010317564,0.0026750416,0.0010790750,-0.7924975157,1.1479872465,-0.6072158217
        2.0128059387,       -0.0010317564,0.0026750416,0.0010790750,-0.7314623594,1.1479872465,-0.6072158217
        2.0154848099,       -0.0010317564,0.0026750416,0.0010790750,-0.7314623594,1.1479872465,-0.8208388686
        2.0181858540,        0.0018979311,0.0026750416,0.0069384500,-0.8230150938,1.2395399809,-0.8208388686
        2.0208649635,        0.0018979311,0.0026750416,0.0069384500,-0.8230150938,1.2395399809,-0.6682509780
        2.0235478878,        0.0018979311,0.0026750416,0.0069384500,-0.9908617735,1.1632460356,-0.6682509780
        2.0262269974,        0.0018979311,0.0026750416,-0.0047803000,-0.9908617735,5.0694961548,-0.6224746108
        2.0289528370,        0.0092221498,0.0031633228,-0.0047803000,-0.8993090391,1.4989393950,-0.6224746108
        2.0316329002,        0.0092221498,0.0031633228,-0.0047803000,-0.8993090391,1.4989393950,-0.8513564467
        2.0343158245,        0.0092221498,0.0031633228,-0.0047803000,-0.8382738829,1.8651503325,-0.8513564467
        2.0369977951,        0.0092221498,0.0031633228,0.0025439188,-0.8382738829,-2.0410995483,-0.8971328139
        2.0399129391,        0.0053158998,0.0031633228,0.0025439188,-0.9145678282,1.0106581450,-0.8971328139
        2.0425729752,        0.0053158998,0.0031633228,0.0025439188,-0.9145678282,1.0106581450,-0.8360976577
        2.0452330112,        0.0053158998,0.0031633228,0.0025439188,-1.2197436094,0.8733290434,-0.8360976577
        2.0478768349,       -0.0010317564,0.0056047291,0.0064501688,-1.2197436094,0.8733290434,-0.5156630874
        2.0504498482,       -0.0010317564,0.0056047291,0.0064501688,-1.0824145079,1.1479872465,-0.5156630874
        2.0530209541,       -0.0010317564,0.0056047291,0.0064501688,-1.0824145079,1.1479872465,-0.6987685561
        2.0558028221,       -0.0010317564,0.0056047291,0.0064501688,-0.7772387266,1.4684218168,-0.6987685561
        2.0586040020,        0.0009213686,-0.0026960522,0.0059618875,-0.7772387266,1.4684218168,-4.6050186157
        2.0611720085,        0.0009213686,-0.0026960522,0.0059618875,-1.1739672422,1.0564345121,-0.9734267592
        2.0637359619,        0.0009213686,-0.0026960522,0.0059618875,-1.1739672422,1.0564345121,-0.9734267592
        2.0662980080,        0.0009213686,-0.0026960522,0.0059618875,-1.3112963438,1.2700575590,-0.9734267592
        2.0689330101,        0.0018979311,-0.0031843334,0.0093798563,-1.3112963438,1.2700575590,-0.9734267592
        2.0714960098,        0.0018979311,-0.0031843334,0.0093798563,-1.5859545469,1.3005751371,-1.1107559204
        2.0740668774,        0.0018979311,-0.0031843334,0.0093798563,-1.5859545469,1.3005751371,-1.1107559204
        2.0766317844,        0.0018979311,-0.0031843334,-0.0018506125,-1.3112963438,1.3158339262,-1.0649795532
        2.0792098045,        0.0023862123,0.0021867603,-0.0018506125,-1.3112963438,1.3158339262,-1.0649795532
        2.0817728043,        0.0023862123,0.0021867603,-0.0018506125,-1.3112963438,1.6210097075,-1.0497207642
        2.0843348503,        0.0023862123,0.0021867603,-0.0018506125,-1.3112963438,1.6210097075,-1.0497207642
        2.0869038105,        0.0023862123,0.0021867603,-0.0003857687,-1.4486254454,1.2700575590,-1.0192031860
        2.0895078182,        0.0023862123,0.0070695728,-0.0003857687,-1.4486254454,1.2700575590,-1.0192031860
        2.0920698643,        0.0023862123,0.0070695728,-0.0003857687,-1.4486254454,1.1937636137,-1.2633438110
        2.0946369171,        0.0023862123,0.0070695728,-0.0003857687,-0.9908617735,1.1937636137,-1.2633438110
        2.0971989632,        0.0023862123,-0.1179304272,0.0108447000,-0.9908617735,1.1937636137,-1.2023086548
        2.0997757912,       -0.0005434752,-0.0022077709,0.0108447000,-1.5096606016,1.2242811918,-1.2023086548
        2.1024618149,       -0.0005434752,-0.0022077709,0.0108447000,-1.5096606016,1.2242811918,-1.2786026001
        2.1050298214,       -0.0005434752,-0.0022077709,0.0108447000,-1.3265551329,1.2242811918,-1.2786026001
        2.1075959206,       -0.0005434752,-0.0002546459,0.0074267313,-1.3265551329,1.2242811918,-1.3548965454
        2.1103489399,       -0.0029848814,-0.0002546459,0.0074267313,-1.0671557188,1.4073866606,-1.3548965454
        2.1129188538,       -0.0029848814,-0.0002546459,0.0074267313,-1.0671557188,1.4073866606,-1.3548965454
        2.1154899597,       -0.0029848814,-0.0002546459,0.0074267313,-1.4333666563,1.1632460356,-1.4311904907
        2.1182298660,        0.0058041811,0.0036516041,0.0127978250,-1.4333666563,1.1632460356,-1.4311904907
        2.1209349632,        0.0058041811,0.0036516041,0.0127978250,-2.1200120449,1.3463515043,-1.3548965454
        2.1236329079,        0.0058041811,0.0036516041,0.0127978250,-2.1200120449,1.3463515043,-1.3548965454
        2.1263298988,        0.0058041811,0.0036516041,0.0127978250,-1.5706957579,1.3768690825,-1.3396377563
        2.1290469170,       -0.0024966002,0.0026750416,0.0005907938,-1.5706957579,1.3768690825,-1.3396377563
        2.1317498684,       -0.0024966002,0.0026750416,0.0005907938,-1.1434496641,1.0259169340,-1.2023086548
        2.1344468594,       -0.0024966002,0.0026750416,0.0005907938,-1.1434496641,1.0259169340,-1.2023086548
        2.1371519566,       -0.0024966002,0.0026750416,0.0005907938,-1.0976732969,1.5599745512,-1.5837783813
        2.1397678852,        0.0018979311,0.0075578541,0.0064501688,-1.0976732969,1.5599745512,-1.5837783813
        2.1423368454,        0.0018979311,0.0075578541,0.0064501688,-1.1892260313,1.8956679106,-1.4617080688
        2.1448979378,        0.0018979311,0.0075578541,0.0064501688,-1.1892260313,1.8956679106,-1.4617080688
        2.1474688053,        0.0018979311,0.0075578541,-0.0003857687,-1.2807787657,1.6667860746,-1.3243789673
        2.1501908302,        0.0077573061,0.0036516041,-0.0003857687,-1.2807787657,1.6667860746,-1.3243789673
        2.1528849602,        0.0077573061,0.0036516041,-0.0003857687,-1.2655199766,1.3005751371,-1.5227432251
        2.1555848122,        0.0077573061,0.0036516041,-0.0003857687,-1.2655199766,1.3005751371,-1.5227432251
        2.1583487988,       -0.0010317564,0.0041398853,0.0088915750,-0.9756029844,1.0564345121,-2.0720596313
        2.1609158516,       -0.0010317564,0.0041398853,0.0088915750,-0.9756029844,1.0564345121,-2.0720596313
        2.1634919643,       -0.0010317564,0.0041398853,0.0088915750,-0.8840502501,1.0869520903,-2.2704238892
        2.1661689281,       -0.0010317564,0.0041398853,0.0088915750,-0.8840502501,1.0869520903,-2.2704238892
        2.1687979698,        0.0018979311,0.0060930103,0.0015673563,-0.9450854063,0.8275526762,-2.3162002563
        2.1714990139,        0.0018979311,0.0060930103,0.0015673563,-0.9450854063,0.8275526762,-2.3162002563
        2.1743018627,        0.0018979311,0.0060930103,0.0015673563,-1.1281908751,1.2700575590,-2.4993057251
        2.1770069599,        0.0018979311,0.0060930103,0.0015673563,-1.1281908751,1.2700575590,-2.4993057251
        2.1801319122,        0.0082455873,0.0075578541,0.0064501688,-1.2044848204,1.0411757231,-2.9418106079
        2.1828358173,        0.0082455873,0.0075578541,0.0064501688,-1.2044848204,1.0411757231,-2.9418106079
        2.1855418682,        0.0082455873,0.0075578541,0.0064501688,-1.2502611876,1.0259169340,-2.9570693970
        2.1882448196,        0.0082455873,0.0099992603,0.0088915750,-1.2502611876,1.0259169340,-2.9570693970
        2.1908109188,       -0.0000551939,0.0099992603,0.0088915750,-1.2350023985,0.9953993559,-3.1401748657
        2.1933808327,       -0.0000551939,0.0099992603,0.0088915750,-1.2350023985,0.9953993559,-3.1401748657
        2.1959400177,       -0.0000551939,0.0099992603,0.0088915750,-1.3112963438,1.2090224028,-3.6894912720
        2.1985979080,       -0.0000551939,0.0031633228,0.0005907938,-1.3112963438,1.2090224028,-3.6894912720
        2.2012968063,        0.0033627748,0.0031633228,0.0005907938,-1.5401781797,1.2242811918,-3.2164688110
        2.2039928436,        0.0033627748,0.0031633228,0.0005907938,-1.5401781797,1.2242811918,-3.2164688110
        2.2066969872,        0.0033627748,0.0031633228,0.0005907938,-1.6012133360,0.9648817778,-3.3843154907
        2.2093358040,       -0.0054262877,0.0012101978,0.0035204813,-1.6012133360,0.9648817778,-3.3843154907
        2.2119019032,       -0.0054262877,0.0012101978,0.0035204813,-1.2960375547,1.2395399809,-3.4606094360
        2.2144789696,       -0.0054262877,0.0012101978,0.0035204813,-1.2960375547,1.2395399809,-3.4606094360
        2.2170457840,       -0.0054262877,0.0012101978,0.0035204813,-1.2960375547,1.0869520903,-3.5826797485
        2.2196679115,       -0.0015200377,-0.0026960522,0.0069384500,-1.4028490782,1.0869520903,-3.5826797485
        2.2222340107,       -0.0015200377,-0.0026960522,0.0069384500,-1.4028490782,1.0869520903,-3.7047500610
        2.2248039246,       -0.0015200377,-0.0026960522,0.0069384500,-1.8758715391,1.1327284575,-3.7047500610
        2.2273778915,       -0.0015200377,-0.0026960522,0.0069384500,-1.8758715391,1.1327284575,-3.5216445923
        2.2301449776,        0.0014096498,-0.0007429272,0.0093798563,-1.7843188047,0.9953993559,-3.5216445923
        2.2327158451,        0.0014096498,-0.0007429272,0.0093798563,-1.7843188047,0.9953993559,-3.5216445923
        2.2352859974,        0.0014096498,-0.0007429272,0.0093798563,-1.5401781797,1.1022108793,-3.4148330688
        2.2379717827,        0.0014096498,-0.0007429272,0.0093798563,-1.5401781797,1.1022108793,-3.4148330688
        2.2405428886,       -0.0088442564,-0.0051374584,0.0088915750,-1.4791430235,0.9343641996,-4.0099258423
        2.2431077957,       -0.0088442564,-0.0051374584,0.0088915750,-1.4791430235,0.9343641996,-4.0099258423
        2.2456748486,       -0.0088442564,-0.0051374584,0.0088915750,-1.7843188047,0.9648817778,-3.9794082642
        2.2482709885,       -0.0088442564,-0.0051374584,0.0010790750,-1.7843188047,0.9648817778,-3.9794082642
        2.2509739399,        0.0023862123,-0.0031843334,0.0010790750,-1.9979418516,1.2242811918,-3.5369033813
        2.2536709309,        0.0023862123,-0.0031843334,0.0010790750,-1.9979418516,1.2242811918,-3.5369033813
        2.2563748360,        0.0023862123,-0.0031843334,0.0010790750,-2.2573411465,0.9953993559,-3.9336318970
        2.2590768337,        0.0023862123,-0.0051374584,0.0147509500,-2.2573411465,0.9953993559,-3.9336318970
        2.2617828846,       -0.0044497252,-0.0051374584,0.0147509500,-1.9979418516,1.0411757231,-4.2540664673
        2.2644770145,       -0.0044497252,-0.0051374584,0.0147509500,-1.9979418516,1.0411757231,-4.2540664673
        2.2671749592,       -0.0044497252,-0.0051374584,0.0147509500,-1.7843188047,1.0869520903,-3.6589736938
        2.2697789669,       -0.0020083189,-0.0031843334,0.0079150125,-1.7843188047,1.0869520903,-3.6589736938
        2.2723410130,       -0.0020083189,-0.0031843334,0.0079150125,-1.6317309141,1.0106581450,-3.6742324829
        2.2749099731,       -0.0020083189,-0.0031843334,0.0079150125,-1.6317309141,1.0106581450,-3.6742324829
        2.2774808407,       -0.0020083189,-0.0031843334,0.0079150125,-1.5706957579,0.9038466215,-4.0251846313
        2.2802019119,        0.0023862123,-0.0007429272,0.0054736063,-1.5706957579,0.9038466215,-4.0251846313
        2.2829079628,        0.0023862123,-0.0007429272,0.0054736063,-1.1129320860,0.5528944731,-4.2845840454
        2.2856009007,        0.0023862123,-0.0007429272,0.0054736063,-1.1129320860,0.5528944731,-4.2845840454
        2.2883288860,        0.0023862123,-0.0007429272,0.0054736063,-0.4262865484,0.5986708403,-4.6202774048
        2.2909018993,       -0.0020083189,-0.0036726147,0.0206103250,-0.4262865484,0.5986708403,-4.6202774048
        2.2935738564,       -0.0020083189,-0.0036726147,0.0206103250,-0.3805101812,0.3240126371,-4.7423477173
        2.2963519096,       -0.0020083189,-0.0036726147,0.0206103250,-0.3805101812,0.3240126371,-4.7423477173
        2.2991869450,       -0.0020083189,-0.0036726147,0.0098681375,-0.4415453374,0.5834120512,-4.6202774048
        2.3018980026,        0.0043393373,-0.0070905834,0.0098681375,-0.4415453374,0.5834120512,-4.6202774048
        2.3046069145,        0.0043393373,-0.0070905834,0.0098681375,-0.5178393126,0.3850477934,-4.0099258423
        2.3073029518,        0.0043393373,-0.0070905834,0.0098681375,-0.5178393126,0.3850477934,-4.0099258423
        2.3100068569,        0.0072690248,-0.0090437084,0.0020556375,-0.8687914610,0.7359999418,-3.4453506470
        2.3127088547,        0.0072690248,-0.0090437084,0.0020556375,-0.8687914610,0.7359999418,-3.4453506470
        2.3154098988,        0.0072690248,-0.0090437084,0.0020556375,-0.6399096251,0.9496229887,-2.9875869751
        2.3181548119,        0.0072690248,-0.0090437084,0.0020556375,-0.6399096251,0.9496229887,-2.9875869751
        2.3208489418,        0.0028744936,-0.0149030834,0.0015673563,-0.6399096251,0.8428114653,-3.1554336548
        2.3235487938,        0.0028744936,-0.0149030834,0.0015673563,-0.6399096251,0.8428114653,-3.1554336548
        2.3262529373,        0.0028744936,-0.0149030834,0.0015673563,-0.7314623594,0.8122938871,-3.0791397095
        2.3289148808,        0.0028744936,-0.0149030834,0.0015673563,-0.7314623594,0.8122938871,-3.0791397095
        2.3314859867,       -0.0015200377,-0.0100202709,0.0142626688,3.1747877598,1.2242811918,-2.5908584595
        2.3340559006,       -0.0015200377,-0.0100202709,0.0142626688,-0.4415453374,1.2242811918,-2.5908584595
        2.3366208076,       -0.0015200377,-0.0100202709,0.0142626688,-0.4415453374,1.2242811918,-2.0720596313
        2.3391988277,       -0.0015200377,-0.0100202709,0.0084032938,-0.3499926031,1.1174696684,-2.0720596313
        2.3423810005,       -0.0020083189,-0.0144148022,0.0084032938,-0.3499926031,0.7817763090,-2.4230117798
        2.3449440002,       -0.0020083189,-0.0144148022,0.0084032938,-0.2889574468,0.7817763090,-2.4230117798
        2.3475129604,       -0.0020083189,-0.0144148022,0.0084032938,-0.2889574468,0.9038466215,-2.3467178345
        2.3502509594,        0.0014096498,-0.0100202709,0.0113329813,-0.4262865484,0.9038466215,-2.3467178345
        2.3528218269,        0.0014096498,-0.0100202709,0.0113329813,-0.4262865484,0.9038466215,-2.3314590454
        2.3553829193,        0.0014096498,-0.0100202709,0.0113329813,-0.3042162359,0.9343641996,-2.3314590454
        2.3581018448,        0.0014096498,-0.0100202709,0.0113329813,-0.3042162359,0.9343641996,-2.1941299438
        2.3606719971,        0.0004330873,-0.0017194897,0.0069384500,0.2908765376,0.8428114653,-2.1941299438
        2.3632338047,        0.0004330873,-0.0017194897,0.0069384500,0.2908765376,0.8428114653,-2.1941299438
        2.3657948971,        0.0004330873,-0.0017194897,0.0069384500,0.4129468501,0.6749647856,-1.8584365845
        2.3683669567,        0.0004330873,-0.0017194897,0.0069384500,0.4129468501,0.6749647856,-1.8584365845
        2.3709309101,       -0.0039614439,-0.0041608959,0.0127978250,0.6570874453,0.7207411528,-1.9499893188
        2.3735008240,       -0.0039614439,-0.0041608959,0.0127978250,0.6570874453,0.7207411528,-1.9499893188
        2.3760638237,       -0.0039614439,-0.0041608959,0.0127978250,0.6570874453,0.9038466215,-1.9499893188
        2.3786268234,       -0.0039614439,-0.0041608959,0.0127978250,0.6570874453,0.9038466215,-1.9499893188
        2.3811988831,       -0.0015200377,-0.0075788647,0.0069384500,0.6723462343,0.8885878325,-1.9805068970
        2.3837628365,       -0.0015200377,-0.0075788647,0.0069384500,0.6723462343,0.8885878325,-1.9805068970
        2.3863208294,       -0.0015200377,-0.0075788647,0.0069384500,0.4587232172,0.9191054106,-1.9805068970
        2.3890450001,       -0.0015200377,-0.0075788647,0.0069384500,0.4587232172,0.9191054106,-1.9805068970
        2.3916079998,        0.0038510561,-0.0109968334,0.0010790750,0.5197583437,1.1479872465,-1.7821426392
        2.3941779137,        0.0038510561,-0.0109968334,0.0010790750,0.5197583437,1.1479872465,-1.7821426392
        2.3967390060,        0.0038510561,-0.0109968334,0.0010790750,0.5197583437,1.0411757231,-1.6753311157
        2.3994278908,        0.0038510561,-0.0109968334,0.0010790750,0.6723462343,1.0411757231,-1.6753311157
        2.4019978046,       -0.0024966002,-0.0085554272,0.0088915750,0.6723462343,1.0411757231,-1.0954971313
        2.4045588970,       -0.0024966002,-0.0085554272,0.0088915750,0.3061353266,0.9191054106,-1.0954971313
        2.4071187973,       -0.0024966002,-0.0085554272,0.0088915750,0.3061353266,0.9191054106,-0.9886855483
        2.4098088741,       -0.0024966002,-0.0085554272,0.0088915750,-0.0448168218,1.1937636137,-0.9886855483
        2.4125080109,        0.0038510561,-0.0090437084,0.0074267313,-0.0448168218,1.1937636137,-1.1412734985
        2.4152138233,        0.0038510561,-0.0090437084,0.0074267313,0.5350171328,0.9801405668,-1.1412734985
        2.4179198742,        0.0038510561,-0.0090437084,0.0074267313,0.5350171328,0.9801405668,-1.0039443970
        2.4207270145,        0.0038510561,-0.0056257397,0.0005907938,0.2603589594,0.9343641996,-1.0039443970
        2.4234399796,        0.0009213686,-0.0056257397,0.0005907938,0.2603589594,0.9343641996,-0.8513564467
        2.4261348248,        0.0009213686,-0.0056257397,0.0005907938,-0.1821459234,0.9801405668,-0.8513564467
        2.4288439751,        0.0009213686,-0.0056257397,0.0005907938,-0.1821459234,0.9801405668,-0.8666152358
        2.4315469265,       -0.0029848814,-0.0046491772,0.0010790750,0.0772534907,1.0716933012,-0.8666152358
        2.4342479706,       -0.0029848814,-0.0046491772,0.0010790750,0.0772534907,1.0716933012,-1.1870498657
        2.4369559288,       -0.0029848814,-0.0046491772,0.0010790750,0.2908765376,1.0716933012,-1.1870498657
        2.4396638870,       -0.0029848814,-0.0046491772,0.0010790750,0.2908765376,1.0716933012,-0.8208388686
        2.4423558712,        0.0018979311,-0.0007429272,0.0049853250,0.2145825922,1.3158339262,-0.8208388686
        2.4451248646,        0.0018979311,-0.0007429272,0.0049853250,0.2145825922,1.3158339262,-0.7140273452
        2.4478600025,        0.0018979311,-0.0007429272,0.0049853250,0.2451001704,1.0869520903,-0.7140273452
        2.4505670071,        0.0018979311,-0.0007429272,0.0093798563,0.2451001704,1.0869520903,-0.1952285171
        2.4532678127,        0.0004330873,-0.0070905834,0.0093798563,0.4434644282,0.9953993559,-0.1952285171
        2.4560828209,        0.0004330873,-0.0070905834,0.0093798563,0.4434644282,0.9953993559,-0.2867812514
        2.4594359398,        0.0004330873,-0.0070905834,0.0093798563,0.0314771235,1.2700575590,-0.2867812514
        2.4620068073,        0.0033627748,-0.0095319897,0.0025439188,0.0314771235,1.5141981840,-0.5156630874
        2.4645760059,        0.0033627748,-0.0095319897,0.0025439188,-0.1974047124,1.5141981840,-0.5156630874
        2.4671409130,        0.0033627748,-0.0095319897,0.0025439188,-0.1974047124,1.5141981840,0.0031357408
        2.4697339535,        0.0033627748,-0.0095319897,0.0025439188,-0.5178393126,1.7430800200,0.0031357408
        2.4722969532,       -0.0059145689,-0.0095319897,0.0142626688,-0.5178393126,1.7430800200,0.0031357408
        2.4748578072,       -0.0059145689,-0.0095319897,0.0142626688,-0.0753343999,1.2700575590,0.0641708970
        2.4774239063,       -0.0059145689,-0.0095319897,0.0142626688,-0.0753343999,1.2700575590,0.0641708970
        2.4800479412,       -0.0059145689,-0.0095319897,0.0142626688,0.1840650141,1.1632460356,0.0336533189
        2.4826118946,       -0.0010317564,-0.0085554272,0.0127978250,0.1840650141,1.1632460356,0.0336533189
        2.4851789474,       -0.0010317564,-0.0085554272,0.0127978250,0.5655347109,1.2700575590,0.0946884751
        2.4878787994,       -0.0010317564,-0.0085554272,0.0127978250,0.5655347109,1.2700575590,0.0946884751
        2.4904429913,       -0.0010317564,-0.0085554272,0.0127978250,1.2369214296,0.9648817778,0.2320175767
        2.4930129051,        0.0033627748,-0.0012312084,0.0113329813,1.2369214296,0.9648817778,0.2320175767
        2.4955718517,        0.0033627748,-0.0012312084,0.0113329813,1.0538159609,1.0259169340,0.1557236314
        2.4981808662,        0.0033627748,-0.0012312084,0.0113329813,1.0538159609,1.0259169340,0.1557236314
        2.5007460117,        0.0033627748,-0.0012312084,0.0113329813,0.9317456484,1.1632460356,0.2167587876
        2.5033068657,        0.0067807436,-0.0066023022,-0.0023388937,0.9317456484,1.1632460356,0.2167587876
        2.5058739185,        0.0067807436,-0.0066023022,-0.0023388937,0.9164868593,1.2242811918,0.3693466783
        2.5084929466,        0.0067807436,-0.0066023022,-0.0023388937,0.9164868593,1.2242811918,0.3693466783
        2.5110609531,        0.0067807436,-0.0066023022,0.0030322000,0.9164868593,1.2395399809,0.6134873033
        2.5136330128,        0.0043393373,-0.0036726147,0.0030322000,0.9470044374,1.2395399809,0.6134873033
        2.5161979198,        0.0043393373,-0.0036726147,0.0030322000,0.9470044374,1.2395399809,0.6440048814
        2.5188848972,        0.0043393373,-0.0036726147,0.0030322000,1.1911450624,1.0259169340,0.6440048814
        2.5215899944,        0.0043393373,0.0007219166,0.0020556375,1.1911450624,1.0259169340,0.5371933579
        2.5242888927,        0.0028744936,0.0007219166,0.0020556375,0.8707104921,0.9191054106,0.5371933579
        2.5269927979,        0.0028744936,0.0007219166,0.0020556375,0.8707104921,0.9191054106,0.5982285142
        2.5297369957,        0.0028744936,0.0007219166,0.0020556375,1.2826977968,1.1479872465,0.5982285142
        2.5324339867,        0.0043393373,-0.0036726147,0.0074267313,1.2826977968,1.1479872465,0.7813339829
        2.5351409912,        0.0043393373,-0.0036726147,0.0074267313,1.4047681093,1.3463515043,0.7813339829
        2.5378468037,        0.0043393373,-0.0036726147,0.0074267313,1.4047681093,1.3463515043,0.6287460923
        2.5404160023,        0.0043393373,-0.0036726147,0.0074267313,0.9622632265,1.2242811918,0.6287460923
        2.5429918766,        0.0062924623,0.0016984791,0.0098681375,0.9622632265,1.2242811918,0.6287460923
        2.5455539227,        0.0062924623,0.0016984791,0.0098681375,0.7333813906,1.0869520903,0.5066757798
        2.5481708050,        0.0062924623,0.0016984791,0.0098681375,0.7333813906,1.0869520903,0.5066757798
        2.5509698391,        0.0062924623,0.0016984791,0.0098681375,0.2908765376,1.4073866606,0.5066757798
        2.5536658764,        0.0004330873,-0.0046491772,0.0201220438,0.2908765376,1.4073866606,0.5066757798
        2.5563688278,        0.0004330873,-0.0046491772,0.0201220438,0.3976880610,1.6515272856,0.7660751939
        2.5590748787,        0.0004330873,-0.0046491772,0.0201220438,0.3976880610,1.6515272856,0.7660751939
        2.5617709160,        0.0004330873,-0.0046491772,0.0127978250,0.3061353266,1.0716933012,0.6287460923
        2.5644729137,       -0.0010317564,-0.0026960522,0.0127978250,0.3061353266,1.0716933012,0.6287460923
        2.5671668053,       -0.0010317564,-0.0026960522,0.0127978250,0.0009595454,1.1327284575,0.4761582017
        2.5698888302,       -0.0010317564,-0.0026960522,0.0127978250,0.0009595454,1.1327284575,0.4761582017
        2.5725929737,        0.0038510561,0.0031633228,0.0088915750,0.1230298579,1.4226454496,0.3846054673
        2.5754549503,        0.0038510561,0.0031633228,0.0088915750,0.1230298579,1.4226454496,0.3846054673
        2.5785458088,        0.0038510561,0.0031633228,0.0088915750,0.1840650141,1.4531630278,0.3388291001
        2.5812509060,        0.0038510561,0.0031633228,0.0088915750,0.1840650141,1.4531630278,0.3846054673
        2.5839579105,       -0.0005434752,0.0007219166,0.0064501688,-0.2431810796,1.4073866606,0.3846054673
        2.5866549015,       -0.0005434752,0.0007219166,0.0064501688,-0.2431810796,1.4073866606,0.3388291001
        2.5892989635,       -0.0005434752,0.0007219166,0.0064501688,-0.2126635015,1.1174696684,0.3388291001
        2.5918698311,       -0.0005434752,0.0007219166,0.0035204813,-0.2126635015,1.1174696684,0.3388291001
        2.5944359303,        0.0009213686,0.0016984791,0.0035204813,-1.0976732969,1.6667860746,0.0183945298
        2.5970039368,        0.0009213686,0.0016984791,0.0035204813,-1.0976732969,1.6667860746,0.0183945298
        2.5995819569,        0.0009213686,0.0016984791,0.0035204813,-1.3875902891,1.9414442778,-0.2562636733
        2.6021409035,        0.0009213686,0.0016984791,0.0074267313,-1.3875902891,1.9414442778,-0.2562636733
        2.6047070026,       -0.0005434752,0.0036516041,0.0074267313,-0.9756029844,1.6667860746,-0.3935927749
        2.6072728634,       -0.0005434752,0.0036516041,0.0074267313,-0.9756029844,1.6667860746,-0.3935927749
        2.6099050045,       -0.0005434752,0.0036516041,0.0074267313,-0.9298266172,1.4684218168,-0.6835097671
        2.6124730110,       -0.0005434752,0.0080461353,0.0030322000,-0.9298266172,1.4684218168,-0.6835097671
        2.6151418686,        0.0048276186,0.0080461353,0.0030322000,-0.9450854063,1.3463515043,-0.7445449233
        2.6177029610,        0.0048276186,0.0080461353,0.0030322000,-0.9450854063,1.3463515043,-0.7445449233
        2.6202838421,        0.0048276186,0.0080461353,0.0030322000,-1.0518969297,1.3310927153,-0.7903212905
        2.6228427887,        0.0048276186,0.0051164478,-0.0023388937,-1.0518969297,1.3310927153,-0.7903212905
        2.6254048347,        0.0082455873,0.0051164478,-0.0023388937,-1.0518969297,1.1632460356,-0.8360976577
        2.6280338764,        0.0082455873,0.0051164478,-0.0023388937,-1.0824145079,1.1632460356,-0.8360976577
        2.6306138039,        0.0082455873,0.0051164478,-0.0023388937,-1.0824145079,1.1632460356,-1.0344619751
        2.6331830025,        0.0009213686,0.0056047291,-0.0003857687,-1.6622484922,1.3768690825,-1.0344619751
        2.6357448101,        0.0009213686,0.0056047291,-0.0003857687,-1.6622484922,1.3768690825,-1.0802383423
        2.6384499073,        0.0009213686,0.0056047291,-0.0003857687,-1.5096606016,1.6210097075,-1.0802383423
        2.6410138607,        0.0009213686,0.0056047291,-0.0003857687,-1.5096606016,1.6210097075,-1.0802383423
        2.6435749531,        0.0033627748,0.0036516041,-0.0023388937,-1.2350023985,1.3158339262,-1.1870498657
        2.6461479664,        0.0033627748,0.0036516041,-0.0023388937,-1.2350023985,1.3158339262,-1.1870498657
        2.6487889290,        0.0033627748,0.0036516041,-0.0023388937,-0.7924975157,1.1479872465,-1.9042129517
        2.6513569355,        0.0033627748,0.0036516041,-0.0023388937,-0.7924975157,1.1479872465,-1.9042129517
        2.6539278030,        0.0028744936,-0.0041608959,0.0079150125,-1.0213793516,1.3921278715,-1.9499893188
        2.6564958096,        0.0028744936,-0.0041608959,0.0079150125,-1.0213793516,1.3921278715,-1.9499893188
        2.6592857838,        0.0028744936,-0.0041608959,0.0079150125,-1.5249193907,1.3616102934,-1.4311904907
        2.6619539261,        0.0028744936,-0.0041608959,0.0079150125,-1.5249193907,1.3616102934,-1.4311904907
        2.6648697853,        0.0023862123,0.0031633228,-0.0086865500,-1.1739672422,0.7359999418,-1.9194717407
        2.6675739288,        0.0023862123,0.0031633228,-0.0086865500,-1.1739672422,0.7359999418,-1.9194717407
        2.6702799797,        0.0023862123,0.0031633228,-0.0086865500,-1.1739672422,1.4226454496,-1.8584365845
        2.6729788780,        0.0023862123,-0.0002546459,0.0088915750,-1.1739672422,1.4226454496,-1.8584365845
        2.6756768227,       -0.0024966002,-0.0002546459,0.0088915750,-1.2960375547,1.4531630278,-1.4922256470
        2.6784927845,       -0.0024966002,-0.0002546459,0.0088915750,-1.2960375547,1.4531630278,-1.4922256470
        2.6811928749,       -0.0024966002,-0.0002546459,0.0088915750,-1.1587084532,0.9801405668,-1.4922256470
        2.6838939190,       -0.0024966002,0.0051164478,0.0064501688,-1.1587084532,0.9801405668,-1.4922256470
        2.6865918636,       -0.0024966002,0.0051164478,0.0064501688,-1.2350023985,1.1479872465,-1.8736953735
        2.6892650127,       -0.0024966002,0.0051164478,0.0064501688,-1.2350023985,1.1479872465,-1.8736953735
        2.6918327808,       -0.0024966002,0.0051164478,0.0064501688,-1.5554369688,1.1022108793,-1.9805068970
        2.6943957806,       -0.0005434752,-0.0026960522,0.0064501688,-1.5554369688,1.1022108793,-1.9805068970
        2.6969649792,       -0.0005434752,-0.0026960522,0.0064501688,-0.9908617735,1.0869520903,-2.1788711548
        2.6995398998,       -0.0005434752,-0.0026960522,0.0064501688,-0.9908617735,1.0869520903,-2.1788711548
        2.7021110058,       -0.0005434752,-0.0026960522,0.0064501688,-1.0366381407,1.0411757231,-2.4230117798
        2.7046790123,       -0.0044497252,-0.0012312084,0.0088915750,-1.0366381407,1.0411757231,-2.4230117798
        2.7072467804,       -0.0044497252,-0.0012312084,0.0088915750,-0.8382738829,1.5141981840,-2.2856826782
        2.7099769115,       -0.0044497252,-0.0012312084,0.0088915750,-0.8382738829,1.5141981840,-2.2856826782
        2.7125449181,       -0.0044497252,-0.0012312084,0.0088915750,-0.8382738829,1.4836806059,-2.1025772095
        2.7151129246,       -0.0039614439,0.0021867603,0.0084032938,-0.8535326719,1.4836806059,-2.1025772095
        2.7176818848,       -0.0039614439,0.0021867603,0.0084032938,-0.8535326719,1.2700575590,-2.0110244751
        2.7204809189,       -0.0039614439,0.0021867603,0.0084032938,-0.5636156797,1.2700575590,-2.0110244751
        2.7231798172,       -0.0039614439,0.0021867603,0.0010790750,-0.5636156797,1.2700575590,-2.4993057251
        2.7258729935,       -0.0010317564,-0.0017194897,0.0010790750,-0.6704272032,1.2700575590,-2.4993057251
        2.7285819054,       -0.0010317564,-0.0017194897,0.0010790750,-0.6704272032,1.0564345121,-2.5145645142
        2.7312798500,       -0.0010317564,-0.0017194897,0.0010790750,-0.2736986578,1.0564345121,-2.5145645142
        2.7339808941,        0.0033627748,0.0016984791,0.0069384500,-0.2736986578,1.0564345121,-2.8197402954
        2.7366797924,        0.0033627748,0.0016984791,0.0069384500,-0.2126635015,0.9343641996,-2.8197402954
        2.7393209934,        0.0033627748,0.0016984791,0.0069384500,-0.2126635015,0.9343641996,-2.4993057251
        2.7420020103,        0.0033627748,0.0016984791,0.0069384500,-0.5483568907,1.1327284575,-2.4993057251
        2.7445738316,        0.0028744936,-0.0007429272,-0.0008740500,-0.5483568907,1.1327284575,-2.4230117798
        2.7471427917,        0.0028744936,-0.0007429272,-0.0008740500,-0.5483568907,1.0259169340,-2.4230117798
        2.7498168945,        0.0028744936,-0.0007429272,-0.0008740500,-0.5483568907,1.0259169340,-2.5450820923
        2.7525348663,        0.0028744936,-0.0007429272,-0.0008740500,-0.5330981016,1.0869520903,-2.5450820923
        2.7551009655,       -0.0020083189,-0.0031843334,0.0108447000,-0.5330981016,1.0869520903,-2.5450820923
        2.7576699257,       -0.0020083189,-0.0031843334,0.0108447000,-0.4262865484,0.7817763090,-2.8655166626
        2.7604918480,       -0.0020083189,-0.0031843334,0.0108447000,-0.4262865484,0.7817763090,-2.8655166626
        2.7637138367,       -0.0020083189,0.1218156666,0.0054736063,-0.2126635015,1.0564345121,-2.3772354126
        2.7664258480,        0.0028744936,0.0002336353,0.0054736063,-0.2126635015,1.0564345121,-2.4382705688
        2.7691388130,        0.0028744936,0.0002336353,0.0054736063,-0.5788744688,0.7665175200,-2.4382705688
        2.7718398571,        0.0028744936,0.0002336353,0.0054736063,-0.5788744688,0.7665175200,-2.2093887329
        2.7745409012,       -0.0010317564,-0.0036726147,0.0064501688,-0.3042162359,0.5986708403,-2.2093887329
        2.7772419453,       -0.0010317564,-0.0036726147,0.0064501688,-0.3042162359,0.5986708403,-2.6213760376
        2.7799539566,       -0.0010317564,-0.0036726147,0.0064501688,-0.3652513921,0.8428114653,-2.6213760376
        2.7826519012,       -0.0010317564,-0.0036726147,0.0064501688,-0.3652513921,0.8428114653,-2.7434463501
        2.7853529453,        0.0014096498,-0.0002546459,-0.0028271750,-0.5941332579,0.9648817778,-2.7434463501
        2.7881009579,        0.0014096498,-0.0002546459,-0.0028271750,-0.5941332579,0.9648817778,-2.5603408813
        2.7906658649,        0.0014096498,-0.0002546459,-0.0028271750,-0.5330981016,0.9801405668,-2.5603408813
        2.7932298183,        0.0014096498,-0.0002546459,-0.0028271750,-0.5330981016,0.9801405668,-2.5603408813
        2.7957999706,       -0.0010317564,-0.0114851147,0.0108447000,-0.6856859922,0.7665175200,-2.4687881470
        2.7983729839,       -0.0010317564,-0.0114851147,0.0108447000,-0.6856859922,0.7665175200,-2.4687881470
        2.8009459972,       -0.0010317564,-0.0114851147,0.0108447000,-0.5788744688,0.5986708403,-2.8044815063
        2.8035140038,       -0.0010317564,-0.0114851147,0.0108447000,-0.5788744688,0.5986708403,-2.8044815063
        2.8061900139,       -0.0000551939,-0.0056257397,0.0035204813,-0.2889574468,0.4918593168,-2.4077529907
        2.8088510036,       -0.0000551939,-0.0056257397,0.0035204813,-0.2889574468,0.4918593168,-2.4077529907
        2.8114178181,       -0.0000551939,-0.0056257397,0.0035204813,-0.5025805235,0.5376356840,-2.4993057251
        2.8139779568,       -0.0000551939,-0.0056257397,0.0098681375,-0.5025805235,0.5376356840,-2.4993057251
        2.8165488243,        0.0018979311,-0.0046491772,0.0098681375,-0.4262865484,0.5834120512,-2.3924942017
        2.8193068504,        0.0018979311,-0.0046491772,0.0098681375,-0.4262865484,0.5834120512,-2.3924942017
        2.8220098019,        0.0018979311,-0.0046491772,0.0098681375,-0.2584398687,0.8580702543,-2.8349990845
        2.8247058392,        0.0018979311,-0.0075788647,0.0079150125,-0.2584398687,0.8580702543,-2.8349990845
        2.8274059296,       -0.0020083189,-0.0075788647,0.0079150125,-0.2584398687,0.6444472075,-2.8044815063
        2.8301539421,       -0.0020083189,-0.0075788647,0.0079150125,-0.2584398687,0.6444472075,-2.8044815063
        2.8328459263,       -0.0020083189,-0.0075788647,0.0079150125,-0.3347338140,0.6902235746,-2.8349990845
        2.8355388641,        0.0023862123,-0.0046491772,-0.0003857687,-0.3347338140,0.6902235746,-2.8349990845
        2.8382468224,        0.0023862123,-0.0046491772,-0.0003857687,-0.1668871343,0.9343641996,-2.3162002563
        2.8408110142,        0.0023862123,-0.0046491772,-0.0003857687,-0.1668871343,0.9343641996,-2.3162002563
        2.8433837891,        0.0023862123,-0.0046491772,-0.0003857687,-0.2736986578,0.8580702543,-2.5908584595
        2.8459489346,        0.0058041811,-0.0026960522,-0.0062451437,-0.2736986578,0.8580702543,-2.5908584595
        2.8485867977,        0.0058041811,-0.0026960522,-0.0062451437,-0.2736986578,0.9191054106,-2.5145645142
        2.8512938023,        0.0058041811,-0.0026960522,-0.0062451437,-0.1668871343,0.9191054106,-2.5145645142
        2.8539919853,        0.0058041811,-0.0026960522,-0.0062451437,-0.1668871343,0.5376356840,-2.3162002563
        2.8566927910,        0.0014096498,-0.0090437084,0.0127978250,-0.1058519781,0.5376356840,-2.3162002563
        2.8594689369,        0.0014096498,-0.0090437084,0.0127978250,-4.0121021271,0.6749647856,-2.2704238892
        2.8621559143,        0.0014096498,-0.0090437084,0.0127978250,-0.6856859922,0.6749647856,-2.2704238892
        2.8648459911,        0.0014096498,-0.0105085522,0.0005907938,3.2205641270,0.6597059965,-2.3009414673
        2.8675329685,        0.0023862123,-0.0105085522,0.0005907938,-0.4568041265,0.6597059965,-2.3009414673
        2.8705279827,        0.0023862123,-0.0105085522,0.0005907938,-0.3042162359,0.7054823637,-2.0110244751
        2.8732237816,        0.0023862123,-0.0105085522,0.0005907938,-0.3042162359,0.7054823637,-2.0110244751
        2.8760368824,        0.0023862123,-0.0017194897,0.0049853250,-0.6399096251,0.6597059965,-1.8584365845
        2.8788259029,        0.0023862123,-0.0017194897,0.0049853250,-0.6399096251,0.6597059965,-1.8584365845
        2.8815329075,        0.0023862123,-0.0017194897,0.0049853250,-0.6856859922,0.4918593168,-1.7974014282
        2.8842217922,        0.0023862123,-0.0017194897,0.0049853250,-0.6856859922,0.4918593168,-1.7974014282
        2.8869090080,        0.0009213686,-0.0051374584,0.0074267313,-0.9450854063,1.0106581450,-1.5227432251
        2.8896358013,        0.0009213686,-0.0051374584,0.0074267313,-0.9450854063,1.0106581450,-1.5227432251
        2.8922019005,        0.0009213686,-0.0051374584,0.0074267313,-0.9450854063,0.8733290434,-1.9499893188
        2.8947699070,        0.0009213686,-0.0051374584,0.0054736063,-0.7924975157,0.8733290434,-1.9499893188
        2.8973360062,        0.0038510561,-0.0026960522,0.0054736063,-0.7924975157,0.8733290434,-1.6905899048
        2.9000458717,        0.0038510561,-0.0026960522,0.0054736063,-0.5178393126,1.1785048246,-1.6905899048
        2.9027459621,        0.0038510561,-0.0026960522,0.0054736063,-0.5178393126,1.1785048246,-1.6142959595
        2.9054529667,        0.0038510561,-0.0036726147,0.0132861063,-0.8230150938,1.2090224028,-1.6142959595
        2.9081628323,        0.0038510561,-0.0036726147,0.0132861063,-0.8230150938,1.2090224028,-1.5380020142
