time, acceleration x, acceleration y, acceleration z, gyro x gyro y, gyro z
        0.0000000000,       -0.0288683772,-0.1458387822,0.0530910566,3.5703573227,-1.5031222105,1.9407424927
        0.0025599003,       -0.0288683772,-0.1458387822,0.0530910566,2.0749959946,-1.3047579527,1.9407424927
        0.0051209927,       -0.0288683772,-0.1458387822,0.0530910566,2.0749959946,-1.3047579527,1.9407424927
        0.0077428818,       -0.0371691585,-0.1390028447,0.0506496504,1.3273152113,-1.1674288511,2.1238479614
        0.0103919506,       -0.0371691585,-0.1390028447,0.0506496504,1.3273152113,-1.1674288511,2.1238479614
        0.0129508972,       -0.0371691585,-0.1390028447,0.0506496504,1.6782673597,-1.0148409605,2.4595413208
        0.0155107975,       -0.0371691585,-0.1390028447,0.0506496504,1.6782673597,-1.0148409605,2.4595413208
        0.0182018280,       -0.0298449397,-0.1541395634,0.0540676191,1.7393025160,-1.0758761168,3.1156692505
        0.0207829475,       -0.0298449397,-0.1541395634,0.0540676191,1.7393025160,-1.0758761168,3.1156692505
        0.0233378410,       -0.0298449397,-0.1541395634,0.0540676191,1.8766316175,-1.0758761168,3.5581741333
        0.0258929729,       -0.0298449397,-0.1541395634,0.0540676191,1.8766316175,-1.0758761168,3.5581741333
        0.0286598206,       -0.0483996272,-0.1658583134,0.0540676191,2.5175008774,-1.0148409605,4.4889602661
        0.0312268734,       -0.0483996272,-0.1658583134,0.0540676191,2.5175008774,-1.0148409605,4.4889602661
        0.0337779522,       -0.0483996272,-0.1658583134,0.0540676191,2.7769002914,-0.2976778746,5.3129348755
        0.0363509655,       -0.0483996272,-0.1658583134,0.0540676191,2.7769002914,-0.2976778746,5.3129348755
        0.0390188694,       -0.0567004085,-0.1858778447,0.0526027754,1.8308552504,-0.2061251402,5.6486282349
        0.0415878296,       -0.0567004085,-0.1858778447,0.0526027754,1.8308552504,-0.2061251402,5.6486282349
        0.0441489220,       -0.0567004085,-0.1858778447,0.0526027754,1.8308552504,-0.0077608824,6.6709671021
        0.0467069149,       -0.0567004085,-0.1858778447,0.0526027754,1.9224079847,-0.0077608824,6.6709671021
        0.0492968559,       -0.0601183772,-0.1639051884,0.0521144941,1.9224079847,-0.0077608824,7.1134719849
        0.0520238876,       -0.0601183772,-0.1639051884,0.0521144941,2.1360311508,0.7704373598,7.1134719849
        0.0545859337,       -0.0601183772,-0.1639051884,0.0521144941,2.1360311508,0.7704373598,6.4268264771
        0.0571539402,       -0.0601183772,-0.1639051884,0.0482082441,2.3954305649,1.3502713442,6.4268264771
        0.0598278046,       -0.0752550960,-0.1390028447,0.0482082441,2.3954305649,1.3502713442,6.1674270630
        0.0625128746,       -0.0752550960,-0.1390028447,0.0482082441,4.6689901352,1.7775174379,6.1674270630
        0.0651888847,       -0.0752550960,-0.1390028447,0.0482082441,4.6689901352,1.7775174379,5.6181106567
        0.0679118633,        0.0497449040,-0.0994520634,0.0267238710,6.7289266586,1.2282010317,5.6181106567
        0.0705788136,       -0.0557238460,-0.0994520634,0.0267238710,6.7289266586,1.2282010317,4.9925003052
        0.0732889175,       -0.0557238460,-0.0994520634,0.0267238710,8.9414510727,0.5415555239,4.9925003052
        0.0759708881,       -0.0557238460,-0.0994520634,0.0267238710,8.9414510727,0.5415555239,4.4431838989
        0.0787019730,       -0.0503527522,-0.1038465947,0.0286769960,10.6199178696,0.1295682192,4.4431838989
        0.0813829899,       -0.0503527522,-0.1038465947,0.0286769960,10.6199178696,0.1295682192,4.4431838989
        0.0840709209,       -0.0503527522,-0.1038465947,0.0286769960,12.6035604477,-0.3281954527,4.4584426880
        0.0867559910,       -0.0503527522,-0.1038465947,0.0286769960,12.6035604477,-0.3281954527,4.4584426880
        0.0894608498,       -0.0357043147,-0.1087294072,0.0482082441,14.4803915024,-0.6181124449,4.3058547974
        0.0921738148,       -0.0357043147,-0.1087294072,0.0482082441,14.4803915024,-0.6181124449,4.3058547974
        0.0948739052,       -0.0357043147,-0.1087294072,0.0482082441,13.9768514633,-0.7249239683,4.2295608521
        0.0975739956,       -0.0357043147,-0.1087294072,0.0408840254,13.9768514633,-0.7249239683,4.2295608521
        0.1002810001,       -0.0405871272,-0.1414442509,0.0408840254,13.4427938461,-0.6638888121,4.1227493286
        0.1029829979,       -0.0405871272,-0.1414442509,0.0408840254,13.4427938461,-0.6638888121,4.1227493286
        0.1056900024,       -0.0405871272,-0.1414442509,0.0408840254,12.8629598618,-0.9843233824,4.1074905396
        0.1084017754,       -0.0396105647,-0.1414442509,0.0350246504,12.8629598618,-0.9843233824,4.1074905396
        0.1111028194,       -0.0396105647,-0.1414442509,0.0350246504,12.6951131821,-0.7096651793,4.2143020630
        0.1138088703,       -0.0396105647,-0.1414442509,0.0350246504,12.6951131821,-0.7096651793,4.2143020630
        0.1166257858,       -0.0396105647,-0.1414442509,0.0350246504,12.3746786118,-1.3810518980,4.4737014771
        0.1193408966,       -0.0249621272,-0.1184950322,0.0364894941,12.3746786118,-1.3810518980,4.4737014771
        0.1220469475,       -0.0249621272,-0.1184950322,0.0364894941,13.7937459946,-1.6251925230,3.6955032349
        0.1247479916,       -0.0249621272,-0.1184950322,0.0364894941,13.7937459946,-1.6251925230,3.6955032349
        0.1274609566,       -0.0249621272,-0.1184950322,0.0364894941,14.4498739243,-1.3810518980,2.9630813599
        0.1300327778,       -0.0459582210,-0.1238661259,0.0399074629,14.4498739243,-1.3810518980,2.9630813599
        0.1326048374,       -0.0459582210,-0.1238661259,0.0399074629,13.8547811508,-0.5418184996,3.5734329224
        0.1351809502,       -0.0459582210,-0.1238661259,0.0399074629,13.8547811508,-0.5418184996,3.5734329224
        0.1377577782,       -0.0459582210,-0.1238661259,0.0467434004,12.5272665024,-0.4502657652,4.1227493286
        0.1404128075,       -0.0400988460,-0.1429090947,0.0467434004,12.5272665024,-0.4502657652,4.1227493286
        0.1430838108,       -0.0400988460,-0.1429090947,0.0467434004,11.0929403305,-0.2519015074,4.2600784302
        0.1457448006,       -0.0400988460,-0.1429090947,0.0467434004,11.0929403305,-0.2519015074,4.2600784302
        0.1484298706,       -0.0400988460,-0.1575575322,0.0555324629,9.4144735336,0.2516385317,4.5347366333
        0.1511349678,       -0.0391222835,-0.1575575322,0.0555324629,9.4144735336,0.2516385317,4.5347366333
        0.1538419724,       -0.0391222835,-0.1575575322,0.0555324629,7.2477254868,0.0990506411,4.7331008911
        0.1565399170,       -0.0391222835,-0.1575575322,0.0555324629,7.2477254868,0.0990506411,4.7331008911
        0.1592359543,       -0.0430285335,-0.1253309697,0.0486965254,6.3321981430,0.2516385317,4.5805130005
        0.1619338989,       -0.0430285335,-0.1253309697,0.0486965254,6.3321981430,0.2516385317,4.5805130005
        0.1646339893,       -0.0430285335,-0.1253309697,0.0486965254,6.5000448227,0.2058621645,4.5194778442
        0.1673309803,       -0.0430285335,-0.1253309697,0.0486965254,6.5000448227,0.2058621645,4.5194778442
        0.1700329781,       -0.0400988460,-0.1116590947,0.0535793379,8.0106649399,-0.0840548277,4.3974075317
        0.1727299690,       -0.0400988460,-0.1116590947,0.0535793379,8.0106649399,-0.0840548277,4.3974075317
        0.1754269600,       -0.0400988460,-0.1116590947,0.0535793379,8.8041219711,-0.2976778746,4.1837844849
        0.1781167984,       -0.0400988460,-0.1116590947,0.0535793379,8.8041219711,-0.2976778746,4.1837844849
        0.1807949543,       -0.0347277522,-0.1014051884,0.0482082441,9.8417196274,-0.3129366636,4.1227493286
        0.1833717823,       -0.0347277522,-0.1014051884,0.0482082441,9.8417196274,-0.3129366636,4.1227493286
        0.1859459877,       -0.0347277522,-0.1014051884,0.0482082441,9.9332723618,-0.4807833433,3.6802444458
        0.1885848045,       -0.0347277522,-0.1014051884,0.0452785566,9.9332723618,-0.4807833433,3.6802444458
        0.1912930012,       -0.0112902522,-0.1136122197,0.0452785566,10.0706014633,-0.9080294371,3.0241165161
        0.1939969063,       -0.0112902522,-0.1136122197,0.0452785566,10.0706014633,-0.9080294371,3.0241165161
        0.1966948509,       -0.0112902522,-0.1136122197,0.0452785566,9.6891317368,-1.1826876402,2.2306594849
        0.1994178295,       -0.0049425960,-0.1004286259,0.0443019941,9.6891317368,-1.1826876402,2.2306594849
        0.2021129131,       -0.0049425960,-0.1004286259,0.0443019941,9.4297323227,-1.4420870543,1.6050491333
        0.2048130035,       -0.0049425960,-0.1004286259,0.0443019941,9.4297323227,-1.4420870543,1.6050491333
        0.2075238228,       -0.0049425960,-0.1004286259,0.0443019941,8.5294637680,-0.9995821714,1.4982376099
        0.2102220058,       -0.0156847835,-0.1077528447,0.0491848066,8.5294637680,-0.9995821714,1.4982376099
        0.2129259109,       -0.0156847835,-0.1077528447,0.0491848066,8.5294637680,-0.8622530699,1.3303909302
        0.2156248093,       -0.0156847835,-0.1077528447,0.0491848066,7.9648885727,-0.8622530699,1.3303909302
        0.2183330059,       -0.0156847835,-0.1077528447,0.0491848066,7.9648885727,-0.7401827574,0.6437454224
        0.2210309505,       -0.0137316585,-0.1057997197,0.0589504316,7.4766073227,-0.7401827574,0.6437454224
        0.2237339020,       -0.0137316585,-0.1057997197,0.0589504316,7.4766073227,-0.6028536558,-0.6990280151
        0.2264349461,       -0.0137316585,-0.1057997197,0.0589504316,6.7747030258,-0.6028536558,-0.6990280151
        0.2290728092,       -0.0137316585,-0.1057997197,0.0540676191,6.7747030258,-0.6791476011,-1.2025680542
        0.2316398621,       -0.0230090022,-0.1057997197,0.0540676191,6.4542684555,-0.6791476011,-1.2025680542
        0.2342119217,       -0.0230090022,-0.1057997197,0.0540676191,6.4542684555,-0.6791476011,-1.8739547729
        0.2367818356,       -0.0230090022,-0.1057997197,0.0540676191,6.5915975571,-0.9995821714,-1.8739547729
        0.2394518852,       -0.0230090022,-0.1253309697,0.0511379316,6.5915975571,-0.9995821714,-2.6063766479
        0.2421569824,       -0.0269152522,-0.1253309697,0.0511379316,6.3474569321,-0.8164767027,-2.6063766479
        0.2449629307,       -0.0269152522,-0.1253309697,0.0511379316,6.3474569321,-0.8164767027,-2.9268112183
        0.2477049828,       -0.0269152522,-0.1253309697,0.0511379316,5.5845174789,-0.2366427183,-2.9268112183
        0.2504029274,       -0.0464465022,-0.1307020634,0.0506496504,5.5845174789,-0.2366427183,-3.2930221558
        0.2530968189,       -0.0464465022,-0.1307020634,0.0506496504,4.6079549789,0.0685330629,-3.2930221558
        0.2557959557,       -0.0464465022,-0.1307020634,0.0506496504,4.6079549789,0.0685330629,-2.9573287964
        0.2585089207,       -0.0464465022,-0.1307020634,0.0506496504,4.2112264633,0.4805203676,-2.9573287964
        0.2612028122,       -0.0332629085,-0.1341200322,0.0511379316,4.2112264633,0.4805203676,-2.8962936401
        0.2638998032,       -0.0332629085,-0.1341200322,0.0511379316,3.3872518539,0.4957791567,-2.8962936401
        0.2665917873,       -0.0332629085,-0.1341200322,0.0511379316,3.3872518539,0.4957791567,-2.6674118042
        0.2693259716,       -0.0332629085,-0.1341200322,0.0433254316,2.4412069321,0.1143094301,-2.6674118042
        0.2720308304,       -0.0391222835,-0.1375380009,0.0433254316,2.4412069321,0.1143094301,-2.5606002808
        0.2747259140,       -0.0391222835,-0.1375380009,0.0433254316,2.7463827133,0.2363797426,-2.5606002808
        0.2774307728,       -0.0391222835,-0.1375380009,0.0433254316,2.7463827133,0.2363797426,-2.5606002808
        0.2799928188,       -0.0391222835,-0.1253309697,0.0325832441,2.9142293930,-0.0077608824,-2.3622360229
        0.2825570107,       -0.0239855647,-0.1253309697,0.0325832441,2.9142293930,-0.0077608824,-2.3622360229
        0.2851269245,       -0.0239855647,-0.1253309697,0.0325832441,3.3262166977,-0.2213839293,-2.4690475464
        0.2877399921,       -0.0239855647,-0.1253309697,0.0325832441,3.3262166977,-0.2213839293,-2.4690475464
        0.2904379368,       -0.0166613460,-0.1233778447,0.0281887148,3.2956991196,-0.4960421324,-2.5453414917
        0.2931399345,       -0.0166613460,-0.1233778447,0.0281887148,3.2956991196,-0.4960421324,-2.5453414917
        0.2958319187,       -0.0166613460,-0.1233778447,0.0281887148,3.8907918930,-0.8317354918,-2.8657760620
        0.2985467911,       -0.0166613460,-0.1233778447,0.0281887148,3.8907918930,-0.8317354918,-2.8657760620
        0.3012409210,       -0.0156847835,-0.1233778447,0.0447902754,3.8907918930,-0.9385470152,-3.2930221558
        0.3039388657,       -0.0156847835,-0.1233778447,0.0447902754,3.8907918930,-0.9385470152,-3.2930221558
        0.3066368103,       -0.0156847835,-0.1233778447,0.0447902754,3.5245809555,-1.0300997496,-3.5524215698
        0.3094489574,       -0.0156847835,-0.1233778447,0.0364894941,3.5245809555,-1.0300997496,-3.5524215698
        0.3121428490,       -0.0156847835,-0.1165419072,0.0364894941,3.2956991196,-1.3200167418,-3.4303512573
        0.3148438931,       -0.0156847835,-0.1165419072,0.0364894941,3.2956991196,-1.3200167418,-3.4303512573
        0.3175468445,       -0.0156847835,-0.1165419072,0.0364894941,3.3414754868,-1.2132052183,-3.4303512573
        0.3202488422,       -0.0156847835,-0.1214247197,0.0672512129,3.3414754868,-1.2132052183,-3.4303512573
        0.3229458332,       -0.0112902522,-0.1214247197,0.0672512129,3.5398397446,-1.3200167418,-3.6897506714
        0.3256409168,       -0.0112902522,-0.1214247197,0.0672512129,3.5398397446,-1.3200167418,-3.6897506714
        0.3283178806,       -0.0112902522,-0.1214247197,0.0672512129,4.4858846664,-1.5031222105,-4.1627731323
        0.3308789730,       -0.0108019710,-0.1243544072,0.0711574629,4.4858846664,-1.5031222105,-4.1627731323
        0.3334419727,       -0.0108019710,-0.1243544072,0.0711574629,5.4319295883,-1.4420870543,-4.1627731323
        0.3360137939,       -0.0108019710,-0.1243544072,0.0711574629,5.4319295883,-1.4420870543,-4.1627731323
        0.3386409283,       -0.0108019710,-0.1243544072,0.0711574629,6.3016805649,-1.2589815855,-4.4984664917
        0.3413448334,       -0.0093371272,-0.1497450322,0.0692043379,6.3016805649,-1.2589815855,-4.4984664917
        0.3440449238,       -0.0093371272,-0.1497450322,0.0692043379,5.8591756821,-0.9080294371,-4.8341598511
        0.3467428684,       -0.0093371272,-0.1497450322,0.0692043379,5.8591756821,-0.9080294371,-4.8341598511
        0.3494439125,       -0.0093371272,-0.1497450322,0.0692043379,5.0962362289,-0.4960421324,-4.1475143433
        0.3521389961,       -0.0220324397,-0.1648817509,0.0760402754,5.0962362289,-0.4960421324,-4.1475143433
        0.3548338413,       -0.0220324397,-0.1648817509,0.0760402754,3.9976034164,-0.4502657652,-3.8423385620
        0.3575429916,       -0.0220324397,-0.1648817509,0.0760402754,3.9976034164,-0.4502657652,-3.8423385620
        0.3602428436,       -0.0220324397,-0.1648817509,0.0657863691,3.2499227524,-0.2366427183,-3.7965621948
        0.3629469872,       -0.0288683772,-0.1526747197,0.0657863691,3.2499227524,-0.2366427183,-3.7965621948
        0.3656468391,       -0.0288683772,-0.1526747197,0.0657863691,2.7158651352,-0.0687960386,-3.5676803589
        0.3683569431,       -0.0288683772,-0.1526747197,0.0657863691,2.7158651352,-0.0687960386,-3.5676803589
        0.3710589409,       -0.0371691585,-0.1497450322,0.0550441816,1.6630085707,0.4652615786,-3.3693161011
        0.3738548756,       -0.0371691585,-0.1497450322,0.0550441816,1.6630085707,0.4652615786,-3.3693161011
        0.3765537739,       -0.0371691585,-0.1497450322,0.0550441816,1.0221394300,0.4805203676,-3.5371627808
        0.3791699409,       -0.0371691585,-0.1497450322,0.0550441816,1.0221394300,0.4805203676,-3.5371627808
        0.3817348480,       -0.0313097835,-0.1326551884,0.0301418398,1.0221394300,0.1448270082,-3.8575973511
        0.3843028545,       -0.0313097835,-0.1326551884,0.0301418398,0.9611042738,0.1448270082,-3.8575973511
        0.3868708611,       -0.0313097835,-0.1326551884,0.0301418398,0.9611042738,-0.0077608824,-3.6134567261
        0.3895628452,       -0.0313097835,-0.1326551884,0.0301418398,0.7627400160,-0.0077608824,-3.6134567261
        0.3922619820,       -0.0274035335,-0.1331434697,0.0174465273,0.7627400160,-0.0077608824,-3.4761276245
        0.3949568272,       -0.0274035335,-0.1331434697,0.0174465273,1.3883503675,-0.2213839293,-3.4761276245
        0.3976979256,       -0.0274035335,-0.1331434697,0.0174465273,1.3883503675,-0.2213839293,-3.0641403198
        0.4004008770,       -0.0274035335,-0.1331434697,0.0252590273,1.3273152113,-0.2213839293,-3.0641403198
        0.4030969143,       -0.0405871272,-0.1463270634,0.0252590273,1.3273152113,-0.2213839293,-2.8657760620
        0.4057939053,       -0.0405871272,-0.1463270634,0.0252590273,1.3578327894,-0.1603487730,-2.8657760620
        0.4085049629,       -0.0405871272,-0.1463270634,0.0252590273,1.3578327894,-0.1603487730,-2.9878463745
        0.4112029076,       -0.0405871272,-0.1453505009,0.0423488691,1.4341267347,-0.4502657652,-2.9878463745
        0.4139029980,       -0.0391222835,-0.1453505009,0.0423488691,1.4341267347,-0.4502657652,-2.7284469604
        0.4165968895,       -0.0391222835,-0.1453505009,0.0423488691,1.6477497816,-0.3434542418,-2.7284469604
        0.4193339348,       -0.0391222835,-0.1453505009,0.0423488691,1.6477497816,-0.3434542418,-2.3622360229
        0.4220378399,       -0.0503527522,-0.1477919072,0.0467434004,1.4493855238,0.0074979067,-2.3622360229
        0.4247338772,       -0.0503527522,-0.1477919072,0.0467434004,1.4493855238,0.0074979067,-2.5148239136
        0.4274458885,       -0.0503527522,-0.1477919072,0.0467434004,0.9305866957,0.1448270082,-2.5148239136
        0.4300088882,       -0.0503527522,-0.1477919072,0.0467434004,0.9305866957,0.1448270082,-2.1028366089
        0.4325718880,       -0.0391222835,-0.1599989384,0.0374660566,1.0068806410,0.5415555239,-2.1028366089
        0.4351358414,       -0.0391222835,-0.1599989384,0.0374660566,1.0068806410,0.5415555239,-2.1028366089
        0.4377648830,       -0.0391222835,-0.1599989384,0.0374660566,1.2052448988,0.5568143129,-1.4619674683
        0.4405620098,       -0.0391222835,-0.1599989384,0.0374660566,1.2052448988,0.5568143129,-1.4619674683
        0.4432609081,       -0.0440050960,-0.1731825322,0.0565090254,1.2662800550,0.5568143129,-0.9279098511
        0.4459569454,       -0.0440050960,-0.1731825322,0.0565090254,1.2662800550,0.5568143129,-0.9279098511
        0.4486939907,       -0.0440050960,-0.1731825322,0.0565090254,1.6630085707,0.8619900942,-0.5311813354
        0.4513909817,       -0.0440050960,-0.1697645634,0.0486965254,1.6630085707,0.8619900942,-0.5311813354
        0.4540879726,       -0.0488879085,-0.1697645634,0.0486965254,1.2510212660,0.7551785707,0.0181350708
        0.4567868710,       -0.0488879085,-0.1697645634,0.0486965254,1.2510212660,0.7551785707,0.0181350708
        0.4595279694,       -0.0488879085,-0.1697645634,0.0486965254,1.1747273207,1.1824246645,0.2164993286
        0.4622168541,       -0.0503527522,-0.1634169072,0.0569973066,1.1747273207,1.1824246645,0.2164993286
        0.4649128914,       -0.0503527522,-0.1634169072,0.0569973066,1.1289509535,1.4113065004,0.0791702271
        0.4676609039,       -0.0503527522,-0.1634169072,0.0569973066,1.1289509535,1.4113065004,0.0791702271
        0.4703669548,       -0.0503527522,-0.1634169072,0.0569973066,1.0221394300,1.6096707582,-0.0123825073
        0.4730589390,       -0.0552355647,-0.1429090947,0.0433254316,1.0221394300,1.6096707582,-0.0123825073
        0.4757518768,       -0.0552355647,-0.1429090947,0.0433254316,1.3730915785,1.8385525942,-0.0276412964
        0.4784507751,       -0.0552355647,-0.1429090947,0.0433254316,1.3730915785,1.8385525942,-0.0276412964
        0.4810137749,       -0.0552355647,-0.1429090947,0.0433254316,2.1207723618,1.7469998598,-0.0581588745
        0.4835748672,       -0.0454699397,-0.1438856572,0.0408840254,2.1207723618,1.7469998598,-0.0581588745
        0.4861459732,       -0.0454699397,-0.1438856572,0.0408840254,2.4259481430,1.6859647036,0.1402053833
        0.4887969494,       -0.0454699397,-0.1438856572,0.0408840254,2.4259481430,1.6859647036,0.1402053833
        0.4915049076,       -0.0454699397,-0.1438856572,0.0413723066,2.7769002914,1.6401883364,-0.1344528198
        0.4941918850,       -0.0278918147,-0.1390028447,0.0413723066,2.7769002914,1.6401883364,-0.1344528198
        0.4968829155,       -0.0278918147,-0.1390028447,0.0413723066,3.3414754868,1.6554471254,-0.9126510620
        0.4995899200,       -0.0278918147,-0.1390028447,0.0413723066,3.3414754868,1.6554471254,-0.9126510620
        0.5022828579,       -0.0278918147,-0.1531630009,0.0491848066,4.0586385727,1.9758816957,-0.3938522339
        0.5050828457,       -0.0371691585,-0.1531630009,0.0491848066,4.0586385727,1.9758816957,-0.3938522339
        0.5077939034,       -0.0371691585,-0.1531630009,0.0491848066,4.4706258774,1.8995877504,-0.0886764526
        0.5104839802,       -0.0371691585,-0.1531630009,0.0491848066,4.4706258774,1.8995877504,-0.0886764526
        0.5131819248,       -0.0269152522,-0.1551161259,0.0389309004,4.4858846664,1.7469998598,0.0181350708
        0.5158770084,       -0.0269152522,-0.1551161259,0.0389309004,4.4858846664,1.7469998598,0.0181350708
        0.5185828209,       -0.0269152522,-0.1551161259,0.0389309004,3.9518270493,1.4418240786,0.1707229614
        0.5212798119,       -0.0269152522,-0.1551161259,0.0389309004,3.9518270493,1.4418240786,0.1707229614
        0.5239729881,       -0.0298449397,-0.1502333134,0.0428371504,4.1807088852,1.3960477114,0.0181350708
        0.5266649723,       -0.0298449397,-0.1502333134,0.0428371504,4.1807088852,1.3960477114,0.0181350708
        0.5292878151,       -0.0298449397,-0.1502333134,0.0428371504,4.8368368149,1.4418240786,0.1096878052
        0.5318508148,       -0.0298449397,-0.1502333134,0.0379543379,4.8368368149,1.4418240786,0.1096878052
        0.5344197750,       -0.0322863460,-0.1604872197,0.0379543379,5.0962362289,1.3502713442,-0.1802291870
        0.5369858742,       -0.0322863460,-0.1604872197,0.0379543379,5.0962362289,1.3502713442,-0.1802291870
        0.5397047997,       -0.0322863460,-0.1604872197,0.0379543379,4.5926961899,1.4723416567,0.0791702271
        0.5424017906,       -0.0322863460,-0.1575575322,0.0340480879,4.5926961899,1.4723416567,0.0791702271
        0.5450909138,       -0.0371691585,-0.1575575322,0.0340480879,4.2112264633,1.8995877504,0.5064163208
        0.5477948189,       -0.0371691585,-0.1575575322,0.0340480879,4.2112264633,1.8995877504,0.5064163208
        0.5505008698,       -0.0371691585,-0.1575575322,0.0340480879,3.9365682602,1.7164822817,0.8115921021
        0.5532009602,       -0.0400988460,-0.1624403447,0.0355129316,3.9365682602,1.7164822817,0.8115921021
        0.5558969975,       -0.0400988460,-0.1624403447,0.0355129316,3.9365682602,1.7775174379,0.8878860474
        0.5586040020,       -0.0400988460,-0.1624403447,0.0355129316,4.0891561508,1.7775174379,0.8878860474
        0.5612988472,       -0.0400988460,-0.1624403447,0.0355129316,4.0891561508,1.5944119692,0.6132278442
        0.5639958382,       -0.0430285335,-0.1673231572,0.0506496504,4.4248495102,1.5944119692,0.6132278442
        0.5666887760,       -0.0430285335,-0.1673231572,0.0506496504,4.4248495102,1.5791531801,0.8573684692
        0.5694038868,       -0.0430285335,-0.1673231572,0.0506496504,4.4706258774,1.5791531801,0.8573684692
        0.5719769001,       -0.0430285335,-0.1673231572,0.0506496504,4.4706258774,1.5791531801,0.7352981567
        0.5745379925,       -0.0435168147,-0.1619520634,0.0457668379,4.8978719711,1.3960477114,0.7352981567
        0.5771069527,       -0.0435168147,-0.1619520634,0.0457668379,4.8978719711,1.3960477114,0.6284866333
        0.5798029900,       -0.0435168147,-0.1619520634,0.0457668379,4.8520956039,1.5791531801,0.6284866333
        0.5824959278,       -0.0435168147,-0.1619520634,0.0433254316,4.8520956039,1.5791531801,0.1249465942
        0.5851929188,       -0.0293566585,-0.1512098759,0.0433254316,4.1196737289,1.7927762270,0.1249465942
        0.5879290104,       -0.0293566585,-0.1512098759,0.0433254316,4.1196737289,1.7927762270,-0.1039352417
        0.5906248093,       -0.0293566585,-0.1512098759,0.0433254316,4.0433797836,2.3268337250,-0.1039352417
        0.5933299065,       -0.0298449397,-0.1448622197,0.0257473085,4.0433797836,2.3268337250,-0.2260055542
        0.5960268974,       -0.0298449397,-0.1448622197,0.0257473085,4.0738973618,2.2657985687,-0.2260055542
        0.5987379551,       -0.0298449397,-0.1448622197,0.0257473085,4.0738973618,2.2657985687,-0.4243698120
        0.6014318466,       -0.0298449397,-0.1448622197,0.0257473085,4.3485555649,2.1742458344,-0.4243698120
        0.6041347980,       -0.0298449397,-0.1419325322,0.0350246504,4.3485555649,2.1742458344,-0.5616989136
        0.6068408489,       -0.0298449397,-0.1419325322,0.0350246504,4.1501913071,2.0674343109,-0.5616989136
        0.6095449924,       -0.0298449397,-0.1419325322,0.0350246504,4.1501913071,2.0674343109,-0.0886764526
        0.6122398376,       -0.0298449397,-0.1419325322,0.0350246504,4.0738973618,2.2657985687,-0.0886764526
        0.6149427891,       -0.0283800960,-0.1507215947,0.0350246504,4.0738973618,2.2657985687,-0.0886764526
        0.6176798344,       -0.0283800960,-0.1507215947,0.0350246504,3.7687215805,2.5099391937,0.5064163208
        0.6202509403,       -0.0283800960,-0.1507215947,0.0350246504,3.7687215805,2.5099391937,0.5064163208
        0.6228189468,       -0.0283800960,-0.1507215947,0.0555324629,2.9905233383,2.8303737640,0.7963333130
        0.6253869534,       -0.0230090022,-0.1892958134,0.0555324629,2.9905233383,2.8303737640,0.7963333130
        0.6279678345,       -0.0230090022,-0.1892958134,0.0555324629,2.5175008774,2.7845973969,0.6590042114
        0.6305329800,       -0.0230090022,-0.1892958134,0.0555324629,2.5175008774,2.7845973969,0.6590042114
        0.6331968307,       -0.0230090022,-0.1575575322,0.0662746504,2.2428426743,2.9677028656,0.8268508911
        0.6357638836,       -0.0361925960,-0.1575575322,0.0662746504,2.2428426743,2.9677028656,0.8268508911
        0.6385278702,       -0.0361925960,-0.1575575322,0.0662746504,2.3496541977,3.1050319672,0.6895217896
        0.6410918236,       -0.0361925960,-0.1575575322,0.0662746504,2.3496541977,3.1050319672,0.6895217896
        0.6436519623,       -0.0361925960,-0.1556044072,0.0482082441,3.1583700180,3.5627956390,0.4606399536
        0.6462140083,       -0.0381457210,-0.1556044072,0.0482082441,3.1583700180,3.5627956390,0.4606399536
        0.6487839222,       -0.0381457210,-0.1556044072,0.0482082441,3.1583700180,3.4712429047,0.3996047974
        0.6513438225,       -0.0381457210,-0.1556044072,0.0482082441,3.1583700180,3.4712429047,0.3996047974
        0.6539099216,       -0.0391222835,-0.1722059697,0.0462551191,3.1583700180,3.2881374359,0.7047805786
        0.6564719677,       -0.0391222835,-0.1722059697,0.0462551191,3.4635457993,3.2881374359,0.7047805786
        0.6590709686,       -0.0391222835,-0.1722059697,0.0462551191,3.4635457993,7.1943874359,0.8573684692
        0.6616299152,       -0.0391222835,-0.1722059697,0.0462551191,3.1736288071,3.6238307953,0.8573684692
        0.6641919613,       -0.0352160335,-0.1609755009,0.0364894941,3.1736288071,3.6238307953,0.7352981567
        0.6667478085,       -0.0352160335,-0.1609755009,0.0364894941,3.0515584946,3.5780544281,0.7352981567
        0.6693189144,       -0.0352160335,-0.1609755009,0.0364894941,3.0515584946,3.5780544281,0.7352981567
        0.6718769073,       -0.0352160335,-0.1609755009,0.0364894941,3.0973348618,3.4865016937,0.6132278442
        0.6744379997,       -0.0352160335,-0.1507215947,0.0286769960,3.0973348618,3.4865016937,0.6132278442
        0.6770029068,       -0.0352160335,-0.1507215947,0.0286769960,3.1888875961,3.9900417328,0.5216751099
        0.6797327995,       -0.0352160335,-0.1507215947,0.0286769960,3.1888875961,3.9900417328,0.5216751099
        0.6824319363,       -0.0352160335,-0.1507215947,0.0286769960,2.7616415024,3.6238307953,0.4758987427
        0.6851258278,       -0.0264269710,-0.1560926884,0.0164699648,2.7616415024,3.6238307953,0.4758987427
        0.6878237724,       -0.0264269710,-0.1560926884,0.0164699648,2.9905233383,3.6390895844,0.2012405396
        0.6905260086,       -0.0264269710,-0.1560926884,0.0164699648,2.9905233383,3.6390895844,0.2012405396
        0.6932239532,       -0.0264269710,-0.1560926884,0.0164699648,2.9600057602,3.3644313812,0.2775344849
        0.6960229874,       -0.0308215022,-0.1502333134,0.0237941835,2.9600057602,3.3644313812,0.2775344849
        0.6987369061,       -0.0308215022,-0.1502333134,0.0237941835,2.4717245102,3.2881374359,0.3233108521
        0.7014338970,       -0.0308215022,-0.1502333134,0.0237941835,2.4717245102,3.2881374359,0.3233108521
        0.7041318417,       -0.0308215022,-0.1541395634,0.0233059023,2.3343954086,3.0592556000,0.5216751099
        0.7068247795,       -0.0337511897,-0.1541395634,0.0233059023,2.3343954086,3.0592556000,0.5216751099
        0.7095339298,       -0.0337511897,-0.1541395634,0.0233059023,2.5327596664,2.6777858734,0.2622756958
        0.7122378349,       -0.0337511897,-0.1541395634,0.0233059023,2.5327596664,2.6777858734,0.2622756958
        0.7149288654,       -0.0249621272,-0.1390028447,0.0277004335,2.4717245102,2.3420925140,0.1554641724
        0.7176678181,       -0.0249621272,-0.1390028447,0.0277004335,2.4717245102,2.3420925140,0.1554641724
        0.7202379704,       -0.0249621272,-0.1390028447,0.0277004335,2.2275838852,2.9524440765,-0.6379928589
        0.7228047848,       -0.0249621272,-0.1390028447,0.0277004335,2.2275838852,2.9524440765,-0.6379928589
        0.7253708839,       -0.0303332210,-0.1541395634,0.0330715254,2.4412069321,2.3878688812,-0.9584274292
        0.7279779911,       -0.0303332210,-0.1541395634,0.0330715254,2.4412069321,2.3878688812,-0.9584274292
        0.7306709290,       -0.0303332210,-0.1541395634,0.0330715254,2.5785360336,2.7235622406,-0.9126510620
        0.7333698273,       -0.0303332210,-0.1541395634,0.0330715254,2.5785360336,2.7235622406,-0.9126510620
        0.7360618114,       -0.0440050960,-0.1668348759,0.0447902754,1.7545613050,3.3796901703,-0.4243698120
        0.7387628555,       -0.0440050960,-0.1668348759,0.0447902754,1.7545613050,3.3796901703,-0.4243698120
        0.7414658070,       -0.0440050960,-0.1668348759,0.0447902754,0.9916218519,2.8456325531,-0.3633346558
        0.7441618443,       -0.0440050960,-0.1668348759,0.0506496504,0.9916218519,2.8456325531,-0.3633346558
        0.7468619347,       -0.0313097835,-0.1873426884,0.0506496504,-0.1527873278,3.1202907562,-0.5464401245
        0.7495629787,       -0.0313097835,-0.1873426884,0.0506496504,-0.1527873278,3.1202907562,-0.5464401245
        0.7522568703,       -0.0313097835,-0.1873426884,0.0506496504,-1.4497843981,4.0815944672,-0.4091110229
        0.7549598217,       -0.0464465022,-0.1995497197,0.0267238710,-1.4497843981,4.0815944672,-0.4091110229
        0.7576987743,       -0.0464465022,-0.1995497197,0.0267238710,-2.8383340836,4.1884059906,0.0944290161
        0.7604949474,       -0.0464465022,-0.1995497197,0.0267238710,-2.8383340836,4.1884059906,0.0944290161
        0.7631969452,       -0.0464465022,-0.1995497197,0.0267238710,-3.8911905289,3.9900417328,-0.1954879761
        0.7658908367,       -0.0459582210,-0.1390028447,0.0242824648,-3.8911905289,3.9900417328,-0.1954879761
        0.7685539722,       -0.0459582210,-0.1390028447,0.0242824648,-4.1811075211,3.7306423187,-1.1567916870
        0.7711148262,       -0.0459582210,-0.1390028447,0.0242824648,-4.1811075211,3.7306423187,-1.1567916870
        0.7736759186,       -0.0459582210,-0.1390028447,0.0242824648,-4.1811075211,3.9290065765,-2.5453414917
        0.7762429714,       -0.0342394710,-0.1370497197,0.0071926210,-4.1353311539,3.9290065765,-2.5453414917
        0.7789218426,       -0.0342394710,-0.1370497197,0.0071926210,-4.1353311539,4.2189235687,-3.4150924683
        0.7816188335,       -0.0342394710,-0.1370497197,0.0071926210,-4.3947305679,4.2189235687,-3.4150924683
        0.7843198776,       -0.0342394710,-0.1370497197,0.0164699648,-4.3947305679,4.1426296234,-4.0712203979
        0.7870099545,       -0.0361925960,-0.1438856572,0.0164699648,-5.1729288101,4.1426296234,-4.0712203979
        0.7897219658,       -0.0361925960,-0.1438856572,0.0164699648,-5.1729288101,3.8527126312,-4.5747604370
        0.7924218178,       -0.0361925960,-0.1438856572,0.0164699648,-5.5543985367,3.8527126312,-4.5747604370
        0.7951118946,       -0.0361925960,-0.1385145634,0.0086574648,-5.5543985367,3.8527126312,-5.7344284058
        0.7978258133,       -0.0352160335,-0.1385145634,0.0086574648,-5.9816446304,3.8069362640,-5.7344284058
        0.8005299568,       -0.0352160335,-0.1385145634,0.0086574648,-5.9816446304,3.8069362640,-6.7567672729
        0.8032379150,       -0.0352160335,-0.1385145634,0.0086574648,-5.6459512711,3.5170192719,-6.7567672729
        0.8059408665,       -0.0405871272,-0.1307020634,0.0169582460,-5.6459512711,-0.3892306089,-7.3976364136
        0.8085918427,       -0.0405871272,-0.1307020634,0.0169582460,-4.5015420914,3.3644313812,-7.3976364136
        0.8111658096,       -0.0405871272,-0.1307020634,0.0169582460,-4.5015420914,3.3644313812,-8.8624801636
        0.8137369156,       -0.0405871272,-0.1307020634,0.0169582460,-2.1516885757,3.2728786469,-8.8624801636
        0.8163089752,       -0.0347277522,-0.1243544072,0.0213527773,-2.1516885757,3.2728786469,-8.8624801636
        0.8189687729,       -0.0347277522,-0.1243544072,0.0213527773,-0.9615031481,2.2505397797,-9.9916305542
        0.8216738701,       -0.0347277522,-0.1243544072,0.0213527773,-0.9615031481,2.2505397797,-13.8978805542
        0.8244819641,       -0.0347277522,-0.1243544072,0.0213527773,0.2744587660,1.2129422426,-10.8918991089
        0.8271918297,       -0.0234972835,-0.1209364384,0.0008449648,0.2744587660,1.2129422426,-10.8918991089
        0.8299329281,       -0.0234972835,-0.1209364384,0.0008449648,1.6172322035,1.0450955629,-11.8684616089
        0.8325588703,       -0.0234972835,-0.1209364384,0.0008449648,1.6172322035,1.0450955629,-11.8684616089
        0.8351287842,       -0.0234972835,-0.1209364384,0.0071926210,2.4106893539,1.1061307192,-12.7229537964
        0.8378889561,       -0.0166613460,-0.1316786259,0.0071926210,2.4106893539,1.1061307192,-12.7229537964
        0.8405518532,       -0.0166613460,-0.1316786259,0.0071926210,2.5937948227,0.9993191957,-13.6384811401
        0.8433330059,       -0.0166613460,-0.1316786259,0.0071926210,2.5937948227,0.9993191957,-13.6384811401
        0.8460137844,       -0.0347277522,-0.1492567509,0.0198879335,1.8308552504,0.9688016176,-14.3861618042
        0.8498909473,       -0.0347277522,-0.1492567509,0.0198879335,1.8308552504,1.1061307192,-15.0880661011
        0.8524589539,       -0.0347277522,-0.1492567509,0.0198879335,0.9916218519,1.1061307192,-15.0880661011
        0.8550357819,       -0.0347277522,-0.1492567509,0.0291652773,0.9916218519,1.1061307192,-15.5000534058
        0.8576838970,       -0.0327746272,-0.1770887822,0.0291652773,-1.2361613512,1.1976834536,-15.5000534058
        0.8602588177,       -0.0327746272,-0.1770887822,0.0291652773,-1.2361613512,1.1976834536,-16.6444625854
        0.8628268242,       -0.0327746272,-0.1770887822,0.0291652773,-2.5331583023,1.6401883364,-16.6444625854
        0.8653969765,       -0.0327746272,-0.1770887822,0.0418605879,-2.5331583023,1.6401883364,-16.6444625854
        0.8679749966,       -0.0430285335,-0.1800184697,0.0418605879,-4.1811075211,1.9758816957,-17.4379196167
        0.8705399036,       -0.0430285335,-0.1800184697,0.0418605879,-4.1811075211,1.9758816957,-17.4379196167
        0.8731079102,       -0.0430285335,-0.1800184697,0.0418605879,-6.6225137711,1.9758816957,-18.0330123901
        0.8756837845,       -0.0430285335,-0.1897840947,0.0413723066,-6.6225137711,1.9758816957,-18.0330123901
        0.8782968521,       -0.0322863460,-0.1897840947,0.0413723066,-9.5369424820,1.7317410707,-18.0024948120
        0.8808698654,       -0.0322863460,-0.1897840947,0.0413723066,-9.5369424820,1.7317410707,-18.0024948120
        0.8834388256,       -0.0322863460,-0.1897840947,0.0413723066,-12.0699014664,2.1589870453,-18.3992233276
        0.8860049248,       -0.0322863460,-0.2093153447,0.0526027754,-12.0699014664,2.1589870453,-18.3992233276
        0.8886928558,       -0.0449816585,-0.2093153447,0.0526027754,-14.8317422867,3.0745143890,-18.3381881714
        0.8912689686,       -0.0449816585,-0.2093153447,0.0526027754,-14.8317422867,3.0745143890,-18.3381881714
        0.8938369751,       -0.0449816585,-0.2093153447,0.0526027754,-16.2355518341,3.2881374359,-17.9262008667
        0.8964128494,       -0.0488879085,-0.1849012822,0.0457668379,-16.2355518341,3.2881374359,-17.9262008667
        0.8991777897,       -0.0488879085,-0.1849012822,0.0457668379,-13.6568155289,3.3644313812,-18.4297409058
        0.9017620087,       -0.0488879085,-0.1849012822,0.0457668379,-13.6568155289,3.3644313812,-18.4297409058
        0.9043359756,       -0.0488879085,-0.1849012822,0.0457668379,-9.7505655289,3.7916774750,-19.4825973511
        0.9069058895,       -0.0733019710,-0.1912489384,0.0101223085,-9.5522012711,3.7916774750,-19.4825973511
        0.9096188545,       -0.0733019710,-0.1912489384,0.0101223085,-9.5522012711,3.3796901703,-19.9403610229
        0.9121909142,       -0.0733019710,-0.1912489384,0.0101223085,-6.3325967789,3.3796901703,-19.9403610229
        0.9147558212,       -0.0733019710,-0.1912489384,0.0101223085,-6.3325967789,3.3796901703,-20.2302780151
        0.9173319340,       -0.0767199397,-0.1878309697,-0.0059909727,-3.6165323257,3.1508083344,-20.2302780151
        0.9200367928,       -0.0767199397,-0.1878309697,-0.0059909727,-3.6165323257,3.1508083344,-20.1845016479
        0.9227378368,       -0.0767199397,-0.1878309697,-0.0059909727,-1.4192668200,3.0592556000,-20.1845016479
        0.9254357815,       -0.0767199397,-0.1878309697,-0.0059909727,-1.4192668200,3.0592556000,-20.0929489136
        0.9281527996,       -0.0674425960,-0.1897840947,0.0247707460,-0.0307170153,2.7998561859,-20.0929489136
        0.9308559895,       -0.0674425960,-0.1897840947,0.0247707460,-0.0307170153,2.7998561859,-20.5964889526
        0.9335508347,       -0.0674425960,-0.1897840947,0.0247707460,1.0679157972,2.1132106781,-20.5964889526
        0.9362459183,       -0.0674425960,-0.2102919072,0.0027980898,1.0679157972,2.1132106781,-20.3218307495
        0.9389629364,       -0.0479113460,-0.2102919072,0.0027980898,1.7698200941,2.3573513031,-20.3218307495
        0.9416627884,       -0.0479113460,-0.2102919072,0.0027980898,1.7698200941,2.3573513031,-20.2760543823
        0.9443669319,       -0.0479113460,-0.2102919072,0.0027980898,0.8848103285,2.6472682953,-20.2760543823
        0.9470667839,       -0.0503527522,-0.2376356572,0.0023098085,0.8848103285,2.6472682953,-19.8488082886
        0.9497809410,       -0.0503527522,-0.2376356572,0.0023098085,-1.3277140856,3.1508083344,-19.8488082886
        0.9526009560,       -0.0503527522,-0.2376356572,0.0023098085,-1.3277140856,3.1508083344,-18.8112106323
        0.9553048611,       -0.0503527522,-0.2376356572,0.0023098085,-3.7538614273,4.1121120453,-18.8112106323
        0.9579958916,       -0.0591418147,-0.2547255158,0.0277004335,-3.7538614273,4.1121120453,-18.8112106323
        0.9605658054,       -0.0591418147,-0.2547255158,0.0277004335,-5.5086221695,4.0968532562,-18.8112106323
        0.9631359577,       -0.0591418147,-0.2547255158,0.0277004335,-5.5086221695,4.0968532562,-18.8112106323
        0.9657938480,       -0.0591418147,-0.2547255158,0.0277004335,-7.1870889664,4.3257350922,-18.5670700073
        0.9684219360,       -0.0659777522,-0.2347059697,0.0389309004,-7.1870889664,4.3257350922,-18.5670700073
        0.9711267948,       -0.0659777522,-0.2347059697,0.0389309004,-9.0028848648,4.8292751312,-18.2466354370
        0.9738249779,       -0.0659777522,-0.2347059697,0.0389309004,-9.0028848648,4.8292751312,-18.2466354370
        0.9765257835,       -0.0659777522,-0.2347059697,0.0516262129,-10.0862588882,5.0734157562,-18.2008590698
        0.9792358875,       -0.0679308772,-0.2229872197,0.0516262129,-10.0862588882,5.0734157562,-18.2008590698
        0.9819428921,       -0.0679308772,-0.2229872197,0.0516262129,-10.9407510757,5.3633327484,-18.3534469604
        0.9846448898,       -0.0679308772,-0.2229872197,0.0516262129,-10.9407510757,5.3633327484,-18.3534469604
        0.9873478413,       -0.0405871272,-0.2171278447,0.0501613691,-11.9325723648,5.9736843109,-18.4144821167
        0.9900538921,       -0.0405871272,-0.2171278447,0.0501613691,-11.9325723648,5.9736843109,-18.4144821167
        0.9927568436,       -0.0405871272,-0.2171278447,0.0501613691,-13.3668985367,6.4772243500,-18.5823287964
        0.9954628944,       -0.0405871272,-0.2171278447,0.0501613691,-13.3668985367,6.4772243500,-18.5823287964
        0.9981579781,       -0.0391222835,-0.2132215947,0.0530910566,-14.5570840836,6.4619655609,-18.1856002808
        1.0007348061,       -0.0391222835,-0.2132215947,0.0530910566,-14.5570840836,6.4619655609,-18.1856002808
        1.0033109188,       -0.0391222835,-0.2132215947,0.0530910566,-15.4268350601,6.8281764984,-18.9027633667
        1.0058839321,       -0.0391222835,-0.2132215947,0.0530910566,-15.4268350601,6.8281764984,-18.9027633667
        1.0086038113,       -0.0425402522,-0.1922255009,0.0423488691,-13.9467325211,7.2859401703,-20.5201950073
        1.0111749172,       -0.0425402522,-0.1922255009,0.0423488691,-13.9467325211,7.2859401703,-20.5201950073
        1.0137457848,       -0.0425402522,-0.1922255009,0.0423488691,-11.7952432632,8.2625026703,-21.6951217651
        1.0164268017,       -0.0425402522,-0.1922255009,0.0423488691,-11.7952432632,8.2625026703,-21.6951217651
        1.0192389488,       -0.0625597835,-0.1575575322,0.0027980898,-9.4606485367,8.7660427094,-22.7937545776
        1.0219278336,       -0.0625597835,-0.1575575322,0.0027980898,-9.4606485367,8.7660427094,-22.7937545776
        1.0246109962,       -0.0625597835,-0.1575575322,0.0027980898,-7.3549356461,9.1475124359,-24.8842086792
        1.0272989273,       -0.0625597835,-0.1516981572,-0.0064792540,-7.3549356461,9.1475124359,-24.8842086792
        1.0299949646,       -0.0679308772,-0.1516981572,-0.0064792540,-5.3560342789,9.1780300140,-26.7152633667
        1.0326848030,       -0.0679308772,-0.1516981572,-0.0064792540,-5.3560342789,9.1780300140,-26.7152633667
        1.0353739262,       -0.0679308772,-0.1516981572,-0.0064792540,-1.7091838121,9.2085475922,-27.9664840698
        1.0381669998,       -0.0601183772,-0.1609755009,-0.0015964415,-1.7091838121,9.2085475922,-27.9664840698
        1.0408349037,       -0.0601183772,-0.1609755009,-0.0015964415,2.1818075180,8.9949245453,-29.2634811401
        1.0434968472,       -0.0601183772,-0.1609755009,-0.0015964415,2.1818075180,8.9949245453,-29.2634811401
        1.0461637974,       -0.0601183772,-0.1609755009,-0.0015964415,5.4624471664,9.1017360687,-30.3926315308
        1.0487909317,       -0.0713488460,-0.1805067509,-0.0147800352,5.4624471664,9.1017360687,-30.3926315308
        1.0513617992,       -0.0713488460,-0.1805067509,-0.0147800352,9.3686971664,9.5137233734,-30.8961715698
        1.0539379120,       -0.0713488460,-0.1805067509,-0.0147800352,7.3240194321,9.5137233734,-30.8961715698
        1.0565078259,       -0.0713488460,-0.1805067509,-0.0147800352,7.3240194321,9.4679470062,-30.8046188354
        1.0591738224,       -0.0537707210,-0.1971083134,-0.0074558165,8.8193807602,9.4679470062,-30.8046188354
        1.0618767738,       -0.0537707210,-0.1971083134,-0.0074558165,8.8193807602,9.4679470062,-30.2705612183
        1.0645799637,       -0.0537707210,-0.1971083134,-0.0074558165,10.8335409164,9.2543239594,-30.2705612183
        1.0672898293,       -0.0537707210,-0.3221083283,-0.0074558165,10.8335409164,9.2543239594,-30.3010787964
        1.0700058937,       -0.0645129085,-0.2195692509,-0.0074558165,11.7948446274,9.4679470062,-30.3010787964
        1.0727069378,       -0.0645129085,-0.2195692509,-0.0074558165,11.7948446274,9.4679470062,-29.8738327026
        1.0754098892,       -0.0645129085,-0.2195692509,-0.0074558165,12.0542440414,9.0254421234,-29.8738327026
        1.0781288147,       -0.0840441585,-0.2288465947,-0.0094089415,12.0542440414,9.0254421234,-29.3092575073
        1.0809309483,       -0.0840441585,-0.2288465947,-0.0094089415,10.7419881821,9.0864772797,-29.3092575073
        1.0836338997,       -0.0840441585,-0.2288465947,-0.0094089415,10.7419881821,9.0864772797,-28.4700241089
        1.0863368511,       -0.0840441585,-0.2288465947,-0.0094089415,8.3310995102,8.7050075531,-28.4700241089
        1.0890438557,       -0.0703722835,-0.2151747197,-0.0094089415,8.3310995102,8.7050075531,-27.0814743042
        1.0917439461,       -0.0703722835,-0.2151747197,-0.0094089415,5.8286581039,8.3845729828,-27.0814743042
        1.0944468975,       -0.0703722835,-0.2151747197,-0.0094089415,5.8286581039,8.3845729828,-25.1130905151
        1.0971448421,       -0.0703722835,-0.2151747197,-0.0094089415,3.1888875961,8.3693141937,-25.1130905151
        1.0997278690,       -0.0869738460,-0.2171278447,0.0091457460,3.1888875961,8.3693141937,-23.6329879761
        1.1022977829,       -0.0869738460,-0.2171278447,0.0091457460,2.4259481430,8.3998317719,-23.6329879761
        1.1048688889,       -0.0869738460,-0.2171278447,0.0091457460,2.4259481430,8.3998317719,-19.7267379761
        1.1074547768,       -0.0869738460,-0.2171278447,0.0179348085,1.4799031019,8.5219020844,-22.5343551636
        1.1101598740,       -0.0889269710,-0.2337294072,0.0179348085,1.4799031019,8.5219020844,-22.5343551636
        1.1128590107,       -0.0889269710,-0.2337294072,0.0179348085,0.1981648207,7.7589626312,-20.1692428589
        1.1155569553,       -0.0889269710,-0.2337294072,0.0179348085,0.1981648207,7.7589626312,-20.1692428589
        1.1183028221,       -0.0889269710,-0.2273817509,0.0286769960,-0.3511515856,8.2930202484,-16.7512741089
        1.1210069656,       -0.1016222835,-0.2273817509,0.0286769960,-0.3511515856,8.2930202484,-16.7512741089
        1.1237049103,       -0.1016222835,-0.2273817509,0.0286769960,-1.0683146715,8.6134548187,-12.9823532104
        1.1264059544,       -0.1016222835,-0.2273817509,0.0286769960,-1.0683146715,8.6134548187,-12.9823532104
        1.1291148663,       -0.1152941585,-0.0979872197,-0.0069675352,-2.1364297867,10.1545925140,-7.1992721558
        1.1318190098,       -0.1152941585,-0.0979872197,-0.0069675352,-2.1364297867,10.1545925140,-7.1992721558
        1.1345257759,       -0.1152941585,-0.0979872197,-0.0069675352,-3.3418741226,12.0009059906,2.1085891724
        1.1372289658,       -0.1152941585,-0.0979872197,-0.0069675352,-3.3418741226,12.0009059906,2.1085891724
        1.1398179531,       -0.0977160335,0.2540635467,-0.0084323790,-2.2432413101,12.3518581390,11.0654983521
        1.1423859596,       -0.0977160335,0.2540635467,-0.0084323790,-2.2432413101,12.3518581390,11.0654983521
        1.1449558735,       -0.0977160335,0.2540635467,-0.0084323790,1.2205036879,12.5197048187,20.8921585083
        1.1476988792,       -0.0977160335,0.2540635467,-0.1334323734,1.2205036879,12.5197048187,20.8921585083
        1.1504008770,       -0.0972277522,0.5001572967,-0.0328464434,7.0188436508,12.8401393890,30.6425247192
        1.1531059742,       -0.0972277522,0.5001572967,-0.0328464434,7.0188436508,12.8401393890,30.6425247192
        1.1558079720,       -0.0972277522,0.5001572967,-0.0328464434,11.2455282211,12.4128932953,39.6299514771
        1.1585237980,       -0.0972277522,0.5797471404,0.0042629335,11.2455282211,12.4128932953,39.6299514771
        1.1612339020,       -0.0733019710,0.5797471404,0.0042629335,16.8912792206,12.0466823578,48.1138381958
        1.1639339924,       -0.0733019710,0.5797471404,0.0042629335,16.8912792206,12.0466823578,48.1138381958
        1.1666388512,       -0.0733019710,0.5797471404,0.0042629335,23.3915233612,11.3295192719,58.5050735474
        1.1693568230,       -0.0503527522,0.5406846404,0.0135402773,23.3915233612,11.3295192719,58.5050735474
        1.1720609665,       -0.0503527522,0.5406846404,0.0135402773,29.6171092987,10.0325222015,67.1720657349
        1.1747698784,       -0.0503527522,0.5406846404,0.0135402773,29.6171092987,10.0325222015,67.1720657349
        1.1774809361,       -0.0503527522,0.5406846404,0.0135402773,33.0198211670,9.0254421234,74.7709426880
        1.1800568104,       -0.0855090022,0.4669541717,0.0076809023,33.0198211670,9.0254421234,74.7709426880
        1.1826319695,       -0.0855090022,0.4669541717,0.0076809023,34.7135467529,9.8188991547,82.8275833130
        1.1852059364,       -0.0855090022,0.4669541717,0.0076809023,34.7135467529,9.8188991547,82.8275833130
        1.1878268719,       -0.0855090022,0.4669541717,0.0076809023,34.6219940186,10.8412380219,90.3654251099
        1.1905319691,       -0.1055285335,0.4108018279,-0.0260105040,34.6219940186,10.8412380219,90.3654251099
        1.1932418346,       -0.1055285335,0.4108018279,-0.0260105040,33.7217254639,10.9175319672,97.5065383911
        1.1959547997,       -0.1055285335,0.4108018279,-0.0260105040,33.7217254639,10.9175319672,97.5065383911
        1.1986639500,       -0.1055285335,0.2858018279,-0.0216159727,32.4247283936,11.1616725922,104.8612747192
        1.2013750076,       -0.1089465022,0.3717393279,-0.0216159727,32.4247283936,11.1616725922,104.8612747192
        1.2040808201,       -0.1089465022,0.3717393279,-0.0216159727,31.0972118378,11.5889186859,112.0634231567
        1.2067840099,       -0.1089465022,0.3717393279,-0.0216159727,31.0972118378,11.5889186859,112.0634231567
        1.2095408440,       -0.1211535335,0.3287705779,-0.0011081602,29.7544384003,10.8870143890,117.6786575317
        1.2123579979,       -0.1211535335,0.3287705779,-0.0011081602,29.7544384003,10.8870143890,117.6786575317
        1.2150678635,       -0.1211535335,0.3287705779,-0.0011081602,27.8470897675,10.0935573578,122.5767288208
        1.2177898884,       -0.1211535335,0.3287705779,-0.0011081602,27.8470897675,10.0935573578,122.5767288208
        1.2204968929,       -0.1314074397,0.2706651092,0.0237941835,25.7566356659,8.5219020844,126.8644485474
        1.2232007980,       -0.1314074397,0.2706651092,0.0237941835,25.7566356659,8.5219020844,126.8644485474
        1.2258977890,       -0.1314074397,0.2706651092,0.0237941835,24.1239452362,5.8668727875,130.2366333008
        1.2285709381,       -0.1314074397,0.2706651092,0.0237941835,24.1239452362,5.8668727875,130.2366333008
        1.2311468124,       -0.1533800960,0.1940049678,0.0462551191,23.9866161346,2.3420925140,131.9151000977
        1.2337198257,       -0.1533800960,0.1940049678,0.0462551191,23.9866161346,2.3420925140,131.9151000977
        1.2362937927,       -0.1533800960,0.1940049678,0.0462551191,23.9866161346,0.5110379457,132.8611450195
        1.2389829159,       -0.1533800960,0.0690049678,0.0335598066,24.0171337128,0.5110379457,132.8611450195
        1.2416877747,       -0.1309191585,0.1388291866,0.0335598066,27.9233837128,-1.4726046324,133.1968383789
        1.2443959713,       -0.1309191585,0.1388291866,0.0335598066,26.5958690643,-1.4726046324,133.1968383789
        1.2470989227,       -0.1309191585,0.1388291866,0.0335598066,26.5958690643,-3.8224582672,132.6932983398
        1.2498159409,       -0.1616808772,0.0201768428,0.0364894941,29.1288280487,-3.8224582672,132.6932983398
        1.2525207996,       -0.1616808772,0.0201768428,0.0364894941,29.1288280487,-6.3401584625,130.2824096680
        1.2552249432,       -0.1616808772,0.0201768428,0.0364894941,29.0372753143,-6.3401584625,130.2824096680
        1.2579410076,       -0.1616808772,0.0201768428,0.0364894941,29.0372753143,-7.1946506500,126.6660842896
        1.2606489658,       -0.1514269710,-0.0662489384,0.0218410585,28.5795116425,-7.1946506500,126.6660842896
        1.2633547783,       -0.1514269710,-0.0662489384,0.0218410585,28.5795116425,-7.0573215485,124.4230422974
        1.2660558224,       -0.1514269710,-0.0662489384,0.0218410585,31.3718700409,-7.0573215485,124.4230422974
        1.2687718868,       -0.1514269710,-0.0662489384,0.0218410585,31.3718700409,-6.8436985016,123.2938919067
        1.2714729309,       -0.1602160335,-0.0310926884,-0.0138034727,35.2476043701,-6.8436985016,123.2938919067
        1.2741758823,       -0.1602160335,-0.0310926884,-0.0138034727,35.2476043701,-6.8436985016,123.4312210083
        1.2769868374,       -0.1602160335,-0.0310926884,-0.0138034727,37.9331512451,-5.8671360016,123.4312210083
        1.2796349525,       -0.1602160335,-0.0345106572,-0.0172214415,37.9331512451,-5.8671360016,122.7750930786
        1.2822108269,       -0.1646105647,-0.0345106572,-0.0172214415,40.2372283936,-4.8447971344,122.7750930786
        1.2847878933,       -0.1646105647,-0.0345106572,-0.0172214415,40.2372283936,-4.8447971344,122.2105178833
        1.2873618603,       -0.1646105647,-0.0345106572,-0.0172214415,42.0377655029,-3.0595188141,122.2105178833
        1.2900688648,       -0.1646105647,-0.0960340947,-0.0416355059,42.0377655029,-3.0595188141,122.1037063599
        1.2927749157,       -0.1704699397,-0.0960340947,-0.0416355059,41.8241424561,-0.8775118589,122.1037063599
        1.2954809666,       -0.1704699397,-0.0960340947,-0.0416355059,41.8241424561,-0.8775118589,122.9429397583
        1.2981967926,       -0.1704699397,-0.0960340947,-0.0416355059,40.9238739014,0.7094022036,122.9429397583
        1.3009028435,       -0.1509386897,-0.1336317509,-0.0352878496,40.9238739014,0.7094022036,122.9429397583
        1.3036057949,       -0.1509386897,-0.1336317509,-0.0352878496,39.5658416748,2.1589870453,123.0192337036
        1.3063089848,       -0.1509386897,-0.1336317509,-0.0352878496,39.5658416748,2.1589870453,123.0192337036
        1.3090260029,       -0.1509386897,-0.1336317509,-0.0352878496,38.4672088623,3.4865016937,121.9358596802
        1.3117299080,       -0.1035754085,-0.1492567509,-0.0343112871,38.4672088623,3.4865016937,118.0296096802
        1.3144288063,       -0.1035754085,-0.1492567509,-0.0343112871,36.8955535889,5.2870388031,120.2879104614
        1.3171339035,       -0.1035754085,-0.1492567509,-0.0343112871,36.8955535889,5.2870388031,120.2879104614
        1.3198459148,       -0.1035754085,-0.1492567509,-0.0157565977,34.3015594482,7.0875759125,118.2127151489
        1.3225519657,       -0.0606066585,-0.1741590947,-0.0157565977,34.3015594482,7.0875759125,114.3064651489
        1.3252558708,       -0.0606066585,-0.1741590947,-0.0157565977,30.4410839081,8.7507839203,116.0459671021
        1.3279528618,       -0.0606066585,-0.1741590947,-0.0157565977,30.4410839081,8.7507839203,116.0459671021
        1.3305268288,        0.0643933415,-0.1258192509,-0.0108737852,27.5266551971,9.8494167328,113.4214553833
        1.3331038952,       -0.0234972835,-0.1258192509,-0.0108737852,27.5266551971,9.8494167328,113.4214553833
        1.3356809616,       -0.0234972835,-0.1258192509,-0.0108737852,27.8928661346,10.2766628265,111.0716018677
        1.3383429050,       -0.0234972835,-0.1258192509,-0.0108737852,27.8928661346,10.2766628265,111.0716018677
        1.3411629200,        0.0111706853,-0.1048231572,0.0164699648,29.7086620331,9.4374294281,108.3097610474
        1.3438727856,        0.0111706853,-0.1048231572,0.0164699648,29.7086620331,9.4374294281,108.3097610474
        1.3465797901,        0.0111706853,-0.1048231572,0.0164699648,30.4105663300,8.7660427094,104.5103225708
        1.3493328094,        0.0111706853,-0.1048231572,0.0164699648,30.4105663300,8.7660427094,104.5103225708
        1.3520388603,        0.0111706853,-0.2015028447,0.0291652773,29.9528026581,8.0946559906,100.1615676880
        1.3547439575,        0.0111706853,-0.2015028447,0.0291652773,29.9528026581,8.0946559906,100.1615676880
        1.3574559689,        0.0111706853,-0.2015028447,0.0291652773,28.0912303925,7.4080104828,95.6907424927
        1.3601658344,        0.0111706853,-0.2015028447,0.0154934023,28.0912303925,7.4080104828,95.6907424927
        1.3628699780,        0.0155652165,-0.2698622346,0.0154934023,26.0160350800,6.8281764984,90.6858596802
        1.3655748367,        0.0155652165,-0.2698622346,0.0154934023,26.0160350800,6.8281764984,90.6858596802
        1.3683199883,        0.0155652165,-0.2698622346,0.0154934023,24.2612743378,5.8516139984,85.6809768677
        1.3710188866,        0.0399792790,-0.2845106721,-0.0006198790,24.2612743378,5.8516139984,85.6809768677
        1.3737227917,        0.0399792790,-0.2845106721,-0.0006198790,21.2400341034,4.4630641937,80.9049758911
        1.3764288425,        0.0399792790,-0.2845106721,-0.0006198790,21.2400341034,4.4630641937,80.9049758911
        1.3790688515,        0.0399792790,-0.2845106721,-0.0006198790,18.6918163300,3.7001247406,76.6630325317
        1.3816418648,        0.0775769353,-0.2967177033,-0.0108737852,18.6918163300,3.7001247406,76.6630325317
        1.3842179775,        0.0775769353,-0.2967177033,-0.0108737852,15.5027303696,2.9219264984,71.5971145630
        1.3867928982,        0.0775769353,-0.2967177033,-0.0108737852,15.5027303696,2.9219264984,71.5971145630
        1.3895189762,        0.0775769353,-0.2967177033,-0.0108737852,13.2902059555,2.0674343109,66.2870559692
        1.3922247887,        0.0985730290,-0.2889052033,-0.0074558165,13.2902059555,2.0674343109,66.2870559692
        1.3949267864,        0.0985730290,-0.2889052033,-0.0074558165,11.9932088852,0.9993191957,60.7328567505
        1.3976778984,        0.0985730290,-0.2889052033,-0.0074558165,11.9932088852,0.9993191957,60.7328567505
        1.4003829956,        0.0985730290,-0.2889052033,-0.0103855040,10.5741415024,-0.3739718199,55.6516799927
        1.4030878544,        0.0951550603,-0.2781630158,-0.0103855040,10.5741415024,-0.3739718199,55.6516799927
        1.4059019089,        0.0951550603,-0.2781630158,-0.0103855040,8.7278280258,-1.5183809996,49.5786819458
        1.4086148739,        0.0951550603,-0.2781630158,-0.0103855040,8.7278280258,-1.5183809996,49.5786819458
        1.4113178253,        0.0951550603,-0.2991591096,0.0101223085,6.1185750961,-2.5407199860,43.8566360474
        1.4140179157,        0.0834363103,-0.2991591096,0.0101223085,6.1185750961,-2.5407199860,43.8566360474
        1.4167168140,        0.0834363103,-0.2991591096,0.0101223085,4.1349325180,-3.6698703766,38.5923538208
        1.4194269180,        0.0834363103,-0.2991591096,0.0101223085,4.1349325180,-3.6698703766,38.5923538208
        1.4221220016,        0.0985730290,-0.2117567509,-0.0089206602,6.4084920883,-4.8447971344,34.1825637817
        1.4248209000,        0.0985730290,-0.2117567509,-0.0089206602,6.4084920883,-4.8447971344,34.1825637817
        1.4275338650,        0.0985730290,-0.2117567509,-0.0089206602,15.1212606430,-6.2180881500,29.4523391724
        1.4301037788,        0.0985730290,-0.2117567509,-0.0089206602,15.1212606430,-6.2180881500,29.4523391724
        1.4326758385,        0.0922253728,-0.2068739384,0.0174465273,23.4525585175,-8.7968235016,20.1902542114
        1.4352488518,        0.0922253728,-0.2068739384,0.0174465273,23.4525585175,-8.7968235016,20.1902542114
        1.4378449917,        0.0922253728,-0.2068739384,0.0174465273,23.4525585175,-11.5128879547,9.3412551880
        1.4405498505,        0.0922253728,-0.2068739384,0.0174465273,24.8868846893,-11.5128879547,9.3412551880
        1.4432449341,        0.0766003728,-0.5061903596,0.0423488691,24.8868846893,-12.6420383453,2.6731643677
        1.4459459782,        0.0766003728,-0.5061903596,0.0423488691,24.1544628143,-12.6420383453,2.6731643677
        1.4486539364,        0.0766003728,-0.5061903596,0.0423488691,24.1544628143,-13.2981662750,-1.4009323120
        1.4513528347,        0.0766003728,-0.4261122346,0.0071926210,24.4748973846,-13.2981662750,-1.4009323120
        1.4540569782,        0.0883191228,-0.4261122346,0.0071926210,28.3811473846,-14.9918918610,-6.0243453979
        1.4567639828,        0.0883191228,-0.4261122346,0.0071926210,26.8094921112,-14.9918918610,-6.0243453979
        1.4595170021,        0.0883191228,-0.4261122346,0.0071926210,30.7157421112,-17.0365695953,-13.8368453979
        1.4622268677,        0.0834363103,-0.4212294221,0.0115871523,30.4410839081,-17.0365695953,-13.8368453979
        1.4649357796,        0.0834363103,-0.4212294221,0.0115871523,34.3473358154,-19.4169406891,-23.0226364136
        1.4676909447,        0.0834363103,-0.4212294221,0.0115871523,35.0187225342,-19.4169406891,-23.0226364136
        1.4705028534,        0.0834363103,-0.4212294221,0.0115871523,38.9249725342,-20.4087619781,-32.7424850464
        1.4732089043,        0.0531628728,-0.5535536408,0.0125637148,38.9097137451,-20.4087619781,-32.7424850464
        1.4759149551,        0.0531628728,-0.5535536408,0.0125637148,38.9097137451,-20.6223850250,-41.5468063354
        1.4785859585,        0.0531628728,-0.5535536408,0.0125637148,41.5342254639,-20.6223850250,-41.5468063354
        1.4811639786,        0.0531628728,-0.5535536408,-0.1124362871,41.5342254639,-21.3395481110,-48.7031784058
        1.4837357998,        0.0248425603,-0.5730848908,-0.0240573790,42.4650115967,-21.3395481110,-48.7031784058
        1.4863119125,        0.0248425603,-0.5730848908,-0.0240573790,42.4650115967,-21.3395481110,-56.6072311401
        1.4889688492,        0.0248425603,-0.5730848908,-0.0240573790,42.6786346436,-21.5836887360,-56.6072311401
        1.4916808605,        0.0248425603,-0.5730848908,-0.0123386290,42.6786346436,-21.5836887360,-64.1145553589
        1.4943928719,       -0.0430285335,-0.5716200471,-0.0123386290,40.9391326904,-21.9956760406,-64.1145553589
        1.4971017838,       -0.0430285335,-0.5716200471,-0.0123386290,40.9391326904,-21.9956760406,-67.2883834839
        1.4998219013,       -0.0430285335,-0.5716200471,-0.0123386290,32.4247283936,-23.1248264313,-67.2883834839
        1.5025279522,       -0.1538683772,-0.2932997346,0.0047512148,32.4247283936,-23.1248264313,-67.1052780151
        1.5052328110,       -0.1538683772,-0.2932997346,0.0047512148,18.0051708221,-22.2092990875,-67.1052780151
        1.5079488754,       -0.1538683772,-0.2932997346,0.0047512148,18.0051708221,-22.2092990875,-63.1227340698
        1.5106568336,       -0.1538683772,-0.2932997346,0.0047512148,8.8346395493,-19.9509983063,-63.1227340698
        1.5133628845,       -0.2500597835,0.2535752654,0.0071926210,8.8346395493,-19.9509983063,-56.1189498901
        1.5160708427,       -0.2500597835,0.2535752654,0.0071926210,5.2488241196,-17.1586399078,-56.1189498901
        1.5187878609,       -0.2500597835,0.2535752654,0.0071926210,5.2488241196,-17.1586399078,-51.3887252808
        1.5214858055,       -0.2500597835,0.2535752654,-0.1178073809,2.7463827133,-15.1444797516,-51.3887252808
        1.5241940022,       -0.2476183772,0.2872666717,-0.0216159727,2.7463827133,-15.1444797516,-49.4508590698
        1.5269019604,       -0.2476183772,0.2872666717,-0.0216159727,0.5033406019,-13.3286838531,-49.4508590698
        1.5295178890,       -0.2476183772,0.2872666717,-0.0216159727,0.5033406019,-13.3286838531,-49.4508590698
        1.5320940018,       -0.2476183772,0.0372666866,-0.0367526934,-0.5037394762,-11.8943576813,-48.0623092651
        1.5347747803,       -0.1558215022,0.0968369991,-0.0367526934,-0.5037394762,-11.8943576813,-48.0623092651
        1.5373499393,       -0.1558215022,0.0968369991,-0.0367526934,0.3812702894,-11.2992649078,-47.8334274292
        1.5400578976,       -0.1558215022,0.0968369991,-0.0367526934,0.3812702894,-11.2992649078,-47.8334274292
        1.5427639484,       -0.1299425960,-0.1272840947,-0.0694675371,1.6172322035,-11.0856418610,-48.1538619995
        1.5454719067,       -0.1299425960,-0.1272840947,-0.0694675371,1.6172322035,-11.0856418610,-48.1538619995
        1.5481848717,       -0.1299425960,-0.1272840947,-0.0694675371,1.7393025160,-10.6583957672,-47.4366989136
        1.5508840084,       -0.1299425960,-0.1272840947,-0.0694675371,1.7393025160,-10.6583957672,-47.4366989136
        1.5535848141,       -0.1401965022,-0.1936903447,-0.0533542559,0.7627400160,-10.0175266266,-46.3228073120
        1.5562899113,       -0.1401965022,-0.1936903447,-0.0533542559,0.7627400160,-10.0175266266,-46.3228073120
        1.5590038300,       -0.1401965022,-0.1936903447,-0.0533542559,-1.8770304918,-8.3543186188,-44.8121871948
        1.5617058277,       -0.1401965022,-0.1936903447,-0.0533542559,-1.8770304918,-8.3543186188,-44.8121871948
        1.5644078255,       -0.1367785335,-0.1482801884,-0.0382175371,-4.4405069351,-6.9199924469,-42.7827682495
        1.5671098232,       -0.1367785335,-0.1482801884,-0.0382175371,-4.4405069351,-6.9199924469,-42.7827682495
        1.5698199272,       -0.1367785335,-0.1482801884,-0.0382175371,-6.8819131851,-6.6911106110,-40.5549850464
        1.5725178719,       -0.1367785335,-0.0232801884,-0.0240573790,-6.8819131851,-6.6911106110,-40.5549850464
        1.5752217770,       -0.1279894710,-0.0540419072,-0.0240573790,-7.4007120132,-6.8436985016,-38.8917770386
        1.5779139996,       -0.1279894710,-0.0540419072,-0.0240573790,-7.4007120132,-6.8436985016,-38.8917770386
        1.5804867744,       -0.1279894710,-0.0540419072,-0.0240573790,-6.9429483414,-7.2099094391,-38.8154830933
        1.5830578804,       -0.1279894710,-0.0144911259,-0.0020847227,-6.9429483414,-7.2099094391,-38.8154830933
        1.5856289864,       -0.1099230647,-0.0144911259,-0.0020847227,-5.9358682632,-7.0420627594,-38.6628952026
        1.5882449150,       -0.1099230647,-0.0144911259,-0.0020847227,-5.9358682632,-7.0420627594,-38.6628952026
        1.5909469128,       -0.1099230647,-0.0144911259,-0.0020847227,-4.7609415054,-7.3624973297,-38.9528121948
        1.5936498642,       -0.1172472835,-0.0100965947,-0.0035495665,-4.7609415054,-7.3624973297,-38.9528121948
        1.5963509083,       -0.1172472835,-0.0100965947,-0.0035495665,-4.2268838882,-7.6371555328,-38.3272018433
        1.5991599560,       -0.1172472835,-0.0100965947,-0.0035495665,-4.2268838882,-7.6371555328,-38.3272018433
        1.6018610001,       -0.1172472835,-0.0100965947,-0.0035495665,-4.1658487320,-7.6218967438,-37.5337448120
        1.6045629978,       -0.1182238460,-0.0589247197,-0.0133151915,-4.1658487320,-7.6218967438,-37.5337448120
        1.6072628498,       -0.1182238460,-0.0589247197,-0.0133151915,-4.0895547867,-8.5526828766,-36.7402877808
        1.6099758148,       -0.1182238460,-0.0589247197,-0.0133151915,-4.0895547867,-8.5526828766,-36.7402877808
        1.6126768589,       -0.1182238460,-0.0589247197,0.0003566835,-3.2655801773,-9.4376926422,-35.2449264526
        1.6153798103,       -0.1006457210,-0.0706434697,0.0003566835,-3.2655801773,-9.4376926422,-35.2449264526
        1.6181249619,       -0.1006457210,-0.0706434697,0.0003566835,-0.5952922106,-10.1395969391,-34.3904342651
        1.6208178997,       -0.1006457210,-0.0706434697,0.0003566835,-0.5952922106,-10.1395969391,-34.3904342651
        1.6235179901,       -0.0899035335,-0.0828505009,0.0101223085,2.8379354477,-10.4447727203,-33.4138717651
        1.6262168884,       -0.0899035335,-0.0828505009,0.0101223085,2.8379354477,-10.4447727203,-33.4138717651
        1.6288619041,       -0.0899035335,-0.0828505009,0.0101223085,4.7910604477,-10.8567600250,-32.8798141479
        1.6314377785,       -0.0899035335,-0.0828505009,0.0101223085,4.7910604477,-10.8567600250,-32.8798141479
        1.6340098381,       -0.0816027522,-0.1004286259,0.0189113710,5.2030477524,-11.1619358063,-32.1779098511
        1.6365828514,       -0.0816027522,-0.1004286259,0.0189113710,5.2030477524,-11.1619358063,-32.1779098511
        1.6392478943,       -0.0816027522,-0.1004286259,0.0189113710,5.2030477524,-11.0093479156,-30.8046188354
        1.6419548988,       -0.0816027522,-0.1004286259,0.0189113710,5.4777059555,-11.0093479156,-30.8046188354
        1.6446638107,       -0.0708605647,-0.0882215947,0.0301418398,5.4777059555,-11.1314182281,-28.9583053589
        1.6473648548,       -0.0708605647,-0.0882215947,0.0301418398,5.3098592758,-11.1314182281,-28.9583053589
        1.6501109600,       -0.0708605647,-0.0882215947,0.0301418398,5.3098592758,-10.7804660797,-26.8525924683
        1.6528158188,       -0.0708605647,-0.0882215947,0.0301418398,4.2112264633,-10.7804660797,-26.8525924683
        1.6555237770,       -0.0625597835,-0.0852919072,0.0267238710,4.2112264633,-11.1924533844,-24.8842086792
        1.6582338810,       -0.0625597835,-0.0852919072,0.0267238710,3.0210409164,-11.1924533844,-24.8842086792
        1.6609389782,       -0.0625597835,-0.0852919072,0.0267238710,3.0210409164,-10.4600315094,-22.0918502808
        1.6637468338,       -0.0625597835,-0.1326551884,0.0135402773,3.6619100571,-10.4600315094,-22.0918502808
        1.6664519310,       -0.0586535335,-0.1326551884,0.0135402773,3.6619100571,-9.9259738922,-19.7419967651
        1.6691689491,       -0.0586535335,-0.1326551884,0.0135402773,2.9752645493,-9.9259738922,-19.7419967651
        1.6718659401,       -0.0586535335,-0.1326551884,0.0135402773,2.9752645493,-9.5902805328,-17.8193893433
        1.6745657921,       -0.0796496272,-0.1546278447,0.0027980898,2.8226766586,-9.5902805328,-17.8193893433
        1.6772627831,       -0.0796496272,-0.1546278447,0.0027980898,2.8226766586,-8.8273410797,-16.1104049683
        1.6798548698,       -0.0796496272,-0.1546278447,0.0027980898,2.7463827133,-8.8273410797,-16.1104049683
        1.6824259758,       -0.0796496272,-0.1546278447,0.0027980898,2.7463827133,-8.8273410797,-14.8744430542
        1.6849958897,       -0.0816027522,-0.0911512822,0.0076809023,1.8155964613,-8.4916477203,-14.8744430542
        1.6875708103,       -0.0816027522,-0.0911512822,0.0076809023,1.8155964613,-8.4916477203,-12.8755416870
        1.6902728081,       -0.0816027522,-0.0911512822,0.0076809023,0.7169636488,-8.5984592438,-12.8755416870
        1.6929709911,       -0.0816027522,-0.0911512822,0.0076809023,0.7169636488,-8.5984592438,-10.9987106323
        1.6956689358,       -0.0640246272,-0.0384169072,-0.0181980040,0.6864460707,-9.0409641266,-10.9987106323
        1.6983809471,       -0.0640246272,-0.0384169072,-0.0181980040,0.6864460707,-9.0409641266,-10.0221481323
        1.7010807991,       -0.0640246272,-0.0384169072,-0.0181980040,0.7169636488,-8.2780246735,-10.0221481323
        1.7037808895,       -0.0640246272,-0.0384169072,-0.0528659746,0.7169636488,-8.2780246735,-8.6030807495
        1.7064788342,       -0.0483996272,-0.0467176884,-0.0528659746,1.4493855238,-7.4998264313,-8.6030807495
        1.7091848850,       -0.0483996272,-0.0467176884,-0.0528659746,1.4493855238,-7.4998264313,-7.3518600464
        1.7119529247,       -0.0483996272,-0.0467176884,-0.0528659746,1.5104206800,-7.6676731110,-7.3518600464
        1.7145268917,       -0.0313097835,-0.0706434697,-0.0733737871,1.5104206800,-7.6676731110,-7.3518600464
        1.7171018124,       -0.0313097835,-0.0706434697,-0.0733737871,0.9305866957,-7.7134494781,-5.8717575073
        1.7197659016,       -0.0313097835,-0.0706434697,-0.0733737871,0.9305866957,-7.7134494781,-5.8717575073
        1.7223379612,       -0.0313097835,-0.0706434697,-0.0733737871,0.5185993910,-7.9118137360,-4.3153610229
        1.7250227928,       -0.0317980647,-0.0833387822,-0.0631198809,0.5185993910,-7.9118137360,-4.3153610229
        1.7295320034,       -0.0317980647,-0.0833387822,-0.0631198809,-0.2901164293,-7.8507785797,-2.6368942261
        1.7322409153,       -0.0317980647,-0.0833387822,-0.0631198809,-0.9004679918,-7.1946506500,-1.2025680542
        1.7349379063,       -0.0400988460,-0.0784559697,-0.0347995684,-0.9004679918,-7.1946506500,-1.2025680542
        1.7376887798,       -0.0400988460,-0.0784559697,-0.0347995684,-0.7326213121,-6.9810276031,-0.1344528198
        1.7407758236,       -0.0400988460,-0.0784559697,-0.0347995684,-0.7326213121,-6.9810276031,-0.1344528198
        1.7433388233,       -0.0400988460,-0.0784559697,-0.0347995684,0.1676472425,-7.2404270172,1.1320266724
        1.7459027767,       -0.0342394710,-0.0945692509,-0.0103855040,0.1676472425,-7.2404270172,1.1320266724
        1.7485280037,       -0.0342394710,-0.0945692509,-0.0103855040,-0.3969279528,-6.8131809235,2.5816116333
        1.7510938644,       -0.0342394710,-0.0945692509,-0.0103855040,-0.3969279528,-6.8131809235,2.5816116333
        1.7536568642,       -0.0342394710,-0.0945692509,-0.0103855040,-4.3031778336,-6.4622287750,4.1227493286
        1.7562158108,       -0.0430285335,-0.0994520634,-0.0001315977,-1.7549601793,-6.4622287750,4.1227493286
        1.7587850094,       -0.0430285335,-0.0994520634,-0.0001315977,-1.7549601793,-6.4622287750,5.2213821411
        1.7613518238,       -0.0430285335,-0.0994520634,-0.0001315977,-2.7925577164,-5.5619602203,5.2213821411
        1.7639148235,       -0.0430285335,-0.0994520634,-0.0001315977,-2.7925577164,-5.5619602203,6.3200149536
        1.7664759159,       -0.0444933772,-0.0833387822,-0.0055026915,-3.2960977554,-5.1194553375,6.3200149536
        1.7690849304,       -0.0444933772,-0.0833387822,-0.0055026915,-3.2960977554,-5.1194553375,6.3200149536
        1.7716519833,       -0.0444933772,-0.0833387822,-0.0055026915,-3.7233438492,-4.8905735016,8.1663284302
        1.7742118835,       -0.0444933772,-0.0833387822,0.0179348085,-3.7233438492,-4.8905735016,8.1663284302
        1.7767658234,       -0.0347277522,-0.0672255009,0.0179348085,-3.8759317398,-4.3107395172,9.2191848755
        1.7793397903,       -0.0347277522,-0.0672255009,0.0179348085,-3.8759317398,-4.3107395172,9.2191848755
        1.7819089890,       -0.0347277522,-0.0672255009,0.0179348085,-3.5249795914,-3.3646945953,9.8905715942
        1.7844798565,       -0.0347277522,-0.1922255009,0.0076809023,-3.5249795914,-3.3646945953,9.8905715942
        1.7870459557,       -0.0405871272,-0.0950575322,0.0076809023,-3.4944620132,-2.8001194000,10.6992874146
        1.7897689342,       -0.0405871272,-0.0950575322,0.0076809023,-3.4944620132,-2.8001194000,10.6992874146
        1.7923359871,       -0.0405871272,-0.0950575322,0.0076809023,-3.2655801773,-2.4949436188,11.4011917114
        1.7950267792,       -0.1655871272,-0.0813856572,0.0213527773,-3.2655801773,-2.4949436188,11.4011917114
        1.7977738380,       -0.0596300960,-0.0813856572,0.0213527773,-3.2350625992,-2.1134738922,12.3167190552
        1.8004689217,       -0.0596300960,-0.0813856572,0.0213527773,-3.2350625992,-2.1134738922,12.3167190552
        1.8031649590,       -0.0596300960,-0.0813856572,0.0213527773,-3.1892862320,-1.8388155699,13.3848342896
        1.8058619499,       -0.0317980647,-0.0408583134,0.0159816835,-3.1892862320,-1.8388155699,13.3848342896
        1.8085730076,       -0.0317980647,-0.0408583134,0.0159816835,-2.9298868179,-2.0676975250,13.9494094849
        1.8112728596,       -0.0317980647,-0.0408583134,0.0159816835,-2.9298868179,-2.0676975250,13.9494094849
        1.8139719963,       -0.0317980647,-0.0408583134,0.0159816835,-1.9380656481,-1.5794161558,14.4376907349
        1.8166689873,       -0.0249621272,-0.0389051884,-0.0006198790,-1.9380656481,-1.5794161558,14.4376907349
        1.8193778992,       -0.0249621272,-0.0389051884,-0.0006198790,-1.4650431871,-1.2284640074,15.2311477661
        1.8220829964,       -0.0249621272,-0.0389051884,-0.0006198790,-1.4650431871,-1.2284640074,15.2311477661
        1.8247859478,       -0.0249621272,-0.0389051884,-0.0240573790,-1.3582316637,-1.4115694761,15.9177932739
        1.8274998665,       -0.0337511897,-0.0428114384,-0.0240573790,-1.3582316637,-1.4115694761,15.9177932739
        1.8300719261,       -0.0337511897,-0.0428114384,-0.0240573790,-1.7091838121,-1.4115694761,16.4823684692
        1.8326468468,       -0.0337511897,-0.0428114384,-0.0240573790,-1.7091838121,-1.4115694761,16.4823684692
        1.8352239132,       -0.0337511897,-0.0535536259,-0.0133151915,-1.7091838121,-0.8622530699,17.5504837036
        1.8378338814,       -0.0322863460,-0.0535536259,-0.0133151915,-1.8465129137,-0.8622530699,17.5504837036
        1.8405377865,       -0.0322863460,-0.0535536259,-0.0133151915,-1.8465129137,-0.9843233824,18.8627395630
        1.8432497978,       -0.0322863460,-0.0535536259,-0.0133151915,-2.3195352554,-0.9843233824,18.8627395630
        1.8459568024,       -0.0357043147,-0.0642958134,-0.0230808165,-2.3195352554,-0.9995821714,20.5717239380
        1.8487107754,       -0.0357043147,-0.0642958134,-0.0230808165,-3.5860147476,-0.9995821714,20.5717239380
        1.8514149189,       -0.0357043147,-0.0642958134,-0.0230808165,-3.5860147476,-0.8775118589,21.9602737427
        1.8542017937,       -0.0357043147,-0.0642958134,-0.0230808165,-3.6317911148,-0.8775118589,21.9602737427
        1.8569169044,       -0.0391222835,-0.0740614384,-0.0142917540,-3.6317911148,-0.7401827574,23.3335647583
        1.8597528934,       -0.0391222835,-0.0740614384,-0.0142917540,-3.8148965836,-0.7401827574,23.3335647583
        1.8624529839,       -0.0391222835,-0.0740614384,-0.0142917540,-3.8148965836,-0.8775118589,24.5084915161
        1.8651628494,       -0.0391222835,-0.0740614384,-0.0157565977,-3.9522256851,-0.8775118589,24.5084915161
        1.8679199219,       -0.0376574397,-0.0550184697,-0.0157565977,-3.9522256851,-0.4044893980,26.5073928833
        1.8706209660,       -0.0376574397,-0.0550184697,-0.0157565977,-4.0285196304,-0.4044893980,26.5073928833
        1.8733298779,       -0.0376574397,-0.0550184697,-0.0157565977,-4.0285196304,-0.4044893980,28.2163772583
        1.8760299683,       -0.0293566585,-0.0364637822,-0.0055026915,-3.7691202164,-0.4044893980,28.2163772583
        1.8786938190,       -0.0293566585,-0.0364637822,-0.0055026915,-3.7691202164,-0.4655245543,28.8572463989
        1.8812639713,       -0.0293566585,-0.0364637822,-0.0055026915,-3.2198038101,-0.4655245543,28.8572463989
        1.8838369846,       -0.0293566585,-0.0364637822,-0.0055026915,-3.2198038101,-0.4655245543,29.8490676880
        1.8864150047,       -0.0205675960,-0.0320692509,-0.0113620665,-2.5178995132,-0.8775118589,29.8490676880
        1.8890388012,       -0.0205675960,-0.0320692509,-0.0113620665,-2.5178995132,-0.8775118589,30.6577835083
        1.8916099072,       -0.0205675960,-0.0320692509,-0.0113620665,-1.6939250231,-1.1826876402,30.6577835083
        1.8941888809,       -0.0205675960,-0.0320692509,-0.0113620665,-1.6939250231,-1.1826876402,30.6577835083
        1.8968060017,       -0.0195910335,-0.0315809697,-0.0025730040,-0.6563273668,-1.2742403746,32.8245315552
        1.8995018005,       -0.0195910335,-0.0315809697,-0.0025730040,-0.6563273668,-1.2742403746,34.5640335083
        1.9026498795,       -0.0195910335,-0.0315809697,-0.0025730040,-0.0307170153,-1.2284640074,38.4702835083
        1.9079329967,       -0.0205675960,-0.0530653447,-0.0059909727,0.4270466566,-1.5031222105,36.1814651489
        1.9116618633,       -0.0205675960,-0.0530653447,-0.0059909727,2.1665487289,-1.6099337339,44.6500930786
        1.9289968014,       -0.0357043147,-0.0789442509,0.0091457460,3.0515584946,-1.7930392027,47.9612503052
        1.9322137833,       -0.0357043147,-0.0789442509,0.0091457460,3.0057821274,-1.9456270933,51.6996536255
        1.9367718697,       -0.0415636897,-0.0877333134,0.0179348085,3.0057821274,-1.9456270933,55.6974563599
        1.9412758350,       -0.0415636897,-0.0877333134,0.0179348085,2.7616415024,-2.3423557281,55.6974563599
        1.9447028637,       -0.0415636897,-0.0877333134,0.0179348085,1.9071491957,-2.7085666656,59.8936233521
        1.9474508762,       -0.0430285335,-0.1082411259,0.0081691835,1.9071491957,-2.7085666656,59.8936233521
        1.9500188828,       -0.0430285335,-0.1082411259,0.0081691835,1.2357624769,-3.7309055328,64.3339309692
        1.9525909424,       -0.0430285335,-0.1082411259,0.0081691835,1.2357624769,-3.7309055328,64.3339309692
        1.9551579952,       -0.0430285335,-0.1082411259,0.0081691835,0.0760945082,-4.0513401031,69.2014846802
        1.9577698708,       -0.0786730647,-0.1121473759,-0.0025730040,0.0760945082,-4.0513401031,69.2014846802
        1.9603419304,       -0.0786730647,-0.1121473759,-0.0025730040,0.0760945082,-4.0513401031,73.6417922974
        1.9629158974,       -0.0786730647,-0.1121473759,-0.0025730040,-1.0225383043,-4.0513401031,73.6417922974
        1.9654839039,       -0.0786730647,-0.1121473759,-0.0025730040,-1.0225383043,-4.0513401031,78.3567581177
        1.9681148529,       -0.1084582210,-0.1189833134,-0.0362644121,-1.8770304918,-4.0055637360,78.3567581177
        1.9706859589,       -0.1084582210,-0.1189833134,-0.0362644121,-1.8770304918,-4.0055637360,82.9191360474
        1.9732468128,       -0.1084582210,-0.1189833134,-0.0362644121,-2.8688516617,-4.8905735016,82.9191360474
        1.9758129120,       -0.1084582210,-0.1189833134,-0.0362644121,-2.8688516617,-4.8905735016,82.9191360474
        1.9783937931,       -0.1187121272,-0.0940809697,-0.0592136309,-2.6857461929,-6.2180881500,87.7409133911
        1.9809658527,       -0.1187121272,-0.0940809697,-0.0592136309,-2.6857461929,-6.2180881500,87.7409133911
        1.9835398197,       -0.1187121272,-0.0940809697,-0.0592136309,-2.3805704117,-7.3777561188,91.3572463989
        1.9861099720,       -0.1187121272,-0.0940809697,-0.0592136309,-2.3805704117,-7.3777561188,91.3572463989
        1.9888298512,       -0.1397082210,-0.0677137822,-0.0597019121,-2.4110879898,-8.4611301422,95.5228958130
        1.9914088249,       -0.1397082210,-0.0677137822,-0.0597019121,-2.4110879898,-8.4611301422,95.5228958130
        1.9939789772,       -0.1397082210,-0.0677137822,-0.0597019121,-4.7304239273,-9.2698459625,100.2531204224
        1.9965519905,       -0.1397082210,-0.1927137822,-0.0704440996,-4.7304239273,-9.2698459625,100.2531204224
        1.9993309975,       -0.1680285335,-0.1111708134,-0.0704440996,-8.6061563492,-9.8801975250,104.6171340942
        2.0020349026,       -0.1680285335,-0.1111708134,-0.0704440996,-8.6061563492,-9.8801975250,104.6171340942
        2.0047349930,       -0.1680285335,-0.1111708134,-0.0704440996,-12.1767129898,-8.3238010406,107.8825149536
        2.0074489117,       -0.1563097835,-0.0926161259,-0.0504245684,-12.1767129898,-8.3238010406,107.8825149536
        2.0102729797,       -0.1563097835,-0.0926161259,-0.0504245684,-15.3047647476,-6.0044651031,111.0105667114
        2.0129878521,       -0.1563097835,-0.0926161259,-0.0504245684,-15.3047647476,-6.0044651031,111.0105667114
        2.0156879425,       -0.1563097835,-0.0926161259,-0.0504245684,-18.4938526154,-4.3107395172,114.7794876099
        2.0184078217,       -0.0796496272,-0.0174208134,-0.0015964415,-18.4938526154,-4.3107395172,114.7794876099
        2.0211148262,       -0.0796496272,-0.0174208134,-0.0015964415,-21.0573291779,-4.2497043610,116.5800247192
        2.0238189697,       -0.0796496272,-0.0174208134,-0.0015964415,-21.0573291779,-4.2497043610,116.5800247192
        2.0265209675,       -0.0796496272,-0.0174208134,-0.0015964415,-19.5467090607,-4.7379856110,115.5576858521
        2.0291569233,       -0.0635363460,0.0514268428,0.0506496504,-19.5467090607,-4.7379856110,115.5576858521
        2.0317318439,       -0.0635363460,0.0514268428,0.0506496504,-16.2202930450,-4.4938449860,114.1843948364
        2.0342998505,       -0.0635363460,0.0514268428,0.0506496504,-16.2202930450,-4.4938449860,114.1843948364
        2.0368728638,       -0.0635363460,0.0514268428,0.0560207441,-14.2671670914,-5.0584201813,113.0399856567
        2.0396139622,       -0.0855090022,0.1202744991,0.0560207441,-14.2671670914,-5.0584201813,113.0399856567
        2.0422818661,       -0.0855090022,0.1202744991,0.0560207441,-12.1919717789,-5.2873020172,112.9789505005
        2.0449469090,       -0.0855090022,0.1202744991,0.0560207441,-12.1919717789,-5.2873020172,112.9789505005
        2.0476899147,       -0.0532824397,0.0836534053,0.0643215254,-10.0404825211,-6.9047336578,113.3909378052
        2.0503900051,       -0.0532824397,0.0836534053,0.0643215254,-10.0404825211,-6.9047336578,113.3909378052
        2.0530929565,       -0.0532824397,0.0836534053,0.0643215254,-5.7527627945,-8.1864719391,112.7958450317
        2.0558309555,       -0.0532824397,0.0836534053,0.0643215254,-5.7527627945,-8.1864719391,112.7958450317
        2.0585489273,        0.0321667790,0.1236924678,0.0687160566,-2.7315225601,-8.8578586578,111.8650588989
        2.0612487793,        0.0321667790,0.1236924678,0.0687160566,-2.7315225601,-8.8578586578,111.8650588989
        2.0639498234,        0.0321667790,0.1236924678,0.0687160566,-0.2290812731,-10.0327854156,110.4917678833
        2.0666577816,        0.0321667790,0.1236924678,0.0687160566,-0.2290812731,-10.0327854156,110.4917678833
        2.0693719387,        0.1596081853,0.2262315303,0.0672512129,-0.2290812731,-11.2534885406,108.3097610474
        2.0720779896,        0.1596081853,0.2262315303,0.0672512129,2.4259481430,-11.2534885406,108.3097610474
        2.0748968124,        0.1596081853,0.2262315303,0.0672512129,4.5011434555,-11.9706516266,105.5936965942
        2.0776507854,        0.1596081853,0.2848252654,0.0384426191,4.5011434555,-11.9706516266,105.5936965942
        2.0802338123,        0.2391980290,0.2848252654,0.0384426191,8.4073934555,-12.7183322906,102.2672805786
        2.0828068256,        0.2391980290,0.2848252654,0.0384426191,6.9578084946,-12.7183322906,102.2672805786
        2.0853807926,        0.2391980290,0.2848252654,0.0384426191,6.9578084946,-12.7183322906,98.4068069458
        2.0879688263,        0.1141980290,0.2652940154,-0.0040378477,9.5823202133,-13.1303195953,98.4068069458
        2.0905508995,        0.1820691228,0.2652940154,-0.0040378477,9.5823202133,-13.1303195953,95.6907424927
        2.0931339264,        0.1820691228,0.2652940154,-0.0040378477,12.3899374008,-13.8322238922,95.6907424927
        2.0957078934,        0.1820691228,0.2652940154,-0.0040378477,12.3899374008,-13.8322238922,94.1190872192
        2.0984218121,        0.0292370915,0.1442002803,-0.0728855059,13.0613241196,-14.2747287750,94.1190872192
        2.1010088921,        0.0292370915,0.1442002803,-0.0728855059,13.0613241196,-14.2747287750,94.1190872192
        2.1035888195,        0.0292370915,0.1442002803,-0.0728855059,11.3981161118,-14.1984348297,93.9970169067
        2.1061658859,        0.0292370915,0.1442002803,-0.0728855059,11.3981161118,-14.1984348297,93.9970169067
        2.1089179516,        0.0438855290,0.0196885616,-0.1148776934,7.5376424789,-12.5657444000,95.3397903442
        2.1114997864,        0.0438855290,0.0196885616,-0.1148776934,7.5376424789,-12.5657444000,95.3397903442
        2.1140818596,        0.0438855290,0.0196885616,-0.1148776934,-0.1833049059,-10.6583957672,97.3386917114
        2.1166539192,        0.0438855290,0.0196885616,-0.1148776934,-0.1833049059,-10.6583957672,97.3386917114
        2.1192808151,        0.2391980290,0.1002549678,-0.0465183184,-7.0345010757,-10.0327854156,98.6356887817
        2.1218538284,        0.2391980290,0.1002549678,-0.0465183184,-7.0345010757,-10.0327854156,98.6356887817
        2.1244218349,        0.2391980290,0.1002549678,-0.0465183184,-14.0840616226,-9.6360569000,96.7588577271
        2.1269958019,        0.2391980290,0.1002549678,-0.0465183184,-14.0840616226,-9.6360569000,96.7588577271
        2.1296489239,        0.3939831853,0.2843369842,0.0350246504,-20.5690479279,-7.7744846344,93.9207229614
        2.1322228909,        0.3939831853,0.2843369842,0.0350246504,-20.5690479279,-7.7744846344,93.9207229614
        2.1348028183,        0.3939831853,0.2843369842,0.0350246504,-24.8415088654,-5.8823947906,90.0449905396
        2.1374888420,        0.3939831853,0.2843369842,0.0350246504,-24.8415088654,-5.8823947906,90.0449905396
        2.1400640011,        0.5331433415,0.2980088592,0.1024074629,-24.8415088654,-5.5772190094,84.5670852661
        2.1426358223,        0.5331433415,0.2980088592,0.1024074629,-27.1455860138,-5.5772190094,84.5670852661
        2.1452097893,        0.5331433415,0.2980088592,0.1024074629,-27.1455860138,-1.6709688902,77.4870071411
        2.1477828026,        0.5331433415,0.2980088592,0.1942043453,-25.0398731232,-4.2191867828,77.4870071411
        2.1503617764,        0.4911511540,0.3795518279,0.1942043453,-25.0398731232,-4.2191867828,69.9949417114
        2.1529319286,        0.4911511540,0.3795518279,0.1942043453,-21.3930225372,-2.7543430328,69.9949417114
        2.1555058956,        0.4911511540,0.3795518279,0.1942043453,-21.3930225372,-2.7543430328,62.1824417114
        2.1581168175,        0.4911511540,0.3795518279,0.2083645016,-16.4491748810,-1.9608858824,62.8843460083
        2.1606919765,        0.3842175603,0.4298447967,0.2083645016,-16.4491748810,-1.9608858824,62.8843460083
        2.1632699966,        0.3842175603,0.4298447967,0.2083645016,-10.6050577164,-3.7309055328,55.4227981567
        2.1658349037,        0.3842175603,0.4298447967,0.2083645016,-10.6050577164,-3.7309055328,55.4227981567
        2.1684079170,        0.3842175603,0.3048447967,0.1043605879,-5.9969034195,-5.6077365875,49.1819534302
        2.1709859371,        0.1600964665,0.3766221404,0.1043605879,-5.9969034195,-5.6077365875,49.1819534302
        2.1735568047,        0.1600964665,0.3766221404,0.1043605879,-3.3571329117,-4.1428928375,44.2991409302
        2.1761319637,        0.1600964665,0.3766221404,0.1043605879,-3.3571329117,-4.1428928375,44.2991409302
        2.1787929535,       -0.0899035335,0.3692979217,-0.0518894121,-1.1140910387,-1.1674288511,40.7743606567
        2.1814959049,       -0.1611925960,0.3692979217,-0.0518894121,-1.1140910387,-1.1674288511,40.7743606567
        2.1842019558,       -0.1611925960,0.3692979217,-0.0518894121,-0.9157267809,1.4723416567,39.5383987427
        2.1869008541,       -0.1611925960,0.3692979217,-0.0518894121,-0.9157267809,1.4723416567,39.5383987427
        2.1896197796,       -0.3413683772,0.3380479217,-0.1749362797,-2.3958292007,4.8292751312,39.3247756958
        2.1923279762,       -0.3413683772,0.3380479217,-0.1749362797,-2.3958292007,4.8292751312,39.3247756958
        2.1950318813,       -0.3413683772,0.3380479217,-0.1749362797,-4.9440469742,8.7660427094,40.5759963989
        2.1977508068,       -0.3413683772,0.3380479217,-0.1749362797,-4.9440469742,8.7660427094,40.5759963989
        2.2005639076,       -0.3735949397,0.3063096404,-0.1861667484,-6.7140665054,11.8178005219,41.5830764771
        2.2032718658,       -0.3735949397,0.3063096404,-0.1861667484,-6.7140665054,11.8178005219,41.5830764771
        2.2059788704,       -0.3735949397,0.3063096404,-0.1861667484,-9.5216836929,13.8777370453,42.4833450317
        2.2087328434,       -0.3735949397,0.1813096553,-0.1353854984,-9.5216836929,13.8777370453,42.4833450317
        2.2114329338,       -0.1968371272,0.2208604366,-0.1353854984,-14.9995889664,14.9611110687,43.0021438599
        2.2141468525,       -0.1968371272,0.2208604366,-0.1353854984,-14.9995889664,14.9611110687,43.0021438599
        2.2168509960,       -0.1968371272,0.2208604366,-0.1353854984,-21.1183643341,15.7240505219,41.6898880005
        2.2194828987,        0.2069714665,0.2809190154,-0.0728855059,-21.1183643341,15.7240505219,41.6898880005
        2.2220609188,        0.2069714665,0.2809190154,-0.0728855059,-25.1161670685,16.0597438812,37.9820022583
        2.2246417999,        0.2069714665,0.2809190154,-0.0728855059,-25.1161670685,16.0597438812,37.9820022583
        2.2272238731,        0.2069714665,0.2809190154,-0.0728855059,-26.9472217560,15.3425807953,31.8784866333
        2.2299609184,        0.5336316228,0.3541612029,-0.0445651934,-26.9472217560,15.3425807953,31.8784866333
        2.2326669693,        0.5336316228,0.3541612029,-0.0445651934,-26.9472217560,14.5796413422,24.6915969849
        2.2353818417,        0.5336316228,0.3541612029,-0.0445651934,-26.6420459747,14.5796413422,24.6915969849
        2.2381589413,        0.5336316228,0.3541612029,-0.0445651934,-26.7488574982,13.8472194672,16.1771926880
        2.2408719063,        0.7973034978,0.3722276092,0.0330715254,-26.7488574982,13.8472194672,16.1771926880
        2.2435798645,        0.7973034978,0.3722276092,0.0330715254,-26.7488574982,12.5807399750,7.0219192505
        2.2462859154,        0.7973034978,0.3722276092,0.0330715254,-25.0703907013,12.5807399750,7.0219192505
        2.2490079403,        0.7973034978,0.4972276092,0.1541652828,-17.2578907013,11.2074489594,-3.6592330933
        2.2517168522,        0.8090222478,0.4733018279,0.1541652828,-19.9892139435,11.2074489594,-3.6592330933
        2.2544269562,        0.8090222478,0.4733018279,0.1541652828,-16.0829639435,7.8352565765,-16.4460983276
        2.2571358681,        0.8090222478,0.4733018279,0.1541652828,-13.1837930679,7.8352565765,-16.4460983276
        2.2598538399,        0.5028699040,0.4181260467,0.2195949703,-5.3712930679,2.9677028656,-28.5310592651
        2.2625629902,        0.5028699040,0.4181260467,0.2195949703,-7.8737344742,2.9677028656,-28.5310592651
        2.2653748989,        0.5028699040,0.4181260467,0.2195949703,-4.0895547867,-0.6791476011,-38.2356491089
        2.2680988312,        0.5028699040,0.4181260467,0.2195949703,-4.0895547867,-0.6791476011,-38.2356491089
        2.2706789970,        0.0946667790,0.3678330779,0.2127590328,-4.0895547867,-2.8611545563,-46.5669479370
        2.2732520103,        0.0946667790,0.3678330779,0.2127590328,-2.7925577164,-2.8611545563,-46.5669479370
        2.2758219242,        0.0946667790,0.3678330779,0.2127590328,-2.7925577164,-6.7674045563,-53.7843551636
        2.2784578800,        0.0946667790,0.3678330779,0.2127590328,-0.1222697496,-6.4622287750,-53.7843551636
        2.2811629772,       -0.1943957210,0.3692979217,0.1722316891,-0.1222697496,-10.3684787750,-62.4666061401
        2.2838709354,       -0.1943957210,0.3692979217,0.1722316891,1.5256794691,-10.7957248688,-62.4666061401
        2.2865748405,       -0.1943957210,0.3692979217,0.1722316891,1.5256794691,-14.7019748688,-70.6453170776
        2.2893249989,       -0.1943957210,0.3692979217,0.0643215254,1.1899861097,-15.2207736969,-70.6453170776
        2.2920370102,       -0.3081652522,0.3951768279,0.0643215254,1.1899861097,-15.2207736969,-78.1068649292
        2.2947418690,       -0.3081652522,0.3951768279,0.0643215254,-0.0001994371,-19.2948703766,-78.1068649292
        2.2974557877,       -0.3081652522,0.3951768279,0.0643215254,-0.0001994371,-19.2948703766,-86.9417037964
        2.3001689911,       -0.3081652522,0.4259385467,-0.0816745684,-1.7244426012,-20.2256565094,-86.9417037964
        2.3028759956,       -0.3364855647,0.4259385467,-0.0816745684,-1.7244426012,-20.2256565094,-94.7999801636
        2.3055868149,       -0.3364855647,0.4259385467,-0.0816745684,-4.3947305679,-20.8817844391,-94.7999801636
        2.3083398342,       -0.3364855647,0.4259385467,-0.0816745684,-4.3947305679,-20.8817844391,-103.1007614136
        2.3110449314,       -0.3228136897,0.5055283904,-0.1080417559,-6.6377725601,-23.5062961578,-103.1007614136
        2.3137598038,       -0.3228136897,0.5055283904,-0.1080417559,-6.6377725601,-23.5062961578,-113.5835494995
        2.3164699078,       -0.3228136897,0.5055283904,-0.1080417559,-8.1026163101,-24.7117404938,-113.5835494995
        2.3191118240,       -0.3228136897,0.5055283904,-0.1080417559,-8.1026163101,-24.7117404938,-125.8058395386
        2.3216929436,       -0.3755480647,0.5504502654,-0.1129245684,-6.5767374039,-24.1013889313,-125.8058395386
        2.3242678642,       -0.3755480647,0.5504502654,-0.1129245684,-6.5767374039,-24.1013889313,-125.8058395386
        2.3268458843,       -0.3755480647,0.5504502654,-0.1129245684,-3.4944620132,-22.4229221344,-139.7371215820
        2.3296740055,       -0.3755480647,0.5504502654,-0.1436862797,-3.4944620132,-22.4229221344,-155.3621215820
        2.3323829174,       -0.5415636897,0.6100205779,-0.1436862797,3.7229452133,-19.3101291656,-154.4008178711
        2.3350949287,       -0.5415636897,0.6100205779,-0.1436862797,3.7229452133,-19.3101291656,-166.1195678711
        2.3378119469,       -0.5415636897,0.6100205779,-0.1436862797,14.6787557602,-15.4954319000,-166.8672485352
        2.3405239582,       -0.9165636897,0.7101182342,-0.1705417484,14.6787557602,-15.4954319000,-178.5859985352
        2.3432388306,       -0.9263293147,0.7101182342,-0.1705417484,29.6934032440,-9.9870090485,-175.2443237305
        2.3459479809,       -0.9263293147,0.7101182342,-0.1705417484,29.6934032440,-9.9870090485,-175.2443237305
        2.3486678600,       -0.9263293147,0.7101182342,-0.1705417484,48.8584442139,-4.4938449860,-181.1036987305
        2.3513748646,       -1.1875598431,0.6241807342,-0.1441745609,48.8584442139,-4.4938449860,-181.1036987305
        2.3540818691,       -1.1875598431,0.6241807342,-0.1441745609,71.7008514404,0.8772488832,-188.5194702148
        2.3567957878,       -1.1875598431,0.6241807342,-0.1441745609,71.7008514404,0.8772488832,-188.5194702148
        2.3595149517,       -1.1875598431,0.6241807342,-0.1441745609,90.8353729248,3.7611598969,-198.4071655273
        2.3622229099,       -1.2642199993,0.1900987178,-0.0777683184,90.8353729248,3.7611598969,-198.4071655273
        2.3649339676,       -1.2642199993,0.1900987178,-0.0777683184,87.2342987061,4.5851345062,-208.6610717773
        2.3676819801,       -1.2642199993,0.1900987178,-0.0777683184,87.2342987061,4.5851345062,-208.6610717773
        2.3702638149,       -1.2642199993,0.1900987178,0.0154934023,83.9231414795,1.6249295473,-223.6299438477
        2.3728389740,       -1.2515246868,-0.3841200471,0.0154934023,83.9231414795,1.6249295473,-223.6299438477
        2.3754138947,       -1.2515246868,-0.3841200471,0.0154934023,93.1089324951,-2.4644260406,-232.4495239258
        2.3780789375,       -1.2515246868,-0.3841200471,0.0154934023,93.1089324951,-2.4644260406,-232.4495239258
        2.3807878494,       -1.2515246868,-0.5667372346,0.1790676266,86.2882537842,-0.8317354918,-231.5034790039
        2.3834948540,       -1.0249621868,-0.5667372346,0.1790676266,86.2882537842,-0.8317354918,-231.5034790039
        2.3862099648,       -1.0249621868,-0.5667372346,0.1790676266,73.6844940186,1.6401883364,-231.4271850586
        2.3889279366,       -1.0249621868,-0.5667372346,0.1790676266,73.6844940186,1.6401883364,-231.4271850586
        2.3916368484,       -0.5786730647,-0.6658583283,0.2200832516,64.7886199951,1.5944119692,-239.1328735352
        2.3944609165,       -0.5786730647,-0.6658583283,0.2200832516,64.7886199951,1.5944119692,-239.1328735352
        2.3971698284,       -0.5786730647,-0.6658583283,0.2200832516,56.5946502686,10.2003688812,-240.5519409180
        2.3999278545,       -0.5786730647,-0.6658583283,0.2200832516,56.5946502686,10.2003688812,-240.5519409180
        2.4026319981,       -0.4058215022,-0.4583387971,0.0652980879,49.6213836670,20.8204860687,-235.0282592773
        2.4053428173,       -0.4058215022,-0.4583387971,0.0652980879,49.6213836670,20.8204860687,-235.0282592773
        2.4080629349,       -0.4058215022,-0.4583387971,0.0652980879,45.9745330811,30.6776638031,-223.5536499023
        2.4107749462,       -0.4058215022,0.1666612178,-0.0806980059,45.9745330811,30.6776638031,-223.5536499023
        2.4134948254,       -0.6192004085,0.2550401092,-0.0806980059,28.5489940643,38.3986129761,-197.3695678711
        2.4162068367,       -0.6192004085,0.2550401092,-0.0806980059,28.5489940643,38.3986129761,-197.3695678711
        2.4188559055,       -0.6192004085,0.2550401092,-0.0806980059,3.9518270493,44.8530807495,-145.0929565430
        2.4214379787,       -0.8408800960,1.7496690750,0.3753566742,3.9518270493,44.8530807495,-145.0929565430
        2.4240119457,       -0.8408800960,1.7496690750,0.3753566742,5.0809774399,53.9168014526,-104.2604293823
        2.4266519547,       -0.8408800960,1.7496690750,0.3753566742,5.0809774399,53.9168014526,-104.2604293823
        2.4294970036,       -0.8408800960,1.7496690750,0.3753566742,23.0710887909,63.2551803589,-91.5651168823
        2.4321639538,        0.2860730290,2.5167589188,0.7513332367,23.0710887909,63.2551803589,-91.5651168823
        2.4349699020,        0.2860730290,2.5167589188,0.7513332367,41.5342254639,50.1936569214,-92.8163375854
        2.4381558895,        0.2860730290,2.5167589188,0.7513332367,41.5342254639,50.1936569214,-92.8163375854
        2.4408679008,        0.2860730290,2.5167589188,0.7674465179,39.6421356201,32.6918258667,-100.7814254761
        2.4435799122,        0.7279675603,0.9996690154,0.7674465179,39.6421356201,32.6918258667,-100.7814254761
        2.4462878704,        0.7279675603,0.9996690154,0.7674465179,44.3571014404,8.0641384125,-81.5095748901
        2.4490039349,        0.7279675603,0.9996690154,0.7674465179,44.3571014404,8.0641384125,-81.5095748901
        2.4517109394,        0.3529675603,0.1944932491,0.1277980953,48.4617156982,-13.0845432281,-49.0693893433
        2.4544169903,        0.4247449040,0.1944932491,0.1277980953,48.4617156982,-13.0845432281,-49.0693893433
        2.4571208954,        0.4247449040,0.1944932491,0.1277980953,56.2436981201,-29.2741184235,-17.8499069214
        2.4599578381,        0.4247449040,0.1944932491,0.1277980953,56.2436981201,-29.2741184235,-17.8499069214
        2.4626698494,        0.3803113103,0.0900010616,-0.2100925297,70.4801483154,-39.0244827271,3.7412796021
        2.4653799534,        0.3803113103,0.0900010616,-0.2100925297,70.4801483154,-39.0244827271,3.7412796021
        2.4683268070,        0.3803113103,0.0900010616,-0.2100925297,84.8691864014,-43.4495315552,19.5341262817
        2.4709007740,        0.3803113103,0.0900010616,-0.2100925297,84.8691864014,-43.4495315552,19.5341262817
        2.4734799862,        0.6532605290,0.0846299678,-0.2110690922,92.8647918701,-44.7160110474,29.4065628052
        2.4760568142,        0.6532605290,0.0846299678,-0.2110690922,92.8647918701,-44.7160110474,29.4065628052
        2.4786739349,        0.6532605290,0.0846299678,-0.2110690922,87.8904266357,-42.1067581177,39.1874465942
        2.4812498093,        0.6532605290,0.0846299678,-0.0689792559,87.8904266357,-42.1067581177,39.1874465942
        2.4838228226,        0.5736706853,0.0445909053,-0.0689792559,73.4556121826,-37.6054153442,51.3792190552
        2.4863989353,        0.5736706853,0.0445909053,-0.0689792559,73.4556121826,-37.6054153442,51.3792190552
        2.4890689850,        0.5736706853,0.0445909053,-0.0689792559,60.0889129639,-33.1651077271,58.3677444458
        2.4917829037,        0.5736706853,-0.0325575322,0.0413723066,60.0889129639,-33.1651077271,58.3677444458
        2.4944880009,        0.5473034978,-0.0325575322,0.0413723066,49.5908660889,-26.3444309235,62.4113235474
        2.4971959591,        0.5473034978,-0.0325575322,0.0413723066,49.5908660889,-26.3444309235,62.4113235474
        2.4999518394,        0.5473034978,-0.0325575322,0.0413723066,39.3827362061,-19.4016819000,65.2036819458
        2.5026559830,        0.5521863103,-0.2439833134,-0.0367526934,39.3827362061,-19.4016819000,65.2036819458
        2.5053617954,        0.5521863103,-0.2439833134,-0.0367526934,27.2672557831,-13.9695529938,68.0570755005
        2.5080959797,        0.5521863103,-0.2439833134,-0.0367526934,27.2672557831,-13.9695529938,68.0570755005
        2.5106709003,        0.5521863103,-0.2439833134,-0.0367526934,14.3888387680,-8.5374240875,70.5747756958
        2.5132439137,        0.4916394353,-0.3660536408,-0.1842136234,14.3888387680,-8.5374240875,70.5747756958
        2.5158188343,        0.4916394353,-0.3660536408,-0.1842136234,-1.2361613512,-1.8845919371,74.4352493286
        2.5184788704,        0.4916394353,-0.3660536408,-0.1842136234,0.3812702894,-1.8845919371,74.4352493286
        2.5210518837,        0.4916394353,-0.3660536408,-0.1842136234,0.3812702894,3.3339138031,78.4177932739
        2.5236239433,        0.4828503728,-0.3914442658,-0.2315769047,-13.6568155289,3.3339138031,78.4177932739
        2.5263099670,        0.4828503728,-0.3914442658,-0.2315769047,-13.6568155289,7.8047389984,81.2101516724
        2.5289978981,        0.4828503728,-0.3914442658,-0.2315769047,-26.4131641388,7.8047389984,81.2101516724
        2.5315759182,        0.4828503728,-0.3914442658,-0.2315769047,-26.4131641388,7.8047389984,83.1937942505
        2.5341489315,        0.5126355290,-0.3831434846,-0.2218112797,-35.6447296143,10.8412380219,83.1937942505
        2.5367248058,        0.5126355290,-0.3831434846,-0.2218112797,-35.6447296143,10.8412380219,83.1937942505
        2.5394129753,        0.5126355290,-0.3831434846,-0.2218112797,-40.5428009033,12.7333278656,84.3992385864
        2.5421259403,        0.5126355290,-0.3831434846,-0.1778659672,-40.5428009033,12.7333278656,84.3992385864
        2.5448319912,        0.5302136540,-0.3738661408,-0.1778659672,-42.1907501221,13.7098903656,85.1774368286
        2.5475449562,        0.5302136540,-0.3738661408,-0.1778659672,-42.1907501221,13.7098903656,85.1774368286
        2.5502529144,        0.5302136540,-0.3738661408,-0.1778659672,-41.7177276611,14.1371364594,84.0025100708
        2.5529589653,        0.5170300603,-0.4388075471,-0.1685886234,-41.7177276611,14.1371364594,80.0962600708
        2.5556688309,        0.5170300603,-0.4388075471,-0.1685886234,-41.3209991455,14.7169704437,80.8591995239
        2.5583529472,        0.5170300603,-0.4388075471,-0.1685886234,-41.3209991455,14.7169704437,80.8591995239
        2.5609288216,        0.5170300603,-0.4388075471,-0.1685886234,-40.3596954346,15.2968044281,77.1818313599
        2.5635058880,        0.5263074040,-0.5891981721,-0.2032565922,-40.3596954346,15.2968044281,77.1818313599
        2.5660798550,        0.5263074040,-0.5891981721,-0.2032565922,-40.7259063721,15.6324977875,72.1616897583
        2.5688238144,        0.5263074040,-0.5891981721,-0.2032565922,-40.7259063721,15.6324977875,72.1616897583
        2.5714008808,        0.5263074040,-0.5891981721,-0.2032565922,-43.8386993408,16.2581081390,63.9524612427
        2.5739769936,        0.5897839665,-0.7439833283,-0.2262058109,-43.8386993408,16.2581081390,63.9524612427
        2.5765559673,        0.5897839665,-0.7439833283,-0.2262058109,-47.8975372314,15.1747341156,53.1492385864
        2.5793578625,        0.5897839665,-0.7439833283,-0.2262058109,-47.8975372314,15.1747341156,53.1492385864
        2.5819377899,        0.5897839665,-0.7439833283,-0.2262058109,-52.0479278564,14.1829128265,40.3471145630
        2.5846569538,        0.7753308415,-0.7449598908,-0.2218112797,-52.0479278564,14.1829128265,40.3471145630
        2.5872337818,        0.7753308415,-0.7449598908,-0.2218112797,-55.9694366455,13.0995388031,27.1940383911
        2.5901069641,        0.7753308415,-0.7449598908,-0.2218112797,-55.9694366455,13.0995388031,27.1940383911
        2.5928177834,        0.7753308415,-0.6302137971,-0.1939792484,-57.2053985596,12.4128932953,14.3308792114
        2.5955209732,        0.8695691228,-0.6302137971,-0.1939792484,-57.2053985596,12.4128932953,14.3308792114
        2.5982367992,        0.8695691228,-0.6302137971,-0.1939792484,-55.9389190674,12.1534938812,2.2611770630
        2.6009409428,        0.8695691228,-0.6302137971,-0.1939792484,-55.9389190674,12.1534938812,2.2611770630
        2.6036438942,        0.8827527165,-0.4759169221,-0.1422214359,-53.1770782471,12.6417751312,-8.1605758667
        2.6063578129,        0.8827527165,-0.4759169221,-0.1422214359,-53.1770782471,12.6417751312,-8.1605758667
        2.6090688705,        0.8827527165,-0.4759169221,-0.1422214359,-50.3084259033,13.6335964203,-17.3921432495
        2.6117727757,        0.8827527165,-0.4759169221,-0.1422214359,-50.3084259033,13.6335964203,-17.3921432495
        2.6144878864,        0.8090222478,-0.3787489533,-0.0450534746,-46.4784698486,13.8777370453,-25.3877487183
        2.6171908379,        0.8090222478,-0.3787489533,-0.0450534746,-46.4784698486,13.8777370453,-25.3877487183
        2.6198239326,        0.8090222478,-0.3787489533,-0.0450534746,-41.0921173096,13.8167018890,-32.7730026245
        2.6224029064,        0.8090222478,-0.3787489533,0.0799465254,-41.0921173096,13.8167018890,-32.7730026245
        2.6249818802,        0.6796277165,-0.3284559846,0.0286769960,-34.5003204346,15.1899929047,-37.6863327026
        2.6275558472,        0.6796277165,-0.3284559846,0.0286769960,-34.5003204346,15.1899929047,-37.6863327026
        2.6301388741,        0.6796277165,-0.3284559846,0.0286769960,-30.5940723419,15.7393093109,-41.2416305542
        2.6327168941,        0.6796277165,-0.3284559846,0.0306301210,-29.2970752716,15.7393093109,-41.2416305542
        2.6353018284,        0.6068738103,-0.2693739533,0.0306301210,-29.2970752716,15.6782741547,-43.5762252808
        2.6380579472,        0.6068738103,-0.2693739533,0.0306301210,-26.9014453888,15.6782741547,-43.5762252808
        2.6407668591,        0.6068738103,-0.2693739533,0.0306301210,-26.9014453888,16.0902614594,-44.7358932495
        2.6434779167,        0.4818738103,-0.2171278447,-0.0299167540,-26.4894580841,16.0902614594,-44.7358932495
        2.6461868286,        0.5429089665,-0.2171278447,-0.0299167540,-26.4894580841,16.7006130219,-43.6372604370
        2.6489429474,        0.5429089665,-0.2171278447,-0.0299167540,-29.1597461700,16.7006130219,-43.6372604370
        2.6516559124,        0.5429089665,-0.2171278447,-0.0299167540,-29.1597461700,17.7382106781,-41.2263717651
        2.6544718742,        0.5175183415,-0.1492567509,-0.0689792559,-32.7760772705,17.7382106781,-41.2263717651
        2.6571819782,        0.5175183415,-0.1492567509,-0.0689792559,-32.7760772705,19.8744411469,-37.7626266479
        2.6599328518,        0.5175183415,-0.1492567509,-0.0689792559,-34.6834259033,19.8744411469,-37.7626266479
        2.6626498699,        0.5175183415,-0.1492567509,-0.0689792559,-34.6834259033,20.6678981781,-33.6122360229
        2.6653559208,        0.5214245915,-0.0198622197,-0.1207370684,-34.2256622314,20.6678981781,-33.6122360229
        2.6681118011,        0.5214245915,-0.0198622197,-0.1207370684,-34.2256622314,21.2629909515,-29.2024459839
        2.6708278656,        0.5214245915,-0.0198622197,-0.1207370684,-33.9967803955,21.2629909515,-29.2024459839
        2.6735398769,        0.5214245915,0.0694932491,-0.0631198809,-33.9967803955,21.4460964203,-25.4182662964
        2.6762468815,        0.5385144353,0.0694932491,-0.0631198809,-32.8828887939,21.4460964203,-25.4182662964
        2.6790258884,        0.5385144353,0.0694932491,-0.0631198809,-28.9766407013,21.1104030609,-21.8782272339
        2.6816039085,        0.5385144353,0.0694932491,-0.0631198809,-29.1444873810,21.1104030609,-21.8782272339
        2.6842639446,        0.5551159978,0.1256455928,-0.0260105040,-29.1444873810,21.1104030609,-17.7736129761
        2.6873369217,        0.5551159978,0.1256455928,-0.0260105040,-25.8333301544,20.5153102875,-17.7736129761
        2.6899178028,        0.5551159978,0.1256455928,-0.0260105040,-25.8333301544,20.2406520844,-13.2264938354
        2.6924967766,        0.5551159978,0.1256455928,-0.0260105040,-25.2382373810,20.2406520844,-13.2264938354
        2.6950759888,        0.5726941228,0.1442002803,-0.0284519102,-25.2382373810,20.2406520844,-7.1840133667
        2.6977338791,        0.5726941228,0.1442002803,-0.0284519102,-27.2523975372,19.2030544281,-7.1840133667
        2.7004458904,        0.5726941228,0.1442002803,-0.0284519102,-27.2523975372,15.2968044281,0.2164993286
        2.7031559944,        0.5726941228,0.1442002803,0.0965480879,-29.5106983185,17.8907985687,0.2164993286
        2.7058658600,        0.5805066228,0.1202744991,-0.0186862852,-32.9744415283,18.0128688812,7.9679641724
        2.7094268799,        0.5805066228,0.1202744991,-0.0186862852,-32.9744415283,18.0128688812,7.9679641724
        2.7123899460,        0.5805066228,0.1202744991,-0.0186862852,-37.5673370361,17.4330348969,16.5891799927
        2.7156119347,        0.5980847478,0.0865830928,0.0086574648,-37.5673370361,17.4330348969,16.5891799927
        2.7184958458,        0.5980847478,0.0865830928,0.0086574648,-41.3972930908,17.5551052094,25.7139358521
        2.7233579159,        0.5980847478,0.0865830928,0.0110988710,-43.1062774658,17.5856227875,60.7481155396
        2.7429277897,        0.5292370915,0.1456651241,-0.0494480059,-48.2484893799,18.6537380219,60.7481155396
        2.7455058098,        0.5209363103,0.2003526241,-0.0743503496,-46.2801055908,18.3180446625,67.6298294067
        2.7482519150,        0.5209363103,0.2003526241,-0.0743503496,-46.2801055908,18.3180446625,67.6298294067
        2.7508418560,        0.5209363103,0.2003526241,-0.0743503496,-44.0065460205,16.8379421234,73.8706741333
        2.7534198761,        0.5209363103,0.2003526241,-0.0743503496,-44.0065460205,16.8379421234,73.8706741333
        2.7559959888,        0.5233777165,0.1349229366,-0.0142917540,-41.5193634033,15.7393093109,80.0504837036
        2.7585878372,        0.5233777165,0.1349229366,-0.0142917540,-41.5193634033,15.7393093109,80.0504837036
        2.7611589432,        0.5233777165,0.1349229366,-0.0142917540,-38.2387237549,14.0608425140,85.2079544067
        2.7637360096,        0.5233777165,0.1349229366,-0.0142917540,-38.2387237549,14.0608425140,85.2079544067
        2.7663087845,        0.5072644353,0.1178330928,0.0652980879,-33.8441925049,11.9703884125,92.6847610474
        2.7689359188,        0.5072644353,0.1178330928,0.0652980879,-33.8441925049,11.9703884125,92.6847610474
        2.7715108395,        0.5072644353,0.1178330928,0.0652980879,-31.6469287872,13.1758327484,120.6693801880
        2.7768938541,        0.5536511540,3.0099229813,0.1092434004,-31.6469287872,21.3240261078,148.1046752930
        2.7795379162,        0.5536511540,3.0099229813,0.1092434004,-44.9068145752,21.3240261078,148.1046752930
        2.7821078300,        0.5536511540,3.0099229813,0.1092434004,-44.9068145752,36.9490280151,166.3999633789
        2.7846889496,        0.5536511540,4.3126573563,0.6038722992,-90.2864532471,34.9348678589,166.3999633789
        2.7872657776,       -0.5234972835,4.3126573563,0.6038722992,-90.2864532471,34.9348678589,215.4111938477
        2.7898478508,       -0.5234972835,4.3126573563,0.6038722992,-101.2575225830,26.8934841156,215.4111938477
        2.7924308777,       -0.5234972835,4.3126573563,0.6038722992,-101.2575225830,26.8934841156,215.4111938477
        2.7950007915,       -1.3984973431,-0.2151747197,-0.2608737946,-49.0572052002,18.2417507172,262.1336059570
        2.7976229191,       -1.3540637493,-0.2151747197,-0.2608737946,-49.0572052002,18.2417507172,262.1336059570
        2.8002028465,       -1.3540637493,-0.2151747197,-0.2608737946,-14.0382852554,17.0668239594,256.4725952148
        2.8027808666,       -1.3540637493,-0.2151747197,-0.2608737946,-14.0382852554,17.0668239594,256.4725952148
        2.8054978848,       -1.2129504681,-2.1072645187,-0.4381198883,-16.4339160919,9.8646755219,203.2651977539
        2.8081538677,       -1.2129504681,-2.1072645187,-0.4381198883,-16.4339160919,9.8646755219,203.2651977539
        2.8107287884,       -1.2129504681,-2.1072645187,-0.4381198883,-31.3417530060,6.5840358734,147.6621704102
        2.8133118153,       -1.2129504681,-2.1072645187,-0.4381198883,-31.3417530060,6.5840358734,147.6621704102
        2.8158898354,       -0.4590441585,-0.7234755158,-0.3404636383,-59.6315460205,2.8608913422,119.8759231567
        2.8186359406,       -0.4590441585,-0.7234755158,-0.3404636383,-59.6315460205,2.8608913422,119.8759231567
        2.8212189674,       -0.4590441585,-0.7234755158,-0.3404636383,-65.3535919189,1.8538113832,110.4154739380
        2.8237957954,       -0.4590441585,-0.7234755158,-0.3404636383,-65.3535919189,1.8538113832,110.4154739380
        2.8263769150,       -0.6895129085,-0.1604872197,-0.1373386234,-50.7051544189,7.6826686859,123.5380325317
        2.8291068077,       -0.6895129085,-0.1604872197,-0.1373386234,-50.7051544189,7.6826686859,123.5380325317
        2.8316829205,       -0.6895129085,-0.1604872197,-0.1373386234,-61.0963897705,14.2744655609,123.2481155396
        2.8342700005,       -0.6895129085,-0.1604872197,-0.1373386234,-61.0963897705,14.2744655609,123.2481155396
        2.8368477821,       -0.8047472835,-0.3865614533,0.2352199703,-80.6276397705,13.7404079437,111.3157424927
        2.8396048546,       -0.8047472835,-0.3865614533,0.2352199703,-80.0020294189,13.7404079437,111.3157424927
        2.8423168659,       -0.8047472835,-0.3865614533,0.2352199703,-91.7207794189,4.1731472015,86.3218460083
        2.8450169563,       -0.8047472835,0.1134385616,0.6629543304,-93.2619171143,4.1731472015,86.3218460083
        2.8477339745,       -1.1309192181,0.0582627803,0.6629543304,-104.9806671143,-13.1455783844,67.7518997192
        2.8504438400,       -1.1309192181,0.0582627803,0.6629543304,-105.0264434814,-13.1455783844,67.7518997192
        2.8531498909,       -1.1309192181,0.0582627803,0.6629543304,-93.3076934814,-31.1967258453,59.2222366333
        2.8558578491,       -1.0278918743,0.7154893279,0.9735012054,-92.2700958252,-31.1967258453,59.2222366333
        2.8585829735,       -1.0278918743,0.7154893279,0.9735012054,-53.2075958252,-36.2168655396,48.4342727661
        2.8612909317,       -1.0278918743,0.7154893279,0.9735012054,-53.6195831299,-36.2168655396,48.4342727661
        2.8640029430,       -1.0278918743,0.7154893279,0.9735012054,-22.3695850372,-41.5269241333,38.9585647583
        2.8667039871,       -1.2002551556,0.2814072967,0.5057277679,-24.0633106232,-41.5269241333,38.9585647583
        2.8695359230,       -1.2002551556,0.2814072967,0.5057277679,-0.6258097887,-47.9813919067,31.3596878052
        2.8722398281,       -1.2002551556,0.2814072967,0.5057277679,1.1899861097,-47.9813919067,31.3596878052
        2.8749439716,       -1.2002551556,0.2814072967,-0.1192722246,20.7212352753,-40.4435501099,26.2174758911
        2.8776888847,       -1.6309192181,0.1783799678,-0.0538425371,20.4923534393,-40.4435501099,26.2174758911
        2.8802709579,       -1.6309192181,0.1783799678,-0.0538425371,20.4923534393,-37.6054153442,30.9477005005
        2.8828508854,       -1.6309192181,0.1783799678,-0.0538425371,23.1626415253,-37.6054153442,30.9477005005
        2.8855118752,       -1.6309192181,0.1783799678,-0.6632175446,23.1626415253,-29.7929172516,39.1111526489
        2.8881359100,       -1.3960559368,0.2594346404,-0.6632175446,19.5310497284,-31.2882785797,39.1111526489
        2.8907117844,       -1.3960559368,0.2594346404,-0.6632175446,19.5310497284,-31.2882785797,41.9340286255
        2.8932878971,       -1.3960559368,0.2594346404,-0.6632175446,11.2607870102,-25.8256320953,41.9340286255
        2.8958628178,       -1.3960559368,0.3321885467,-0.6417331696,11.2607870102,-25.8256320953,38.0277786255
        2.8985888958,       -0.3252550960,0.3321885467,-0.6417331696,6.6068563461,-23.2011203766,36.8681106567
        2.9012978077,       -0.3252550960,0.3321885467,-0.6417331696,6.6068563461,-23.2011203766,25.1493606567
        2.9039978981,       -0.3252550960,0.3321885467,-0.6417331696,-1.0835734606,-21.0954074860,27.9264602661
        2.9066979885,        0.1610730290,0.4469346404,-0.2603855133,-1.0835734606,-21.0954074860,20.1139602661
        2.9094099998,        0.1610730290,0.4469346404,-0.2603855133,-8.4993448257,-18.5166721344,17.1079788208
        2.9121139050,        0.1610730290,0.4469346404,-0.2603855133,-8.4993448257,-18.5166721344,17.1079788208
        2.9148168564,        0.1610730290,0.4469346404,-0.2603855133,-12.4208536148,-17.2501926422,5.1145706177
        2.9175338745,        0.4154675603,0.4698838592,-0.0387058184,-12.4208536148,-17.2501926422,5.1145706177
        2.9201118946,        0.4154675603,0.4698838592,-0.0387058184,-10.3609170914,-17.6926975250,-7.3366012573
        2.9226849079,        0.4154675603,0.4698838592,-0.0387058184,-10.3609170914,-17.6926975250,-7.3366012573
        2.9252579212,        0.4154675603,0.4698838592,-0.0387058184,-5.8137979507,-18.4403781891,-19.5436325073
        2.9278588295,        0.4183972478,0.3790635467,0.1429348141,-5.8137979507,-18.4403781891,-19.5436325073
        2.9304389954,        0.4183972478,0.3790635467,0.1429348141,-3.4792032242,-17.5248508453,-30.7741012573
