time, acceleration x, acceleration y, acceleration z, gyro x gyro y, gyro z
        0.0000000000,       -0.0242575407,-0.0139415115,-0.0375037789,0.7437505722,5.0578346252,14.0346727371
        0.0026960373,       -0.0296286345,-0.0212657303,-0.0355506539,0.7437505722,5.0578346252,14.0346727371
        0.0053911209,       -0.0296286345,-0.0212657303,-0.0355506539,1.9949712753,4.6305885315,15.0112352371
        0.0081431866,       -0.0296286345,-0.0212657303,-0.0355506539,1.9949712753,4.6305885315,15.0112352371
        0.0108389854,       -0.0296286345,-0.0212657303,-0.0355506539,3.1546392441,4.6305885315,15.8809862137
        0.0135362148,       -0.0227926970,-0.0202891678,-0.0521522164,3.1546392441,4.6305885315,15.8809862137
        0.0162281990,       -0.0227926970,-0.0202891678,-0.0521522164,3.8260259628,5.0120582581,17.1474666595
        0.0190181732,       -0.0227926970,-0.0202891678,-0.0521522164,3.8260259628,5.0120582581,17.1474666595
        0.0215849876,       -0.0227926970,-0.0202891678,-0.0501990914,4.7568120956,4.9662818909,18.3376522064
        0.0241479874,       -0.0276755095,-0.0237071365,-0.0501990914,4.7568120956,4.9662818909,18.3376522064
        0.0267181396,       -0.0276755095,-0.0237071365,-0.0501990914,6.0843267441,4.8594703674,20.0771541595
        0.0293991566,       -0.0276755095,-0.0237071365,-0.0501990914,6.0843267441,4.8594703674,20.0771541595
        0.0319650173,       -0.0276755095,-0.0237071365,-0.0575233102,6.7404546738,5.6834449768,21.6182918549
        0.0354051590,       -0.0335348845,-0.0427501053,-0.0575233102,6.7404546738,5.6834449768,21.6182918549
        0.0380821228,       -0.0335348845,-0.0427501053,-0.0575233102,7.0151128769,6.6142311096,23.4340877533
        0.0407559872,       -0.0335348845,-0.0427501053,-0.0575233102,7.0151128769,6.6142311096,23.4340877533
        0.0434191227,       -0.0481833220,-0.0564219803,-0.0497108102,7.3202886581,7.1940650940,25.5245418549
        0.0460910797,       -0.0481833220,-0.0564219803,-0.0497108102,7.3202886581,7.1940650940,25.5245418549
        0.0487940311,       -0.0481833220,-0.0564219803,-0.0497108102,7.1677007675,7.0872535706,27.7370662689
        0.0514872074,       -0.0481833220,-0.0564219803,-0.0497108102,7.1677007675,7.0872535706,27.7370662689
        0.0543401241,       -0.0594137907,-0.0549571365,-0.0492225289,6.6183843613,7.1788063049,29.5833797455
        0.0570321083,       -0.0594137907,-0.0549571365,-0.0492225289,6.6183843613,7.1788063049,29.5833797455
        0.0597209930,       -0.0594137907,-0.0549571365,-0.0492225289,6.0232915878,7.2245826721,32.1468544006
        0.0624501705,       -0.0594137907,-0.0510508865,-0.0443397164,6.0232915878,7.2245826721,32.1468544006
        0.0651562214,       -0.0716208220,-0.0510508865,-0.0443397164,6.3589849472,6.9957008362,34.2678260803
        0.0678491592,       -0.0716208220,-0.0510508865,-0.0443397164,6.3589849472,6.9957008362,34.2678260803
        0.0704281330,       -0.0716208220,-0.0510508865,-0.0443397164,6.7862310410,7.0719947815,36.5719032288
        0.0730001926,       -0.0706442595,-0.0505626053,-0.0409217477,6.7862310410,7.0719947815,36.5719032288
        0.0755770206,       -0.0706442595,-0.0505626053,-0.0409217477,6.8625249863,7.1482887268,38.7233924866
        0.0782611370,       -0.0706442595,-0.0505626053,-0.0409217477,6.8625249863,7.1482887268,38.7233924866
        0.0808341503,       -0.0706442595,-0.0505626053,-0.0409217477,6.9235601425,6.2480201721,41.1495399475
        0.0834181309,       -0.0774801970,-0.0515391678,-0.0467811227,6.9235601425,6.2480201721,41.1495399475
        0.0859971046,       -0.0774801970,-0.0515391678,-0.0467811227,6.9235601425,6.1869850159,43.1179237366
        0.0887160301,       -0.0774801970,-0.0515391678,-0.0467811227,7.0456304550,6.1869850159,43.1179237366
        0.0914130211,       -0.0774801970,-0.0515391678,-0.0467811227,7.0456304550,5.5613746643,44.8116493225
        0.0941011906,       -0.0965231657,-0.0583751053,-0.0292029977,7.3813238144,5.5613746643,44.8116493225
        0.0967922211,       -0.0965231657,-0.0583751053,-0.0292029977,7.3813238144,4.7068824768,47.7718544006
        0.0995311737,       -0.0965231657,-0.0583751053,-0.0292029977,7.2592535019,4.7068824768,47.7718544006
        0.1022191048,       -0.0965231657,-0.0583751053,-0.0292029977,7.2592535019,2.6316871643,50.3353309631
        0.1049101353,       -0.1228903532,-0.0993907303,-0.0321326852,6.0080327988,2.6316871643,50.3353309631
        0.1076450348,       -0.1228903532,-0.0993907303,-0.0321326852,6.0080327988,0.9532202482,52.6088905334
        0.1103351116,       -0.1228903532,-0.0993907303,-0.0321326852,5.0925054550,0.9532202482,52.6088905334
        0.1130211353,       -0.1228903532,-0.0652110428,-0.0194373727,5.0925054550,-0.0080834627,54.0889930725
        0.1157040596,       -0.1360739470,-0.0652110428,-0.0194373727,5.9927740097,-0.0080834627,54.0889930725
        0.1185150146,       -0.1360739470,-0.0652110428,-0.0194373727,5.9927740097,-0.9388695955,55.6606483459
        0.1212060452,       -0.1360739470,-0.0652110428,-0.0194373727,6.4047613144,-0.9388695955,55.6606483459
        0.1238930225,       -0.1556051970,-0.0027110428,-0.0331092477,6.4047613144,-1.9459496737,56.9118690491
        0.1265881062,       -0.1556051970,-0.0027110428,-0.0331092477,7.1829595566,-1.9459496737,56.9118690491
        0.1293201447,       -0.1556051970,-0.0027110428,-0.0331092477,7.1829595566,-1.9459496737,57.8121376038
        0.1320021152,       -0.1556051970,-0.0027110428,-0.0331092477,8.6630620956,-2.9072532654,57.8121376038
        0.1346950531,       -0.1702536345,-0.0080821365,-0.0560584664,8.6630620956,-2.9072532654,58.7429237366
        0.1373801231,       -0.1702536345,-0.0080821365,-0.0560584664,10.7687749863,-3.4718284607,58.7429237366
        0.1400971413,       -0.1702536345,-0.0080821365,-0.0560584664,10.7687749863,-3.4718284607,59.6584510803
        0.1427621841,       -0.1702536345,-0.0080821365,-0.0775428414,12.7218999863,-4.5399436951,59.6584510803
        0.1457121372,       -0.1790426970,0.0036366135,-0.0775428414,12.7218999863,-5.3028831482,60.4366493225
        0.1486279964,       -0.1790426970,0.0036366135,-0.0775428414,15.4837408066,-5.3028831482,60.4366493225
        0.1513290405,       -0.1790426970,0.0036366135,-0.0775428414,15.4837408066,-6.1726341248,61.3064002991
        0.1540470123,       -0.1961325407,0.0080311447,-0.0794959664,17.9861831665,-6.1726341248,61.3064002991
        0.1567540169,       -0.1961325407,0.0080311447,-0.0794959664,21.8924331665,-6.2336692810,62.2066688538
        0.1594660282,       -0.1961325407,0.0080311447,-0.0794959664,20.3512954712,-6.2336692810,62.2066688538
        0.1621770859,       -0.1961325407,0.0080311447,-0.0794959664,20.3512954712,-5.8064231873,63.4578895569
        0.1648821831,       -0.2249411345,-0.0031993240,-0.0785194039,22.2433853149,-5.8064231873,63.4578895569
        0.1675879955,       -0.2249411345,-0.0031993240,-0.0785194039,22.2433853149,-5.6385765076,64.1750564575
        0.1703040600,       -0.2249411345,-0.0031993240,-0.0785194039,22.9605484009,-5.6385765076,64.1750564575
        0.1730101109,       -0.2249411345,-0.0031993240,-0.0545936227,22.9605484009,-4.8756370544,64.8006668091
        0.1757261753,       -0.2845114470,-0.0237071365,-0.0545936227,22.3959732056,-4.8756370544,64.8006668091
        0.1784050465,       -0.2845114470,-0.0237071365,-0.0545936227,22.3959732056,-4.6620140076,66.5859451294
        0.1809811592,       -0.2845114470,-0.0237071365,-0.0545936227,22.4570083618,-4.6620140076,66.5859451294
        0.1836810112,       -0.2845114470,-0.0315196365,-0.0272498727,22.4570083618,-4.6620140076,67.8219070435
        0.1862571239,       -0.3216208220,-0.0315196365,-0.0272498727,22.3044204712,-4.1432151794,67.8219070435
        0.1888811588,       -0.3216208220,-0.0315196365,-0.0272498727,22.3044204712,-4.1432151794,68.7679519653
        0.1914629936,       -0.3216208220,-0.0315196365,-0.0272498727,17.4216079712,-3.6549339294,68.7679519653
        0.1940381527,       -0.3216208220,-0.0857188553,0.0064415336,17.4216079712,-3.6549339294,68.7679519653
        0.1966180801,       -0.3553122282,-0.0857188553,0.0064415336,7.3355474472,-2.6020774841,69.1341629028
        0.1993880272,       -0.3553122282,-0.0857188553,0.0064415336,7.3355474472,-2.6020774841,69.1341629028
        0.2019581795,       -0.3553122282,-0.0857188553,0.0064415336,0.9726324081,-2.2816429138,68.9815750122
        0.2045340538,       -0.3670309782,-0.1052501053,0.0215782523,0.9726324081,-2.2816429138,68.9815750122
        0.2071001530,       -0.3670309782,-0.1052501053,0.0215782523,-3.0251703262,-1.8086205721,69.6682205200
        0.2098920345,       -0.3670309782,-0.1052501053,0.0215782523,-3.0251703262,-1.8086205721,69.6682205200
        0.2125971317,       -0.3670309782,-0.1052501053,0.0215782523,-3.7270746231,-1.6712914705,71.6060867310
        0.2152991295,       -0.2962301970,-0.0407969803,0.0498985648,-3.7270746231,-1.6712914705,71.6060867310
        0.2180011272,       -0.2962301970,-0.0407969803,0.0498985648,-0.6447992325,-1.8238793612,73.4066238403
        0.2205741405,       -0.2962301970,-0.0407969803,0.0498985648,-0.6447992325,-1.8238793612,73.4066238403
        0.2231431007,       -0.2962301970,-0.0407969803,0.0498985648,3.8870611191,-1.5034447908,75.1766433716
        0.2258150578,       -0.2366598845,0.0217030197,0.0943321586,3.8870611191,-1.5034447908,75.1766433716
        0.2286159992,       -0.2366598845,0.0217030197,0.0943321586,6.9845952988,-1.7170678377,76.9466629028
        0.2312819958,       -0.2366598845,0.0217030197,0.0943321586,6.9845952988,-1.7170678377,76.9466629028
        0.2346010208,       -0.1629294157,-0.0027110428,0.0972618461,9.2886724472,-3.4565696716,76.0158767700
        0.2371671200,       -0.1629294157,-0.0027110428,0.0972618461,9.2886724472,-3.4565696716,76.0158767700
        0.2397379875,       -0.1629294157,-0.0027110428,0.0972618461,9.9142827988,-5.3028831482,74.4442214966
        0.2423031330,       -0.1629294157,-0.0027110428,0.0972618461,9.9142827988,-5.3028831482,74.4442214966
        0.2448680401,       -0.1097067595,-0.0954844803,0.1412071586,8.8766851425,-7.9884300232,71.1940994263
        0.2475612164,       -0.1097067595,-0.0954844803,0.1412071586,8.8766851425,-7.9884300232,71.1940994263
        0.2501320839,       -0.1097067595,-0.0954844803,0.1412071586,13.3932867050,-10.4908714294,64.4802322388
        0.2527041435,       -0.1097067595,-0.0954844803,0.1412071586,13.3932867050,-10.4908714294,64.4802322388
        0.2552661896,       -0.0589255095,-0.1018321365,0.0748009086,21.3278579712,-11.7420921326,59.2006874084
        0.2578420639,       -0.0589255095,-0.1018321365,0.0748009086,21.3278579712,-11.7420921326,59.2006874084
        0.2604191303,       -0.0589255095,-0.1018321365,0.0748009086,31.8716812134,-12.7186546326,58.7124061584
        0.2629899979,       -0.0589255095,-0.1018321365,0.0748009086,31.8716812134,-12.7186546326,58.7124061584
        0.2655601501,       -0.0496481657,0.1589100510,-0.0003944039,31.8716812134,-14.5344505310,54.5925331116
        0.2681682110,       -0.0496481657,0.1589100510,-0.0003944039,45.9402847290,-14.5344505310,54.5925331116
        0.2707390785,       -0.0496481657,0.1589100510,-0.0003944039,45.9402847290,-14.5344505310,44.5980262756
        0.2733120918,       -0.0496481657,0.1589100510,-0.0003944039,58.7576675415,-15.0685081482,44.5980262756
        0.2758810520,       -0.0794333220,-0.1155040115,0.0088829398,58.7576675415,-15.0685081482,35.5190467834
        0.2786271572,       -0.0794333220,-0.1155040115,0.0088829398,65.6241226196,-15.9840354919,35.5190467834
        0.2812001705,       -0.0794333220,-0.1155040115,0.0088829398,65.6241226196,-15.9840354919,31.6127986908
        0.2837760448,       -0.0794333220,-0.1155040115,0.0088829398,64.8764419556,-17.6014671326,28.9425106049
        0.2863450050,       -0.0901755095,-0.2986094952,-0.0272498727,64.8764419556,-17.6014671326,28.9425106049
        0.2890450954,       -0.0901755095,-0.2986094952,-0.0272498727,58.6966323853,-19.3714866638,24.1054744720
        0.2916131020,       -0.0901755095,-0.2986094952,-0.0272498727,58.6966323853,-19.3714866638,24.1054744720
        0.2941861153,       -0.0901755095,-0.2986094952,-0.0272498727,49.8923110962,-20.7752952576,20.3365535736
        0.2967591286,       -0.1126364470,-0.2527110577,-0.0360389352,49.8923110962,-20.7752952576,20.3365535736
        0.2993421555,       -0.1126364470,-0.2527110577,-0.0360389352,42.8580093384,-21.3703880310,16.6897029877
        0.3019161224,       -0.1126364470,-0.2527110577,-0.0360389352,42.8580093384,-21.3703880310,16.6897029877
        0.3044860363,       -0.1126364470,-0.2527110577,-0.0545936227,38.6923599243,-21.5687522888,12.9512987137
        0.3070600033,       -0.1189841032,-0.1682383865,-0.0545936227,38.6923599243,-21.5687522888,12.9512987137
        0.3099050522,       -0.1189841032,-0.1682383865,-0.0545936227,33.9926528931,-22.1791038513,8.8009080887
        0.3126120567,       -0.1189841032,-0.1682383865,-0.0545936227,33.9926528931,-22.1791038513,8.8009080887
        0.3153131008,       -0.1189841032,-0.1604258865,-0.0775428414,29.5676040649,-23.6897239685,5.1540579796
        0.3180100918,       -0.0852926970,-0.1604258865,-0.0775428414,29.5676040649,-23.6897239685,5.1540579796
        0.3205850124,       -0.0852926970,-0.1604258865,-0.0775428414,23.5708999634,-24.2390403748,1.6140187979
        0.3231611252,       -0.0852926970,-0.1604258865,-0.0775428414,23.5708999634,-24.2390403748,1.6140187979
        0.3257360458,       -0.0437887907,-0.2038829178,-0.0877967477,18.7491226196,-25.4597434998,-2.1701607704
        0.3286521435,       -0.0437887907,-0.2038829178,-0.0877967477,18.7491226196,-25.4597434998,-2.1701607704
        0.3313271999,       -0.0437887907,-0.2038829178,-0.0877967477,13.1949224472,-25.6733665466,-7.1903023720
        0.3345270157,       -0.0437887907,-0.2038829178,-0.0877967477,13.1949224472,-25.6733665466,-7.1903023720
        0.3371031284,       -0.0208395720,-0.2195079178,-0.1063514352,7.4576177597,-25.3071556091,-11.7831983566
        0.3398170471,       -0.0208395720,-0.2195079178,-0.1063514352,7.4576177597,-25.3071556091,-11.7831983566
        0.3423891068,       -0.0208395720,-0.2195079178,-0.1063514352,1.5066900253,-26.2226829529,-15.6741895676
        0.3449602127,       -0.0208395720,-0.2195079178,-0.1004920602,1.5066900253,-26.2226829529,-15.6741895676
        0.3475210667,        0.0250588655,-0.2043711990,-0.1004920602,-3.4371576309,-26.1921653748,-19.8245792389
        0.3500890732,        0.0250588655,-0.2043711990,-0.1004920602,-3.4371576309,-26.1921653748,-19.8245792389
        0.3526551723,        0.0250588655,-0.2043711990,-0.1004920602,-3.4371576309,-25.7801780701,-24.5700626373
        0.3552210331,        0.0250588655,-0.2043711990,-0.1166053414,-6.7330560684,-25.7801780701,-24.5700626373
        0.3578071594,        0.0416604280,-0.1609141678,-0.1166053414,-6.7330560684,-25.7801780701,-29.8496036530
        0.3603851795,        0.0416604280,-0.1609141678,-0.1166053414,-8.7777338028,-26.5125999451,-29.8496036530
        0.3629591465,        0.0416604280,-0.1609141678,-0.1166053414,-8.7777338028,-26.5125999451,-37.6621055603
        0.3655340672,        0.0416604280,-0.0915782303,-0.1000037789,-10.3951654434,-26.6499290466,-34.6103477478
        0.3681662083,        0.0401955843,-0.0915782303,-0.1000037789,-10.3951654434,-26.6499290466,-34.6103477478
        0.3707392216,        0.0401955843,-0.0915782303,-0.1000037789,-9.2202386856,-26.8788108826,-39.5084190369
        0.3734052181,        0.0401955843,-0.0915782303,-0.1000037789,-9.2202386856,-26.8788108826,-39.5084190369
        0.3759801388,        0.0050393343,-0.0495860428,-0.0980506539,-8.2284173965,-26.4363059998,-43.9029502869
        0.3786411285,        0.0050393343,-0.0495860428,-0.0980506539,-8.2284173965,-26.4363059998,-43.9029502869
        0.3812141418,        0.0050393343,-0.0495860428,-0.0980506539,-6.5499505997,-26.2074241638,-48.4042930603
        0.3837840557,        0.0050393343,-0.0495860428,-0.0980506539,-6.5499505997,-26.2074241638,-48.4042930603
        0.3863580227,       -0.0091208220,-0.0378672928,-0.0917029977,-4.1543207169,-26.3142356873,-52.7377891541
        0.3891000748,       -0.0091208220,-0.0378672928,-0.0917029977,-4.1543207169,-26.3142356873,-52.7377891541
        0.3916800022,       -0.0091208220,-0.0378672928,-0.0917029977,-1.6213617325,-26.6194114685,-57.1018028259
        0.3942501545,       -0.0091208220,-0.0378672928,-0.0917029977,-1.6213617325,-26.6194114685,-57.1018028259
        0.3968172073,       -0.0306051970,-0.0476329178,-0.0960975289,1.0184087753,-25.8412132263,-61.1911582947
        0.3994531631,       -0.0306051970,-0.0476329178,-0.0960975289,1.0184087753,-25.8412132263,-61.1911582947
        0.4020211697,       -0.0306051970,-0.0476329178,-0.0960975289,3.3224859238,-25.2766380310,-64.4412765503
        0.4045832157,       -0.0306051970,-0.0476329178,-0.0960975289,3.3224859238,-25.2766380310,-64.4412765503
        0.4071581364,       -0.0262106657,-0.0539805740,-0.1043983102,3.3224859238,-25.0019798279,-67.6608810425
        0.4097321033,       -0.0262106657,-0.0539805740,-0.1043983102,4.6194829941,-25.0019798279,-67.6608810425
        0.4123101234,       -0.0262106657,-0.0539805740,-0.1043983102,4.6194829941,-21.0957298279,-70.8347091675
        0.4148821831,       -0.0262106657,-0.0539805740,-0.1043983102,5.2908697128,-24.2542991638,-70.8347091675
        0.4174761772,       -0.0179098845,-0.0510508865,-0.1131873727,5.2908697128,-24.2542991638,-73.7949142456
        0.4200561047,       -0.0179098845,-0.0510508865,-0.1131873727,5.7944097519,-24.0559349060,-73.7949142456
        0.4226231575,       -0.0179098845,-0.0510508865,-0.1131873727,5.7944097519,-24.0559349060,-73.7949142456
        0.4251971245,       -0.0179098845,-0.0510508865,-0.1131873727,7.2745122910,-24.2695579529,-76.8771896362
        0.4277791977,        0.0104104280,-0.0134532303,-0.1229529977,7.2745122910,-24.2695579529,-76.8771896362
        0.4303550720,        0.0104104280,-0.0134532303,-0.1229529977,8.9072027206,-23.9491233826,-79.8221359253
        0.4329371452,        0.0104104280,-0.0134532303,-0.1229529977,8.9072027206,-23.9491233826,-79.8221359253
        0.4355111122,        0.0104104280,-0.0134532303,-0.1229529977,9.5938482285,-23.4913597107,-82.7518234253
        0.4382932186,        0.0284768343,-0.0066172928,-0.1126990914,9.5938482285,-23.4913597107,-82.7518234253
        0.4408721924,        0.0284768343,-0.0066172928,-0.1126990914,10.0668706894,-23.3540306091,-85.2390060425
        0.4435491562,        0.0284768343,-0.0066172928,-0.1126990914,10.0668706894,-23.3540306091,-85.2390060425
        0.4461541176,        0.0284768343,-0.0066172928,-0.1185584664,10.3567876816,-24.2085227966,-87.7567062378
        0.4489591122,        0.0362893343,-0.0017344803,-0.1185584664,10.3567876816,-24.2085227966,-87.7567062378
        0.4515371323,        0.0362893343,-0.0017344803,-0.1185584664,9.7616949081,-24.3916282654,-90.0913009644
        0.4541192055,        0.0362893343,-0.0017344803,-0.1185584664,9.7616949081,-24.3916282654,-90.0913009644
        0.4566950798,        0.0362893343,0.0187733322,-0.1170936227,8.8003911972,-24.5899925232,-92.5784835815
        0.4593009949,        0.0304299593,0.0187733322,-0.1170936227,8.8003911972,-24.5899925232,-92.5784835815
        0.4618721008,        0.0304299593,0.0187733322,-0.1170936227,8.0832281113,-24.8493919373,-94.5468673706
        0.4644451141,        0.0304299593,0.0187733322,-0.1170936227,8.0832281113,-24.8493919373,-94.5468673706
        0.4670221806,        0.0343362093,0.0246327072,-0.1122108102,4.1769781113,-25.6733665466,-95.9964523315
        0.4696362019,        0.0343362093,0.0246327072,-0.1122108102,6.3895025253,-25.6733665466,-95.9964523315
        0.4722070694,        0.0343362093,0.0246327072,-0.1122108102,6.3895025253,-25.6733665466,-97.3087081909
        0.4747860432,        0.0343362093,0.0246327072,-0.1122108102,4.1006841660,-26.1311302185,-97.3087081909
        0.4773590565,        0.0367776155,0.0124256760,-0.1161170602,4.1006841660,-26.1311302185,-98.9413986206
        0.4799401760,        0.0367776155,0.0124256760,-0.1161170602,2.0865240097,-26.1311302185,-98.9413986206
        0.4825181961,        0.0367776155,0.0124256760,-0.1161170602,2.0865240097,-26.1311302185,-98.9413986206
        0.4850912094,        0.0367776155,0.0124256760,-0.1161170602,-0.0497064590,-26.2532005310,-100.1621017456
        0.4877262115,        0.0362893343,0.0055897385,-0.1156287789,-0.0497064590,-26.2532005310,-100.1621017456
        0.4903061390,        0.0362893343,0.0055897385,-0.1156287789,-3.2235345840,-26.3142356873,-100.3757247925
        0.4928820133,        0.0362893343,0.0055897385,-0.1156287789,-3.2235345840,-26.3142356873,-100.3757247925
        0.4954600334,        0.0362893343,0.0055897385,-0.1156287789,-5.8938226700,-25.9938011169,-101.0318527222
        0.4980931282,        0.0382424593,0.0309803635,-0.1209998727,-5.8938226700,-25.9938011169,-101.0318527222
        0.5007781982,        0.0382424593,0.0309803635,-0.1209998727,-8.9608392715,-26.0243186951,-101.9016036987
        0.5033590794,        0.0382424593,0.0309803635,-0.1209998727,-8.9608392715,-26.0243186951,-101.9016036987
        0.5059330463,        0.0382424593,0.0309803635,-0.1209998727,-11.2191400528,-25.9022483826,-102.2067794800
        0.5086381435,        0.0401955843,0.0612538010,-0.1253944039,-11.2191400528,-25.9022483826,-102.2067794800
        0.5112130642,        0.0401955843,0.0612538010,-0.1253944039,-12.4093255997,-25.3987083435,-103.1223068237
        0.5137910843,        0.0401955843,0.0612538010,-0.1253944039,-12.4093255997,-25.3987083435,-103.1223068237
        0.5163681507,        0.0401955843,0.0612538010,-0.1253944039,-13.0959711075,-24.8493919373,-103.6716232300
        0.5189499855,        0.0460549593,0.0666248947,-0.1136756539,-13.0959711075,-24.8493919373,-103.6716232300
        0.5215201378,        0.0460549593,0.0666248947,-0.1136756539,-13.0959711075,-24.4831809998,-104.0073165894
        0.5240960121,        0.0460549593,0.0666248947,-0.1136756539,-13.3553705215,-24.4831809998,-104.0073165894
        0.5266580582,        0.0460549593,0.0666248947,-0.1190467477,-13.3553705215,-24.4831809998,-104.7702560425
        0.5293061733,        0.0504494905,0.0573475510,-0.1190467477,-14.3166742325,-23.5981712341,-104.7702560425
        0.5319750309,        0.0504494905,0.0573475510,-0.1190467477,-14.3166742325,-23.5981712341,-104.9838790894
        0.5345520973,        0.0504494905,0.0573475510,-0.1190467477,-14.9422845840,-22.4842796326,-104.9838790894
        0.5371232033,        0.0504494905,0.0710194260,-0.1102576852,-14.9422845840,-22.4842796326,-104.7855148315
        0.5397841930,        0.0382424593,0.0710194260,-0.1102576852,-15.4763422012,-21.5229759216,-104.7855148315
        0.5423541069,        0.0382424593,0.0710194260,-0.1102576852,-15.4763422012,-20.6227073669,-104.2514572144
        0.5457980633,        0.0382424593,0.0710194260,-0.1102576852,-16.3003158569,-20.6227073669,-104.2514572144
        0.5483801365,        0.0524026155,0.0778553635,-0.1053748727,-16.3003158569,-20.6227073669,-103.5190353394
        0.5509622097,        0.0524026155,0.0778553635,-0.1053748727,-16.8954086304,-19.6614036560,-103.5190353394
        0.5535302162,        0.0524026155,0.0778553635,-0.1053748727,-16.8954086304,-19.6614036560,-103.5190353394
        0.5560970306,        0.0524026155,0.0778553635,-0.1053748727,-17.4142074585,-18.4407005310,-103.3054122925
        0.5587241650,        0.0431252718,0.0793202072,-0.0951209664,-17.4142074585,-18.4407005310,-103.3054122925
        0.5612950325,        0.0431252718,0.0793202072,-0.0951209664,-18.0855941772,-16.9148216248,-102.7255783081
        0.5639832020,        0.0431252718,0.0793202072,-0.0951209664,-18.0855941772,-16.9148216248,-102.7255783081
        0.5665571690,        0.0431252718,0.0793202072,-0.0951209664,-19.3978500366,-15.5415306091,-101.6879806519
        0.5692172050,        0.0382424593,0.0724842697,-0.1029334664,-19.3978500366,-15.5415306091,-101.6879806519
        0.5718021393,        0.0382424593,0.0724842697,-0.1029334664,-21.4577865601,-13.9851341248,-100.5435714722
        0.5743761063,        0.0382424593,0.0724842697,-0.1029334664,-21.4577865601,-13.9851341248,-100.5435714722
        0.5769522190,        0.0382424593,0.0724842697,-0.1029334664,-23.4872055054,-12.9170188904,-99.1397628784
        0.5795340538,        0.0460549593,0.0744373947,-0.1029334664,-23.4872055054,-12.9170188904,-99.1397628784
        0.5821051598,        0.0460549593,0.0744373947,-0.1029334664,-25.4708480835,-12.2761497498,-97.6444015503
        0.5846831799,        0.0460549593,0.0744373947,-0.1029334664,-25.4708480835,-12.2761497498,-97.6444015503
        0.5872571468,        0.0460549593,0.0744373947,-0.1014686227,-28.7057113647,-10.8723411560,-96.2253341675
        0.5899701118,        0.0533791780,0.0339100510,-0.1014686227,-28.7057113647,-10.8723411560,-96.2253341675
        0.5925440788,        0.0533791780,0.0339100510,-0.1014686227,-31.4522933960,-9.8957786560,-94.2569503784
        0.5951151848,        0.0533791780,0.0339100510,-0.1014686227,-31.4522933960,-9.8957786560,-94.2569503784
        0.5978641510,        0.0533791780,0.0231678635,-0.1078162789,-31.4522933960,-9.2701683044,-92.0902023315
        0.6004440784,        0.0714455843,0.0231678635,-0.1078162789,-34.7939682007,-9.2701683044,-92.0902023315
        0.6030151844,        0.0714455843,0.0231678635,-0.1078162789,-34.7939682007,-7.5917015076,-90.6863937378
        0.6055941582,        0.0714455843,0.0231678635,-0.1078162789,-37.3116683960,-7.5917015076,-90.6863937378
        0.6081731319,        0.1964455843,0.0260975510,-0.0946326852,-37.3116683960,-7.5917015076,-89.2062911987
        0.6107401848,        0.0807229280,0.0260975510,-0.0946326852,-38.8680648804,-6.2184104919,-89.2062911987
        0.6133120060,        0.0807229280,0.0260975510,-0.0946326852,-38.8680648804,-6.2184104919,-85.3000411987
        0.6158812046,        0.0807229280,0.0260975510,-0.0946326852,-40.0429916382,-5.6080589294,-87.5736007690
        0.6184990406,        0.0792580843,0.0617420822,-0.0902381539,-40.0429916382,-5.6080589294,-87.5736007690
        0.6210741997,        0.0792580843,0.0617420822,-0.0902381539,-41.7367172241,-4.6467552185,-85.7425460815
        0.6236410141,        0.0792580843,0.0617420822,-0.0902381539,-41.7367172241,-4.6467552185,-85.7425460815
        0.6263251305,        0.0792580843,0.0617420822,-0.0902381539,-42.8963851929,-2.9835472107,-84.0183029175
        0.6289072037,        0.0812112093,0.0871327072,-0.0653358102,-42.8963851929,-2.9835472107,-84.0183029175
        0.6314790249,        0.0812112093,0.0871327072,-0.0653358102,-43.5830307007,-1.6865502596,-82.2482833862
        0.6342160702,        0.0812112093,0.0871327072,-0.0653358102,-43.5830307007,-1.6865502596,-82.2482833862
        0.6367850304,        0.0812112093,0.0871327072,-0.0653358102,-43.8271713257,-0.9388695955,-80.0510177612
        0.6394901276,        0.0826760530,0.0846913010,-0.0580115914,-43.8271713257,-0.9388695955,-80.0510177612
        0.6421620846,        0.0826760530,0.0846913010,-0.0580115914,-45.3988265991,0.4649389982,-78.2047042847
        0.6453480721,        0.0826760530,0.0846913010,-0.0580115914,-45.3988265991,0.4649389982,-78.2047042847
        0.6479890347,        0.0826760530,0.0846913010,-0.0506873727,-48.4811019897,1.3804663420,-76.6788253784
        0.6505610943,        0.0773049593,0.0500233322,-0.0506873727,-48.4811019897,1.3804663420,-76.6788253784
        0.6531291008,        0.0773049593,0.0500233322,-0.0506873727,-51.3955307007,2.2807350159,-74.8630294800
        0.6557002068,        0.0773049593,0.0500233322,-0.0506873727,-51.3955307007,2.2807350159,-74.8630294800
        0.6583211422,        0.0773049593,0.0597889572,-0.0404334664,-53.6385726929,3.3183326721,-72.8641281128
        0.6608932018,        0.0968362093,0.0597889572,-0.0404334664,-53.6385726929,3.3183326721,-72.8641281128
        0.6634600163,        0.0968362093,0.0597889572,-0.0404334664,-56.1867904663,3.4251441956,-71.3687667847
        0.6660311222,        0.0968362093,0.0597889572,-0.0404334664,-56.1867904663,3.4251441956,-71.3687667847
        0.6686069965,        0.0968362093,0.0754139572,-0.0248084664,-56.1867904663,3.8523902893,-69.3393478394
        0.6711790562,        0.0870705843,0.0754139572,-0.0248084664,-58.6129379272,3.8523902893,-69.3393478394
        0.6737511158,        0.0870705843,0.0754139572,-0.0248084664,-58.6129379272,3.8523902893,-67.2336349487
        0.6763241291,        0.0870705843,0.0754139572,-0.0248084664,-60.2456283569,3.7150611877,-67.2336349487
        0.6789121628,        0.0870705843,0.1105702072,-0.0052772164,-60.2456283569,3.7150611877,-65.0516281128
        0.6814801693,        0.0895119905,0.1105702072,-0.0052772164,-60.7491683960,3.7455787659,-65.0516281128
        0.6840519905,        0.0895119905,0.1105702072,-0.0052772164,-60.7491683960,3.7455787659,-61.1453819275
        0.6866211891,        0.0895119905,0.1105702072,-0.0052772164,-59.6657943726,4.0507545471,-62.9459190369
        0.6894960403,        0.1002541780,0.1218006760,0.0025352836,-59.6657943726,4.0507545471,-59.0396690369
        0.6920821667,        0.1002541780,0.1218006760,0.0025352836,-57.2396469116,4.3406715393,-59.9246788025
        0.6946570873,        0.1002541780,0.1218006760,0.0025352836,-57.2396469116,4.3406715393,-59.9246788025
        0.6972332001,        0.1002541780,0.1218006760,0.0025352836,-54.1421127319,4.0049781799,-56.7355918884
        0.6999511719,        0.1109963655,0.1042225510,0.0132774711,-54.1421127319,4.0049781799,-56.7355918884
        0.7025220394,        0.1109963655,0.1042225510,0.0132774711,-50.8156967163,3.6845436096,-53.5617637634
        0.7051041126,        0.1109963655,0.1042225510,0.0132774711,-50.8156967163,3.6845436096,-53.5617637634
        0.7077331543,        0.1109963655,0.1042225510,0.0132774711,-47.3824691772,3.5929908752,-50.0369834900
        0.7104361057,        0.1051369905,0.0885975510,0.0127891898,-47.3824691772,3.5929908752,-50.0369834900
        0.7131361961,        0.1051369905,0.0885975510,0.0127891898,-44.9868392944,3.1199684143,-46.5274620056
        0.7158420086,        0.1051369905,0.0885975510,0.0127891898,-44.9868392944,3.1199684143,-46.5274620056
        0.7185621262,        0.1051369905,0.0885975510,-0.0023475289,-42.1487045288,2.6469459534,-42.9111289978
        0.7212672234,        0.1066018343,0.0715077072,-0.0023475289,-42.1487045288,2.6469459534,-42.9111289978
        0.7239720821,        0.1066018343,0.0715077072,-0.0023475289,-39.6004867554,2.9826393127,-39.6457481384
        0.7266800404,        0.1066018343,0.0715077072,-0.0023475289,-39.6004867554,2.9826393127,-39.6457481384
        0.7293970585,        0.1066018343,0.0705311447,-0.0047889352,-36.7928695679,2.7995338440,-36.5176963806
        0.7321040630,        0.0968362093,0.0705311447,-0.0047889352,-36.7928695679,2.7995338440,-36.5176963806
        0.7348151207,        0.0968362093,0.0705311447,-0.0047889352,-33.9852523804,2.4790992737,-33.1455039978
        0.7378630638,        0.0968362093,0.0705311447,-0.0047889352,-33.9852523804,2.4790992737,-33.1455039978
        0.7404441833,        0.0787698030,0.0705311447,0.0113243461,-31.5591049194,1.7314184904,-30.1547794342
        0.7438111305,        0.0787698030,0.0705311447,0.0113243461,-31.5591049194,1.7314184904,-30.1547794342
        0.7463951111,        0.0787698030,0.0705311447,0.0113243461,-29.5602035522,1.6246069670,-26.7062931061
        0.7490580082,        0.0787698030,0.0705311447,0.0220665336,-29.5602035522,1.6246069670,-26.7062931061
        0.7517671585,        0.0538674593,0.0436756760,0.0220665336,-29.7280502319,1.6703833342,-23.2730655670
        0.7545771599,        0.0538674593,0.0436756760,0.0220665336,-29.7280502319,1.6703833342,-23.2730655670
        0.7572841644,        0.0538674593,0.0436756760,0.0220665336,-30.9792709351,1.3957251310,-19.9313907623
        0.7600021362,        0.0690041780,0.0954334885,0.0093712211,-30.9792709351,1.3957251310,-19.9313907623
        0.7627069950,        0.0690041780,0.0954334885,0.0093712211,-31.1013412476,1.2126196623,-15.6589307785
        0.7654161453,        0.0690041780,0.0954334885,0.0093712211,-31.1013412476,1.2126196623,-15.6589307785
        0.7681300640,        0.0690041780,0.0954334885,0.0093712211,-30.7656478882,-0.7252465487,-11.0965528488
        0.7708420753,       -0.1961325407,0.4318592548,0.2149376273,-30.7656478882,-0.7252465487,-11.0965528488
        0.7735462189,       -0.1961325407,0.4318592548,0.2149376273,-36.0146713257,-8.6903343201,-3.9249215126
        0.7762460709,       -0.1961325407,0.4318592548,0.2149376273,-36.0146713257,-8.6903343201,-3.9249215126
        0.7788929939,       -0.1961325407,0.4318592548,0.0899376273,-40.2566146851,-10.6739768982,8.2058153152
        0.7814671993,       -0.4134176970,1.0856678486,0.1739220023,-40.2566146851,-10.6739768982,8.2058153152
        0.7840361595,       -0.4134176970,1.0856678486,0.1739220023,-25.7149887085,-5.0587425232,36.0378456116
        0.7866082191,       -0.4134176970,1.0856678486,0.1739220023,-25.7149887085,-5.0587425232,36.0378456116
        0.7892231941,       -0.4134176970,1.0856678486,0.1524376273,-8.4725580215,-4.2195091248,57.3391151428
        0.7917881012,       -0.3421286345,1.3840076923,0.1524376273,-8.4725580215,-4.2195091248,57.3391151428
        0.7943592072,       -0.3421286345,1.3840076923,0.1524376273,2.9104986191,-5.5317649841,59.1396522522
        0.7969291210,       -0.3421286345,1.3840076923,0.1524376273,2.9104986191,-5.5317649841,59.1396522522
        0.7996830940,       -0.3421286345,0.4069569111,-0.1024451852,21.0074234009,-0.1606713533,57.3238563538
        0.8023700714,       -0.3885153532,0.4069569111,-0.1024451852,21.0074234009,-0.1606713533,57.3238563538
        0.8050601482,       -0.3885153532,0.4069569111,-0.1024451852,27.9196548462,0.8464087248,60.1772499084
        0.8077580929,       -0.3885153532,0.4069569111,-0.1024451852,27.9196548462,0.8464087248,60.1772499084
        0.8104472160,       -0.2083395720,-0.3117930889,-0.2513709664,24.6695327759,-1.7781029940,63.3968544006
        0.8131380081,       -0.2083395720,-0.3117930889,-0.2513709664,24.6695327759,-1.7781029940,63.3968544006
        0.8158311844,       -0.2083395720,-0.3117930889,-0.2513709664,19.1916275024,-2.1137962341,63.3358192444
        0.8186461926,       -0.2083395720,-0.3117930889,-0.2513709664,19.1916275024,-2.1137962341,63.3358192444
        0.8213391304,        0.0314065218,-0.8503673077,-0.1922889352,11.1349859238,1.2278784513,60.8333778381
        0.8240230083,        0.0314065218,-0.8503673077,-0.1922889352,11.1349859238,1.2278784513,60.8333778381
        0.8267099857,        0.0314065218,-0.8503673077,-0.1922889352,-1.0720453262,5.2867164612,57.5527381897
        0.8294072151,        0.0314065218,-0.8503673077,-0.0672889352,-1.0720453262,5.2867164612,57.5527381897
        0.8320920467,       -0.0174216032,-0.8498790264,-0.1327186227,-14.7134027481,6.9651832581,56.4083290100
        0.8347811699,       -0.0174216032,-0.8498790264,-0.1327186227,-14.7134027481,6.9651832581,56.4083290100
        0.8374791145,       -0.0174216032,-0.8498790264,-0.1327186227,-26.2490463257,7.8807106018,55.2181434631
        0.8402390480,       -0.0174216032,-0.6228282452,-0.0487342477,-26.2490463257,7.8807106018,55.2181434631
        0.8429331779,       -0.0916403532,-0.6228282452,-0.0487342477,-33.7411117554,8.8114967346,53.1124305725
        0.8456342220,       -0.0916403532,-0.6228282452,-0.0487342477,-33.7411117554,8.8114967346,53.1124305725
        0.8483440876,       -0.0916403532,-0.6228282452,-0.0487342477,-39.8598861694,8.0943336487,53.9821815491
        0.8510332108,       -0.1438864470,-0.2932384014,0.0391563773,-39.8598861694,8.0943336487,53.9821815491
        0.8539791107,       -0.1438864470,-0.2932384014,0.0391563773,-46.2990951538,4.7068824768,57.9342079163
        0.8566720486,       -0.1438864470,-0.2932384014,0.0391563773,-46.2990951538,4.7068824768,57.9342079163
        0.8601620197,       -0.1438864470,-0.0432383865,0.0884727836,-49.1219711304,1.8840063810,61.5505409241
        0.8627340794,       -0.0750387907,-0.0642344803,0.0884727836,-49.1219711304,1.8840063810,61.5505409241
        0.8653070927,       -0.0750387907,-0.0642344803,0.0884727836,-47.0925521851,0.6938208342,62.5881385803
        0.8679621220,       -0.0750387907,-0.0642344803,0.0884727836,-47.0925521851,0.6938208342,62.5881385803
        0.8705360889,       -0.0750387907,-0.0002696365,0.0503868461,-43.3388900757,-0.4353295565,62.2677040100
        0.8731021881,       -0.0203512907,-0.0002696365,0.0503868461,-43.3388900757,-0.4353295565,62.2677040100
        0.8756701946,       -0.0203512907,-0.0002696365,0.0503868461,-39.1732406616,-1.8086205721,61.8404579163
        0.8782989979,       -0.0203512907,-0.0002696365,0.0503868461,-39.1732406616,-1.8086205721,61.8404579163
        0.8809661865,        0.0489846468,-0.0183360428,0.0010704398,-35.2669906616,-3.1361351013,60.2230262756
        0.8836491108,        0.0489846468,-0.0183360428,0.0010704398,-33.9394760132,-3.1361351013,60.2230262756
        0.8862171173,        0.0489846468,-0.0183360428,0.0010704398,-33.9394760132,-3.9295921326,58.1936073303
        0.8887941837,        0.0489846468,-0.0183360428,0.0010704398,-28.7514877319,-3.9295921326,58.1936073303
        0.8913590908,        0.0885354280,-0.0808360428,-0.0243201852,-28.7514877319,-3.9295921326,56.1184120178
        0.8939290047,        0.0885354280,-0.0808360428,-0.0243201852,-24.0212631226,-4.3568382263,56.1184120178
        0.8964951038,        0.0885354280,-0.0808360428,-0.0243201852,-24.0212631226,-4.3568382263,54.4704627991
        0.8991050720,        0.0885354280,-0.0808360428,-0.0243201852,-21.6866683960,-4.3415794373,54.4704627991
        0.9016780853,        0.0943948030,-0.1189219803,-0.0340858102,-21.6866683960,-4.3415794373,54.4704627991
        0.9042491913,        0.0943948030,-0.1189219803,-0.0340858102,-21.3357162476,-3.6854515076,53.8143348694
        0.9068150520,        0.0943948030,-0.1189219803,-0.0340858102,-21.3357162476,-3.6854515076,53.8143348694
        0.9095761776,        0.0943948030,-0.1189219803,-0.0340858102,-21.6256332397,-3.5786399841,53.5854530334
        0.9121470451,        0.0904885530,-0.1042735428,-0.0433631539,-21.6256332397,-3.5786399841,53.5854530334
        0.9147231579,        0.0904885530,-0.1042735428,-0.0433631539,-22.1596908569,-3.5176048279,54.1195106506
        0.9173011780,        0.0904885530,-0.1042735428,-0.0433631539,-22.1596908569,-3.5176048279,54.1195106506
        0.9201250076,        0.0904885530,-0.1042735428,0.0816368461,-22.5869369507,-3.6091575623,54.4246864319
        0.9228320122,        0.0484963655,-0.0823008865,-0.0365272164,-22.5869369507,-3.6091575623,54.4246864319
        0.9255421162,        0.0484963655,-0.0823008865,-0.0365272164,-23.6092758179,-3.5938987732,54.8671913147
        0.9282522202,        0.0484963655,-0.0823008865,-0.0365272164,-23.6092758179,-3.5938987732,54.8671913147
        0.9309601784,        0.0484963655,-0.0925547928,-0.0335975289,-25.2724838257,-3.9448509216,55.5080604553
        0.9336690903,        0.0245705843,-0.0925547928,-0.0335975289,-25.2724838257,-3.9448509216,55.5080604553
        0.9363679886,        0.0245705843,-0.0925547928,-0.0335975289,-27.6223373413,-3.7312278748,56.7745399475
        0.9389991760,        0.0245705843,-0.0925547928,-0.0335975289,-27.6223373413,-3.7312278748,56.7745399475
        0.9417262077,        0.0074807405,-0.1272227615,-0.0160194039,-30.5520248413,-4.2347679138,58.3004188538
        0.9443089962,        0.0074807405,-0.1272227615,-0.0160194039,-30.5520248413,-4.2347679138,58.3004188538
        0.9469962120,        0.0074807405,-0.1272227615,-0.0160194039,-33.4206771851,-5.1197776794,59.2769813538
        0.9498531818,        0.0074807405,-0.1272227615,-0.0160194039,-33.4206771851,-5.1197776794,59.2769813538
        0.9525220394,       -0.0037497282,-0.1594493240,-0.0150428414,-35.0381088257,-5.2723655701,58.9565467834
        0.9557590485,       -0.0037497282,-0.1594493240,-0.0150428414,-35.0381088257,-5.2723655701,58.9565467834
        0.9583680630,       -0.0037497282,-0.1594493240,-0.0150428414,-36.3808822632,-5.9590110779,58.9718055725
        0.9609370232,       -0.0037497282,-0.1594493240,-0.0126014352,-36.3808822632,-5.9590110779,58.9718055725
        0.9635109901,       -0.0149801970,-0.1750743240,-0.0126014352,-37.3269271851,-6.4472923279,59.8873329163
        0.9660811424,       -0.0149801970,-0.1750743240,-0.0126014352,-37.3269271851,-6.4472923279,59.8873329163
        0.9686992168,       -0.0149801970,-0.1750743240,-0.0126014352,-38.0746078491,-6.8897972107,60.0856971741
        0.9712750912,       -0.0149801970,-0.1750743240,-0.0091834664,-38.0746078491,-6.8897972107,60.0856971741
        0.9738471508,       -0.0159567595,-0.1711680740,-0.0091834664,-39.2800521851,-7.3323020935,60.4519081116
        0.9764151573,       -0.0159567595,-0.1711680740,-0.0091834664,-39.2800521851,-7.3323020935,60.4519081116
        0.9789981842,       -0.0159567595,-0.1711680740,-0.0091834664,-39.4326400757,-8.2478294373,60.7418251038
        0.9815711975,       -0.0159567595,-0.1179454178,-0.0052772164,-39.4326400757,-8.2478294373,60.7418251038
        0.9841461182,        0.0006448030,-0.1179454178,-0.0052772164,-39.4326400757,-8.4309349060,60.9249305725
        0.9867150784,        0.0006448030,-0.1179454178,-0.0052772164,-37.9220199585,-8.4309349060,60.9249305725
        0.9892899990,        0.0006448030,-0.1179454178,-0.0052772164,-37.9220199585,-8.4309349060,61.4895057678
        0.9918692112,        0.0006448030,-0.0071055740,-0.0267615914,-34.5498275757,-9.4227561951,61.4895057678
        0.9944381714,       -0.0183981657,-0.0071055740,-0.0267615914,-34.5498275757,-9.4227561951,61.4895057678
        0.9970080853,       -0.0183981657,-0.0071055740,-0.0267615914,-30.2773666382,-10.1704368591,61.9014930725
        0.9997820854,       -0.0183981657,-0.0071055740,-0.0267615914,-30.2773666382,-10.1704368591,61.9014930725
        1.0023570061,       -0.0203512907,0.0588123947,-0.0296912789,-27.0119857788,-10.4145774841,62.5423622131
        1.0049409866,       -0.0203512907,0.0588123947,-0.0296912789,-27.0119857788,-10.4145774841,62.5423622131
        1.0076432228,       -0.0203512907,0.0588123947,-0.0296912789,-21.8087387085,-10.2619895935,62.2219276428
        1.0104742050,       -0.0203512907,0.0588123947,-0.0296912789,-21.8087387085,-10.2619895935,62.2219276428
        1.0131890774,       -0.0125387907,0.2111561447,-0.0428748727,-12.5466547012,-10.4908714294,62.4355506897
        1.0158941746,       -0.0125387907,0.2111561447,-0.0428748727,-12.5466547012,-10.4908714294,62.4355506897
        1.0186071396,       -0.0125387907,0.2111561447,-0.0428748727,-7.1755609512,-11.1927757263,61.5047645569
        1.0213160515,       -0.0125387907,0.2111561447,-0.0292029977,-7.1755609512,-11.1927757263,61.5047645569
        1.0240261555,        0.0265237093,0.0387928635,-0.0292029977,-5.0393304825,-10.7502708435,58.4987831116
        1.0267350674,        0.0265237093,0.0387928635,-0.0292029977,-5.0393304825,-10.7502708435,58.4987831116
        1.0293591022,        0.0265237093,0.0387928635,-0.0292029977,-6.1227045059,-9.1786155701,56.9118690491
        1.0319271088,        0.0265237093,-0.0930430740,-0.0638709664,-6.1227045059,-9.1786155701,56.9118690491
        1.0345060825,        0.1031838655,-0.0930430740,-0.0638709664,-8.9608392715,-8.1715354919,57.7968788147
        1.0370831490,        0.1031838655,-0.0930430740,-0.0638709664,-8.9608392715,-8.1715354919,57.7968788147
        1.0397901535,        0.1031838655,-0.0930430740,-0.0638709664,-11.1886224747,-8.9192161560,59.1243934631
        1.0424590111,        0.0987893343,-0.0871836990,-0.0135779977,-11.1886224747,-8.9192161560,59.1243934631
        1.0451710224,        0.0987893343,-0.0871836990,-0.0135779977,-8.7929925919,-9.1786155701,58.5598182678
        1.0479171276,        0.0987893343,-0.0871836990,-0.0135779977,-8.7929925919,-9.1786155701,58.5598182678
        1.0505771637,        0.0987893343,-0.0871836990,-0.0135779977,-5.5733880997,-9.0412864685,57.7816200256
        1.0537102222,        0.1188088655,-0.0715586990,0.0118126273,-5.5733880997,-9.0412864685,57.7816200256
        1.0562829971,        0.1188088655,-0.0715586990,0.0118126273,-5.7107172012,-10.9333763123,57.0644569397
        1.0589230061,        0.1188088655,-0.0715586990,0.0118126273,-5.7107172012,-10.9333763123,57.0644569397
        1.0614850521,        0.1188088655,-0.0715586990,0.0118126273,-8.5030755997,-13.2527122498,56.2557411194
        1.0640540123,        0.1046487093,-0.1213633865,0.0186485648,-8.5030755997,-13.2527122498,56.2557411194
        1.0666501522,        0.1046487093,-0.1213633865,0.0186485648,-8.7472162247,-15.1448020935,55.4928016663
        1.0692729950,        0.1046487093,-0.1213633865,0.0186485648,-8.7472162247,-15.1448020935,55.4928016663
        1.0718441010,        0.1046487093,-0.1213633865,-0.0106483102,-7.9690179825,-16.7469749451,52.9598426819
        1.0745160580,        0.0104104280,-0.0720469803,-0.0106483102,-7.9690179825,-16.7469749451,52.9598426819
        1.0770931244,        0.0104104280,-0.0720469803,-0.0106483102,-6.7940912247,-17.4488792419,50.6099891663
        1.0796790123,        0.0104104280,-0.0720469803,-0.0106483102,-6.7940912247,-17.4488792419,50.6099891663
        1.0822510719,        0.0104104280,0.0529530197,-0.0414100289,-6.7940912247,-18.1507835388,49.6029090881
        1.0848240852,       -0.0335348845,0.1188709885,-0.0414100289,-4.9630365372,-18.1507835388,49.6029090881
        1.0874431133,       -0.0335348845,0.1188709885,-0.0414100289,-4.9630365372,-18.1507835388,48.4737586975
        1.0900352001,       -0.0335348845,0.1188709885,-0.0414100289,-3.3456048965,-18.8374290466,48.4737586975
        1.0926001072,       -0.0335348845,0.0700428635,-0.0794959664,-3.3456048965,-18.8374290466,47.1309852600
        1.0951731205,       -0.0047262907,0.0700428635,-0.0794959664,-2.5216302872,-18.7763938904,47.1309852600
        1.0978810787,       -0.0047262907,0.0700428635,-0.0794959664,-2.5216302872,-18.7763938904,43.2247352600
        1.1004571915,       -0.0047262907,0.0700428635,-0.0794959664,-2.2774896622,-18.6695823669,44.2470741272
        1.1030340195,        0.0191994905,0.0041248947,-0.0526404977,-2.2774896622,-18.6695823669,44.2470741272
        1.1056160927,        0.0191994905,0.0041248947,-0.0526404977,-2.5063714981,-20.2107200623,40.9969520569
        1.1083230972,        0.0191994905,0.0041248947,-0.0526404977,-2.5063714981,-20.2107200623,40.9969520569
        1.1110281944,        0.0191994905,0.0041248947,-0.0526404977,-3.6660394669,-21.1720237732,39.9898719788
        1.1137371063,        0.0489846468,0.1237538010,-0.0077186227,-3.6660394669,-21.1720237732,39.9898719788
        1.1164410114,        0.0489846468,0.1237538010,-0.0077186227,-2.6284418106,-21.8128929138,38.6623573303
        1.1190750599,        0.0489846468,0.1237538010,-0.0077186227,-2.6284418106,-21.8128929138,38.6623573303
        1.1216452122,        0.0489846468,0.1237538010,-0.0077186227,-1.2704095840,-22.7589378357,36.2209510803
        1.1242170334,        0.0914651155,0.1071522385,0.0274376273,-1.2704095840,-22.7589378357,36.2209510803
        1.1267921925,        0.0914651155,0.1071522385,0.0274376273,-2.6589593887,-23.6286888123,33.8100624084
        1.1294569969,        0.0914651155,0.1071522385,0.0274376273,-2.6589593887,-23.6286888123,33.8100624084
        1.1321451664,        0.0914651155,0.1071522385,0.0274376273,-5.4208002090,-22.9420433044,32.3604774475
        1.1348321438,        0.0694924593,0.0143788010,0.0337852836,-5.4208002090,-22.9420433044,32.3604774475
        1.1375269890,        0.0694924593,0.0143788010,0.0337852836,-7.4807367325,-22.8352317810,31.1245174408
        1.1403341293,        0.0694924593,0.0143788010,0.0337852836,-7.4807367325,-22.8352317810,31.1245174408
        1.1430201530,        0.0694924593,0.0173084885,0.0650352836,-9.0676507950,-23.3540306091,30.2395076752
        1.1458220482,       -0.0203512907,0.0173084885,0.0650352836,-9.0676507950,-23.3540306091,30.2395076752
        1.1485331059,       -0.0203512907,0.0173084885,0.0650352836,-10.8529291153,-23.4913597107,28.1795711517
        1.1512041092,       -0.0203512907,0.0173084885,0.0650352836,-10.8529291153,-23.4913597107,28.1795711517
        1.1544251442,       -0.1507223845,0.0817616135,0.0401329398,-11.8294916153,-22.6216087341,26.8673152924
        1.1570022106,       -0.1507223845,0.0817616135,0.0401329398,-11.8294916153,-22.6216087341,26.8673152924
        1.1596760750,       -0.1507223845,0.0817616135,0.0401329398,-11.9057855606,-21.5534934998,26.2264461517
        1.1622450352,       -0.1507223845,0.0817616135,0.0401329398,-11.9057855606,-21.5534934998,26.2264461517
        1.1648111343,       -0.1492575407,0.0915272385,0.0240196586,-11.0512933731,-20.5158958435,24.3953914642
        1.1673920155,       -0.1492575407,0.0915272385,0.0240196586,-11.0512933731,-20.5158958435,24.3953914642
        1.1700119972,       -0.1492575407,0.0915272385,0.0240196586,-8.8998041153,-18.7306175232,22.7627010345
        1.1725831032,       -0.1492575407,0.0915272385,0.0240196586,-8.8998041153,-18.7306175232,22.7627010345
        1.1751580238,       -0.0599020720,0.0651600510,0.0176720023,-8.3504877090,-17.3878440857,21.6640682220
        1.1777720451,       -0.0599020720,0.0651600510,0.0176720023,-8.3504877090,-17.3878440857,21.6640682220
        1.1803460121,       -0.0599020720,0.0651600510,0.0176720023,-8.3504877090,-17.6014671326,20.3060359955
        1.1829211712,       -0.0599020720,0.0651600510,0.0503868461,-9.4186029434,-17.6014671326,20.3060359955
        1.1854860783,        0.0231057405,0.1081288010,0.0503868461,-9.4186029434,-17.6014671326,17.9714412689
        1.1881279945,        0.0231057405,0.1081288010,0.0503868461,-9.2049798965,-17.0826683044,17.9714412689
        1.1906991005,        0.0231057405,0.1081288010,0.0503868461,-9.2049798965,-17.0826683044,15.9572801590
        1.1932690144,        0.0231057405,0.1081288010,0.0357384086,-8.1521234512,-16.0298118591,15.9572801590
        1.1958501339,        0.0519143343,0.1115467697,0.0357384086,-8.1521234512,-16.0298118591,13.8668260574
        1.1984782219,        0.0519143343,0.1115467697,0.0357384086,-7.7859125137,-15.5567893982,13.8668260574
        1.2010481358,        0.0519143343,0.1115467697,0.0357384086,-7.7859125137,-15.5567893982,13.8668260574
        1.2037270069,        0.0519143343,0.0920155197,0.0611290336,-8.3962640762,-14.9006614685,12.2341356277
        1.2062940598,        0.0680276155,0.0920155197,0.0611290336,-8.3962640762,-14.9006614685,12.2341356277
        1.2090120316,        0.0680276155,0.0920155197,0.0611290336,-8.3352289200,-13.9393577576,10.1894578934
        1.2115771770,        0.0680276155,0.0920155197,0.0611290336,-8.3352289200,-13.9393577576,10.1894578934
        1.2141430378,        0.0475198030,0.0866444260,0.0679649711,-8.5030755997,-13.4968528748,7.9464163780
        1.2167160511,        0.0475198030,0.0866444260,0.0679649711,-8.5030755997,-13.4968528748,7.9464163780
        1.2192890644,        0.0475198030,0.0866444260,0.0679649711,-7.4197015762,-12.8865013123,6.5731253624
        1.2218611240,        0.0475198030,0.0866444260,0.0679649711,-7.4197015762,-12.8865013123,6.5731253624
        1.2244281769,        0.0113869905,0.0475819260,0.0498985648,-6.9466791153,-12.5202903748,5.2608695030
        1.2269961834,        0.0113869905,0.0475819260,0.0498985648,-6.9466791153,-12.5202903748,5.2608695030
        1.2297041416,        0.0113869905,0.0475819260,0.0498985648,-7.2213373184,-12.4287376404,4.0706839561
        1.2323901653,        0.0113869905,0.0475819260,0.0498985648,-7.2213373184,-12.4287376404,4.0706839561
        1.2350761890,       -0.0164450407,0.0636952072,0.0562462211,-7.6791009903,-12.0167503357,3.1093802452
        1.2377719879,       -0.0164450407,0.0636952072,0.0562462211,-7.6791009903,-12.0167503357,3.1093802452
        1.2404551506,       -0.0164450407,0.0636952072,0.0562462211,-7.7706537247,-11.6505393982,1.4919484854
        1.2431490421,       -0.0164450407,0.0636952072,0.0562462211,-7.7706537247,-11.6505393982,1.4919484854
        1.2458322048,        0.0065041780,0.0846913010,0.0455040336,-7.1297845840,-10.2772483826,-0.0797067881
        1.2485601902,        0.0065041780,0.0846913010,0.0455040336,-7.1297845840,-10.2772483826,-0.0797067881
        1.2512440681,        0.0065041780,0.0846913010,0.0455040336,-6.7483148575,-9.6363792419,-1.5750681162
        1.2539250851,        0.0065041780,0.0846913010,0.0445274711,-6.7483148575,-9.6363792419,-1.5750681162
        1.2566041946,        0.0455666780,0.0705311447,0.0445274711,-6.9924554825,-8.4461936951,-2.6737008095
        1.2593162060,        0.0455666780,0.0705311447,0.0445274711,-6.9924554825,-8.4461936951,-2.6737008095
        1.2619731426,        0.0455666780,0.0705311447,0.0445274711,-6.9924554825,-7.6679954529,-4.0622506142
        1.2647612095,        0.0816994905,0.0915272385,0.0718712211,-7.0229730606,-7.6679954529,-4.0622506142
        1.2684249878,        0.0816994905,0.0915272385,0.0718712211,-7.1297845840,-7.7748069763,-6.3663277626
        1.2709991932,        0.0816994905,0.0915272385,0.0718712211,-7.1297845840,-7.7748069763,-6.3663277626
        1.2735700607,        0.0816994905,0.0915272385,0.0718712211,-6.0616693497,-7.1797142029,-8.5941114426
        1.2761380672,        0.0890237093,0.1022694260,0.0684532523,-6.0616693497,-7.1797142029,-8.5941114426
        1.2787811756,        0.0890237093,0.1022694260,0.0684532523,-4.9630365372,-7.1644554138,-10.2420606613
        1.2814841270,        0.0890237093,0.1022694260,0.0684532523,-4.9630365372,-7.1644554138,-10.2420606613
        1.2841870785,        0.0890237093,0.1022694260,0.0518516898,-3.8186273575,-8.2478294373,-12.5766553879
        1.2868890762,        0.0650979280,0.0656483322,0.0518516898,-3.8186273575,-8.2478294373,-12.5766553879
        1.2896010876,        0.0650979280,0.0656483322,0.0518516898,-2.5674066544,-8.2936058044,-13.9499464035
        1.2923040390,        0.0650979280,0.0656483322,0.0518516898,-2.5674066544,-8.2936058044,-13.9499464035
        1.2950119972,        0.0187112093,0.0607655197,0.0308555961,-1.9112787247,-8.3241233826,-14.9722852707
        1.2977430820,        0.0187112093,0.0607655197,0.0308555961,-1.9112787247,-8.3241233826,-14.9722852707
        1.3003170490,        0.0187112093,0.0607655197,0.0308555961,-1.4535150528,-8.3393821716,-16.0556583405
        1.3028850555,        0.0187112093,0.0607655197,0.0308555961,-1.4535150528,-8.3393821716,-16.0556583405
        1.3054530621,        0.0040627718,0.0509998947,0.0083946586,-1.4535150528,-7.9731712341,-16.7117862701
        1.3080320358,        0.0040627718,0.0509998947,0.0083946586,-1.7434320450,-7.9731712341,-16.7117862701
        1.3106031418,        0.0040627718,0.0509998947,0.0083946586,-1.7434320450,-7.9731712341,-16.9101505280
        1.3131761551,        0.0040627718,0.0509998947,0.0083946586,-3.0404291153,-7.5001487732,-16.9101505280
        1.3157491684,        0.0089455843,0.0348866135,0.0289024711,-3.0404291153,-7.5001487732,-17.0322208405
        1.3184511662,        0.0089455843,0.0348866135,0.0289024711,-4.7646722794,-7.1034202576,-17.0322208405
        1.3210210800,        0.0089455843,0.0348866135,0.0289024711,-4.7646722794,-7.1034202576,-17.0322208405
        1.3235921860,        0.0089455843,0.0348866135,0.0289024711,-5.7259759903,-6.1878929138,-17.5967960358
        1.3261570930,        0.0323830843,0.0495350510,0.0562462211,-5.7259759903,-6.1878929138,-17.5967960358
        1.3289220333,        0.0323830843,0.0495350510,0.0562462211,-6.4889154434,-5.8521995544,-18.1766300201
        1.3317151070,        0.0323830843,0.0495350510,0.0562462211,-6.4889154434,-5.8521995544,-18.1766300201
        1.3343980312,        0.0323830843,0.0495350510,0.0538048148,-6.0769281387,-5.8979759216,-18.9395694733
        1.3370890617,        0.0470315218,0.0524647385,0.0538048148,-6.0769281387,-5.8979759216,-18.9395694733
        1.3397781849,        0.0470315218,0.0524647385,0.0538048148,-5.4818353653,-5.5165061951,-20.5112247467
        1.3424651623,        0.0470315218,0.0524647385,0.0538048148,-5.4818353653,-5.5165061951,-20.5112247467
        1.3451490402,        0.0470315218,0.0319569260,0.0567345023,-4.3679437637,-5.9284934998,-21.3504581451
        1.3478410244,        0.0113869905,0.0319569260,0.0567345023,-4.3679437637,-5.9284934998,-21.3504581451
        1.3506991863,        0.0113869905,0.0319569260,0.0567345023,-3.8338861465,-5.5317649841,-22.1744327545
        1.3532721996,        0.0113869905,0.0319569260,0.0567345023,-3.8338861465,-5.5317649841,-22.1744327545
        1.3558402061,       -0.0061911345,0.0187733322,0.0669884086,-2.5674066544,-5.2265892029,-22.8458194733
        1.3584821224,       -0.0061911345,0.0187733322,0.0669884086,-2.5674066544,-5.2265892029,-22.8458194733
        1.3611462116,       -0.0061911345,0.0187733322,0.0669884086,-1.4229974747,-5.4402122498,-23.8986759186
        1.3639512062,       -0.0061911345,0.0187733322,0.0669884086,-1.4229974747,-5.4402122498,-23.8986759186
        1.3665661812,       -0.0130270720,0.0021717697,0.0655235648,-0.6295404434,-5.1655540466,-24.2954044342
        1.3692190647,       -0.0130270720,0.0021717697,0.0655235648,-0.6295404434,-5.1655540466,-24.2954044342
        1.3717880249,       -0.0130270720,0.0021717697,0.0655235648,-0.1260004044,-5.3181419373,-24.7073917389
        1.3743510246,       -0.0130270720,0.0021717697,0.0655235648,-0.1260004044,-5.3181419373,-24.7073917389
        1.3769171238,        0.0074807405,0.0177967697,0.0528282523,0.3775396347,-5.3181419373,-24.8294620514
        1.3794860840,        0.0074807405,0.0177967697,0.0528282523,0.3775396347,-5.3181419373,-24.8294620514
        1.3820509911,        0.0074807405,0.0177967697,0.0528282523,0.7895269394,-5.3944358826,-25.2414493561
        1.3846161366,        0.0074807405,0.0177967697,0.0528282523,0.7895269394,-5.3944358826,-25.2414493561
        1.3871810436,        0.0323830843,0.0339100510,0.0391563773,0.7895269394,-5.5470237732,-25.8212833405
        1.3897500038,        0.0323830843,0.0339100510,0.0391563773,1.2472906113,-5.5470237732,-25.8212833405
        1.3923161030,        0.0323830843,0.0339100510,0.0391563773,1.2472906113,-5.5470237732,-26.4468936920
        1.3949921131,        0.0323830843,0.0339100510,0.0469688773,2.0865240097,-5.7911643982,-26.4468936920
        1.3975560665,        0.0343362093,0.0319569260,0.0469688773,2.0865240097,-5.7911643982,-26.7520694733
        1.4001221657,        0.0343362093,0.0319569260,0.0469688773,3.0936040878,-6.0047874451,-26.7520694733
        1.4026901722,        0.0343362093,0.0319569260,0.0469688773,3.0936040878,-6.0047874451,-26.7520694733
        1.4052550793,        0.0343362093,0.0319569260,0.0386680961,3.5971441269,-5.2876243591,-26.9962100983
        1.4079020023,        0.0152932405,0.0007069260,0.0386680961,3.5971441269,-5.2876243591,-26.9962100983
        1.4104740620,        0.0152932405,0.0007069260,0.0386680961,3.9328374863,-4.8298606873,-27.2861270905
        1.4130401611,        0.0152932405,0.0007069260,0.0386680961,3.9328374863,-4.8298606873,-27.2861270905
        1.4156141281,        0.0152932405,-0.0237071365,0.0723595023,4.6652593613,-5.0587425232,-27.0572452545
        1.4182732105,        0.0045510530,-0.0237071365,0.0723595023,4.6652593613,-5.0587425232,-27.0572452545
        1.4208450317,        0.0045510530,-0.0237071365,0.0723595023,4.5584478378,-4.6162376404,-26.7062931061
        1.4234139919,        0.0045510530,-0.0237071365,0.0723595023,4.5584478378,-4.6162376404,-26.7062931061
        1.4259841442,        0.0045510530,-0.0373790115,0.0630821586,5.3061285019,-4.2347679138,-26.2180118561
        1.4286191463,       -0.0418356657,-0.0373790115,0.0630821586,5.3061285019,-4.2347679138,-26.2180118561
        1.4313240051,       -0.0418356657,-0.0373790115,0.0630821586,5.4129400253,-4.1889915466,-25.3330020905
        1.4340209961,       -0.0418356657,-0.0373790115,0.0630821586,5.4129400253,-4.1889915466,-25.3330020905
        1.4367251396,       -0.0457419157,-0.0422618240,0.0464805961,5.5807867050,-4.4178733826,-24.5242862701
        1.4394381046,       -0.0457419157,-0.0422618240,0.0464805961,5.5807867050,-4.4178733826,-24.5242862701
        1.4421370029,       -0.0457419157,-0.0422618240,0.0464805961,5.8859624863,-4.3110618591,-23.5629825592
        1.4448330402,       -0.0457419157,-0.0422618240,0.0464805961,5.8859624863,-4.3110618591,-23.5629825592
        1.4475491047,       -0.0013083220,-0.0012461990,0.0494102836,5.7333745956,-4.5094261169,-22.4185733795
        1.4502470493,       -0.0013083220,-0.0012461990,0.0494102836,5.7333745956,-4.5094261169,-22.4185733795
        1.4529430866,       -0.0013083220,-0.0012461990,0.0494102836,5.8554449081,-4.6009788513,-21.8387393951
        1.4557130337,       -0.0013083220,-0.0012461990,0.0577110648,5.8554449081,-4.6009788513,-21.8387393951
        1.4586241245,        0.0362893343,0.0114491135,0.0577110648,6.6641607285,-4.7077903748,-22.1286563873
        1.4613041878,        0.0362893343,0.0114491135,0.0577110648,6.6641607285,-4.7077903748,-22.1286563873
        1.4646019936,        0.0362893343,0.0114491135,0.0577110648,7.9306402206,-4.6772727966,-22.7542667389
        1.4671790600,        0.0455666780,0.0143788010,0.0498985648,7.9306402206,-4.6772727966,-22.7542667389
        1.4697561264,        0.0455666780,0.0143788010,0.0498985648,9.2428960800,-4.6467552185,-22.9831485748
        1.4723269939,        0.0455666780,0.0143788010,0.0498985648,9.2428960800,-4.6467552185,-22.9831485748
        1.4748990536,        0.0455666780,0.0143788010,0.0498985648,10.4635992050,-4.5399436951,-23.0899600983
        1.4774880409,        0.0318948030,0.0094959885,0.0591759086,10.4635992050,-4.5399436951,-23.0899600983
        1.4800601006,        0.0318948030,0.0094959885,0.0591759086,11.7911138535,-4.8451194763,-22.9221134186
        1.4826371670,        0.0318948030,0.0094959885,0.0591759086,11.7911138535,-4.8451194763,-22.9221134186
        1.4852080345,        0.0318948030,0.0094959885,0.0591759086,11.7911138535,-4.7993431091,-22.7847843170
        1.4877891541,        0.0118752718,-0.0178477615,0.0440391898,13.7137212753,-4.7993431091,-22.7847843170
        1.4903612137,        0.0118752718,-0.0178477615,0.0440391898,13.7137212753,-8.7055931091,-22.5711612701
        1.4929301739,        0.0118752718,-0.0178477615,0.0440391898,15.7431402206,-5.0892601013,-22.5711612701
        1.4955050945,        0.0118752718,-0.0178477615,0.0440391898,15.7431402206,-5.0892601013,-21.8082218170
        1.4982311726,       -0.0247458220,-0.0422618240,0.0435509086,16.5213394165,-5.0587425232,-21.8082218170
        1.5008080006,       -0.0247458220,-0.0422618240,0.0435509086,16.5213394165,-5.0587425232,-20.9232120514
        1.5033822060,       -0.0247458220,-0.0422618240,0.0435509086,17.8793716431,-4.6009788513,-20.9232120514
        1.5059530735,       -0.0247458220,-0.0422618240,0.0435509086,17.8793716431,-4.6009788513,-20.9232120514
        1.5086591244,       -0.0223044157,-0.0588633865,0.0328087211,19.3747329712,-4.1584739685,-18.7869815826
        1.5112321377,       -0.0223044157,-0.0588633865,0.0328087211,19.3747329712,-4.1584739685,-18.7869815826
        1.5138001442,       -0.0223044157,-0.0588633865,0.0328087211,21.1142349243,-3.8075218201,-17.1237735748
        1.5163722038,       -0.0223044157,-0.0588633865,0.0420860648,21.1142349243,-3.8075218201,-17.1237735748
        1.5190830231,       -0.0281637907,-0.0505626053,0.0420860648,20.8243179321,-3.2429466248,-15.5216016769
        1.5217630863,       -0.0281637907,-0.0505626053,0.0420860648,20.8243179321,-3.2429466248,-15.5216016769
        1.5243380070,       -0.0281637907,-0.0505626053,0.0420860648,19.7104263306,-2.9835472107,-13.9652051926
        1.5269050598,       -0.0281637907,-0.0437266678,0.0611290336,19.7104263306,-2.9835472107,-13.9652051926
        1.5294890404,       -0.0008200407,-0.0437266678,0.0611290336,19.2984390259,-1.9001733065,-11.7526807785
        1.5320570469,       -0.0008200407,-0.0437266678,0.0611290336,19.2984390259,-1.9001733065,-11.7526807785
        1.5346250534,       -0.0008200407,-0.0437266678,0.0611290336,19.5120620728,-1.5492211580,-10.4251661301
        1.5371990204,       -0.0008200407,-0.0266368240,0.0562462211,19.5120620728,-1.5492211580,-10.4251661301
        1.5398139954,        0.0226174593,-0.0266368240,0.0562462211,18.8711929321,-1.0609399080,-9.7080030441
        1.5423810482,        0.0226174593,-0.0266368240,0.0562462211,18.8711929321,-1.0609399080,-9.7080030441
        1.5449540615,        0.0226174593,-0.0266368240,0.0562462211,18.8711929321,-0.2217065096,-8.3957471848
        1.5475301743,        0.0006448030,-0.0676524490,0.0704063773,18.0319595337,-0.2217065096,-8.3957471848
        1.5502350330,        0.0006448030,-0.0676524490,0.0704063773,18.0319595337,0.6175268888,-7.2971138954
        1.5529341698,        0.0006448030,-0.0676524490,0.0704063773,18.2303237915,0.6175268888,-7.2971138954
        1.5556840897,        0.0006448030,-0.0676524490,0.0704063773,18.2303237915,1.0600317717,-5.8933053017
        1.5584771633,       -0.0262106657,-0.0813243240,0.0772423148,18.2455825806,1.0600317717,-5.8933053017
        1.5611391068,       -0.0262106657,-0.0813243240,0.0772423148,18.2455825806,1.5483130217,-4.6115670204
        1.5641171932,       -0.0262106657,-0.0813243240,0.0772423148,18.4592056274,1.5483130217,-4.6115670204
        1.5666952133,       -0.0262106657,-0.0813243240,0.0704063773,18.4592056274,1.8077124357,-3.1467232704
        1.5693180561,       -0.0506247282,-0.0852305740,0.0704063773,18.4897232056,1.8077124357,-3.1467232704
        1.5718882084,       -0.0506247282,-0.0852305740,0.0704063773,18.4897232056,1.8077124357,-1.4682565928
        1.5744521618,       -0.0506247282,-0.0852305740,0.0704063773,18.8101577759,1.7619360685,-1.4682565928
        1.5770180225,       -0.0506247282,-0.0852305740,0.0660118461,18.8101577759,1.7619360685,0.1796926260
        1.5796530247,       -0.0247458220,-0.0598399490,0.0660118461,19.5425796509,1.0752905607,0.1796926260
        1.5822210312,       -0.0247458220,-0.0598399490,0.0660118461,19.5425796509,1.0752905607,0.1796926260
        1.5849041939,       -0.0247458220,-0.0598399490,0.0660118461,20.4275894165,0.7395972013,0.7137502432
        1.5874710083,       -0.0247458220,-0.0285899490,0.0264610648,20.4275894165,0.7395972013,0.7137502432
        1.5900402069,       -0.0086325407,-0.0285899490,0.0264610648,22.3959732056,0.7701147795,2.2548880577
        1.5926070213,       -0.0086325407,-0.0285899490,0.0264610648,22.3959732056,0.7701147795,2.2548880577
        1.5951731205,       -0.0086325407,-0.0285899490,0.0264610648,25.9817886353,1.0752905607,3.9486136436
        1.5977630615,       -0.0086325407,-0.0290782303,0.0166954398,25.9817886353,1.0752905607,3.9486136436
        1.6003341675,       -0.0154684782,-0.0290782303,0.0166954398,26.0580825806,1.8077124357,3.6739554405
        1.6029031277,       -0.0154684782,-0.0290782303,0.0166954398,26.0580825806,1.8077124357,3.6739554405
        1.6054701805,       -0.0154684782,-0.0290782303,0.0166954398,25.6613540649,2.6927223206,5.4592337608
        1.6081120968,        0.0094338655,-0.0388438553,0.0088829398,25.6613540649,2.6927223206,5.4592337608
        1.6106801033,        0.0094338655,-0.0388438553,0.0088829398,24.2575454712,3.1810035706,7.1377005577
        1.6132490635,        0.0094338655,-0.0388438553,0.0088829398,24.2575454712,3.1810035706,7.1377005577
        1.6158161163,        0.0094338655,-0.0388438553,0.0088829398,20.3512954712,3.1504859924,7.9464163780
        1.6185181141,        0.0040627718,-0.0744883865,0.0079063773,22.4112319946,3.1504859924,7.9464163780
        1.6210892200,        0.0040627718,-0.0744883865,0.0079063773,22.4112319946,2.6011695862,8.4041795731
        1.6236491203,        0.0040627718,-0.0744883865,0.0079063773,20.5954360962,2.6011695862,8.4041795731
        1.6262130737,        0.0040627718,-0.0744883865,0.0079063773,20.5954360962,2.6011695862,9.3197069168
        1.6287841797,       -0.0345114470,-0.0486094803,0.0132774711,19.6493911743,2.3417701721,9.3197069168
        1.6313490868,       -0.0345114470,-0.0486094803,0.0132774711,19.6493911743,2.3417701721,9.3197069168
        1.6339230537,       -0.0345114470,-0.0486094803,0.0132774711,19.2679214478,2.2654762268,10.8913621902
        1.6364901066,       -0.0345114470,-0.0486094803,0.0132774711,19.2679214478,2.2654762268,10.8913621902
        1.6391201019,       -0.0486716032,-0.0495860428,0.0137657523,19.6493911743,2.0060768127,12.3409471512
        1.6416850090,       -0.0486716032,-0.0495860428,0.0137657523,19.6493911743,2.0060768127,12.3409471512
        1.6442530155,       -0.0486716032,-0.0495860428,0.0137657523,19.5273208618,1.5635718107,13.6989793777
        1.6469361782,       -0.0486716032,-0.0495860428,0.0137657523,19.5273208618,1.5635718107,13.6989793777
        1.6496241093,       -0.0428122282,-0.0544688553,0.0381798148,19.2374038696,1.2583960295,14.9349412918
        1.6521961689,       -0.0428122282,-0.0544688553,0.0381798148,19.2374038696,1.2583960295,14.9349412918
        1.6547651291,       -0.0428122282,-0.0544688553,0.0381798148,18.7643814087,0.6633032560,15.7589159012
        1.6573359966,       -0.0428122282,-0.0544688553,0.0381798148,18.7643814087,0.6633032560,15.7589159012
        1.6599130630,       -0.0310934782,-0.0232188553,0.0298790336,18.3371353149,0.7395972013,16.5981502533
        1.6624832153,       -0.0310934782,-0.0232188553,0.0298790336,18.3371353149,0.7395972013,16.5981502533
        1.6650512218,       -0.0310934782,-0.0232188553,0.0298790336,18.6575698853,0.7701147795,17.2085018158
        1.6676859856,       -0.0310934782,-0.0232188553,0.0215782523,18.6575698853,0.7701147795,17.2085018158
        1.6702570915,       -0.0359762907,-0.0310313553,0.0215782523,18.6575698853,1.3652075529,17.6662654877
        1.6728260517,       -0.0359762907,-0.0310313553,0.0215782523,19.2068862915,1.3652075529,17.6662654877
        1.6755480766,       -0.0359762907,-0.0310313553,0.0215782523,19.2068862915,2.3722877502,18.5360164642
        1.6784210205,       -0.1609762907,-0.0447032303,0.0201134086,18.8101577759,2.3722877502,18.5360164642
        1.6811280251,       -0.0530661345,-0.0447032303,0.0201134086,18.8101577759,3.2572975159,19.2531795502
        1.6838390827,       -0.0530661345,-0.0447032303,0.0201134086,17.8183364868,3.2572975159,19.2531795502
        1.6865429878,       -0.0530661345,-0.0447032303,0.0201134086,17.8183364868,3.8218727112,19.6346492767
        1.6892561913,       -0.0599020720,-0.0364024490,0.0176720023,15.6668462753,3.8218727112,19.6346492767
        1.6919651031,       -0.0599020720,-0.0364024490,0.0176720023,11.7605962753,4.3254127502,19.2074031830
        1.6946740150,       -0.0599020720,-0.0364024490,0.0176720023,14.1562261581,4.3254127502,19.2074031830
        1.6973750591,       -0.0599020720,-0.0364024490,0.0176720023,14.1562261581,5.3935279846,18.8717098236
        1.7000820637,       -0.0784567595,-0.0158946365,-0.0052772164,11.8521490097,5.3935279846,18.8717098236
        1.7027871609,       -0.0784567595,-0.0158946365,-0.0052772164,7.9458990097,6.5989723206,18.6886043549
        1.7054932117,       -0.0784567595,-0.0158946365,-0.0052772164,11.2570562363,6.5989723206,18.6886043549
        1.7081911564,       -0.0784567595,-0.0158946365,0.0132774711,11.2570562363,7.9417457581,17.9867000580
        1.7108671665,       -0.0965231657,0.0182850510,0.0132774711,10.5704107285,7.9417457581,17.9867000580
        1.7134451866,       -0.0965231657,0.0182850510,0.0132774711,10.5704107285,7.9417457581,16.7202205658
        1.7160181999,       -0.0965231657,0.0182850510,0.0132774711,10.5551519394,8.9946022034,16.7202205658
        1.7186040878,       -0.0965231657,0.0192616135,0.0137657523,10.5551519394,8.9946022034,15.8504686356
        1.7211840153,       -0.1053122282,0.0192616135,0.0137657523,11.0739507675,9.5134010315,15.8504686356
        1.7237610817,       -0.1053122282,0.0192616135,0.0137657523,11.0739507675,9.5134010315,15.8504686356
        1.7263381481,       -0.1053122282,0.0192616135,0.0137657523,11.0586919785,9.4371070862,14.2940721512
        1.7290110588,       -0.1053122282,0.0226795822,0.0166954398,11.0586919785,9.4371070862,14.2940721512
        1.7315881252,       -0.1097067595,0.0226795822,0.0166954398,10.7382574081,9.7880592346,12.5393114090
        1.7341639996,       -0.1097067595,0.0226795822,0.0166954398,10.7382574081,9.7880592346,12.5393114090
        1.7367391586,       -0.1097067595,0.0226795822,0.0166954398,11.1807622910,10.6578102112,11.1202440262
        1.7394931316,       -0.1360739470,0.0373280197,-0.0184608102,11.1807622910,10.6578102112,11.1202440262
        1.7422020435,       -0.1360739470,0.0373280197,-0.0184608102,12.6456060410,11.7106666565,10.4335985184
        1.7449049950,       -0.1360739470,0.0373280197,-0.0184608102,12.6456060410,11.7106666565,10.4335985184
        1.7476551533,       -0.1360739470,0.0373280197,-0.0184608102,12.7218999863,12.4583473206,9.5333299637
        1.7502222061,       -0.1751364470,0.0055897385,-0.0272498727,12.7218999863,12.4583473206,9.5333299637
        1.7527971268,       -0.1751364470,0.0055897385,-0.0272498727,12.7371587753,13.9079322815,9.2281541824
        1.7553679943,       -0.1751364470,0.0055897385,-0.0272498727,12.7371587753,13.9079322815,9.2281541824
        1.7579810619,       -0.1751364470,0.0055897385,-0.0272498727,12.0352544785,14.5640602112,8.5109910965
        1.7607951164,       -0.2434958220,-0.0183360428,0.0000938773,12.0352544785,14.5640602112,8.5109910965
        1.7633681297,       -0.2434958220,-0.0183360428,0.0000938773,11.9437017441,14.2131080627,8.1447801590
        1.7659461498,       -0.2434958220,-0.0183360428,0.0000938773,11.9437017441,14.2131080627,8.1447801590
        1.7686982155,       -0.2434958220,-0.0183360428,0.0201134086,13.5611333847,12.5804176331,7.3208060265
        1.7713670731,       -0.2391012907,-0.0139415115,0.0201134086,13.5611333847,12.5804176331,7.3208060265
        1.7742781639,       -0.2391012907,-0.0139415115,0.0201134086,17.9556655884,11.1308326721,7.6412405968
        1.7769551277,       -0.2391012907,-0.0139415115,0.0201134086,17.9556655884,11.1308326721,7.6412405968
        1.7796552181,       -0.2737692595,-0.0305430740,-0.0018592477,23.1741714478,9.7270240784,8.0532274246
        1.7822220325,       -0.2737692595,-0.0305430740,-0.0018592477,23.1741714478,9.7270240784,8.0532274246
        1.7847890854,       -0.2737692595,-0.0305430740,-0.0018592477,28.2706069946,8.4300270081,8.0990037918
        1.7873630524,       -0.2737692595,-0.0305430740,-0.0018592477,28.2706069946,8.4300270081,8.0990037918
        1.7899370193,       -0.3465231657,-0.0720469803,-0.0477576852,32.1768569946,7.1177711487,9.4112596512
        1.7925000191,       -0.3465231657,-0.0720469803,-0.0477576852,32.4362564087,7.1177711487,9.4112596512
        1.7950651646,       -0.3465231657,-0.0720469803,-0.0477576852,32.4362564087,3.2115211487,10.9371385574
        1.7976992130,       -0.3465231657,-0.0720469803,-0.0477576852,36.5256118774,5.3782691956,10.9371385574
        1.8002660275,       -0.4060934782,-0.0964610428,-0.0497108102,36.5256118774,5.3782691956,12.4019823074
        1.8028330803,       -0.4060934782,-0.0964610428,-0.0497108102,40.4013442993,4.1880836487,12.4019823074
        1.8054051399,       -0.4060934782,-0.0964610428,-0.0497108102,40.4013442993,4.1880836487,16.3082332611
        1.8080711365,       -0.4060934782,-0.0964610428,-0.0497108102,43.8650894165,2.3417701721,13.1801805496
        1.8106441498,       -0.4422262907,-0.1443126053,-0.0560584664,43.8650894165,2.3417701721,13.1801805496
        1.8132162094,       -0.4422262907,-0.1443126053,-0.0560584664,47.2830581665,0.1750220060,14.7213182449
        1.8157851696,       -0.4422262907,-0.1443126053,-0.0560584664,47.2830581665,0.1750220060,14.7213182449
        1.8184571266,       -0.4422262907,-0.1443126053,-0.0560584664,48.0459976196,-1.5492211580,17.7578182220
        1.8210351467,       -0.4353903532,-0.2424571365,-0.0560584664,48.0459976196,-1.5492211580,17.7578182220
        1.8236072063,       -0.4353903532,-0.2424571365,-0.0560584664,45.0400161743,-3.7617454529,19.7567195892
        1.8261802197,       -0.4353903532,-0.2424571365,-0.0560584664,45.0400161743,-3.7617454529,19.7567195892
        1.8288471699,       -0.4353903532,-0.2424571365,-0.0560584664,38.1430435181,-5.5622825623,20.8095760345
        1.8314101696,       -0.4456442595,-0.3235118389,-0.0956092477,38.1430435181,-5.5622825623,20.8095760345
        1.8339800835,       -0.4456442595,-0.3235118389,-0.0956092477,32.3599624634,-7.1949729919,23.2509822845
        1.8365540504,       -0.4456442595,-0.3235118389,-0.0956092477,32.3599624634,-7.1949729919,23.2509822845
        1.8393220901,       -0.4456442595,-0.3235118389,-0.0980506539,28.8351821899,-8.2173118591,27.6760311127
        1.8419020176,       -0.4080466032,-0.2683360577,-0.0980506539,28.8351821899,-8.2173118591,27.6760311127
        1.8444671631,       -0.4080466032,-0.2683360577,-0.0980506539,24.9289321899,-7.2865257263,33.3522987366
        1.8470301628,       -0.4080466032,-0.2683360577,-0.0980506539,24.6237564087,-7.2865257263,33.3522987366
        1.8497571945,       -0.4080466032,-0.2444102615,-0.0609412789,16.8112564087,-5.8369407654,40.8901405334
        1.8524479866,       -0.3621481657,-0.2444102615,-0.0609412789,19.2679214478,-5.8369407654,40.8901405334
        1.8551402092,       -0.3621481657,-0.2444102615,-0.0609412789,19.2679214478,-4.5399436951,48.7789344788
        1.8578381538,       -0.3621481657,-0.2444102615,-0.0609412789,12.1573247910,-4.5399436951,48.7789344788
        1.8605279922,       -0.3343161345,-0.1960704178,0.0210899711,12.1573247910,-4.0821800232,56.6829872131
        1.8632230759,       -0.3343161345,-0.1960704178,0.0210899711,4.9399175644,-4.0821800232,56.6829872131
        1.8659110069,       -0.3343161345,-0.1960704178,0.0210899711,4.9399175644,-4.2042503357,63.8088417053
        1.8686110973,       -0.3343161345,-0.1960704178,0.0210899711,-0.2022943497,-4.2042503357,63.8088417053
        1.8712940216,       -0.3274801970,-0.0422618240,0.1924766898,-0.2022943497,-8.1105003357,72.0485916138
        1.8739831448,       -0.3274801970,-0.0422618240,0.1924766898,-3.0099115372,-5.3486595154,72.0485916138
        1.8766732216,       -0.3274801970,-0.0422618240,0.1924766898,-3.0099115372,-5.3486595154,82.0888748169
        1.8793561459,       -0.3274801970,-0.0422618240,0.1924766898,-5.6039056778,-5.8521995544,82.0888748169
        1.8821539879,       -0.4602926970,0.3459217548,0.2749962211,-5.6039056778,-6.8592796326,93.2735671997
        1.8849880695,       -0.4602926970,0.3459217548,0.2749962211,-4.7951898575,-6.8592796326,93.2735671997
        1.8881402016,       -0.4602926970,0.3459217548,0.2749962211,-2.0791254044,-8.9955101013,104.5345535278
        1.8908431530,       -0.5398825407,0.7629139423,0.2857384086,-2.0791254044,-8.9955101013,104.5345535278
        1.8935461044,       -0.5398825407,0.7629139423,0.2857384086,4.3753423691,-12.5660667419,115.0326004028
        1.8962531090,       -0.5398825407,0.7629139423,0.2857384086,4.3753423691,-12.5660667419,115.0326004028
        1.8989090919,       -0.5398825407,0.7629139423,0.2857384086,16.0940933228,-14.9616966248,125.6374588013
        1.9014801979,       -0.6062887907,0.9303944111,0.2881798148,16.7349624634,-14.9616966248,125.6374588013
        1.9041640759,       -0.6062887907,0.9303944111,0.2881798148,16.7349624634,-16.5791282654,135.2352294922
        1.9067471027,       -0.6062887907,0.9303944111,0.2881798148,31.6122817993,-16.5791282654,135.2352294922
        1.9094371796,       -0.6062887907,0.9303944111,0.2881798148,31.6122817993,-20.4853782654,146.5114746094
        1.9121441841,       -0.6346091032,1.0036365986,0.3531212211,43.8803482056,-19.8902854919,146.5114746094
        1.9148621559,       -0.6346091032,1.0036365986,0.3531212211,43.8803482056,-23.7965354919,155.4378662109
        1.9175791740,       -0.6346091032,1.0036365986,0.3531212211,52.1048355103,-21.4161643982,155.4378662109
        1.9201560020,       -0.6346091032,1.0036365986,0.2706016898,52.1048355103,-21.4161643982,156.9942626953
        1.9227311611,       -0.7073630095,0.6735584736,0.2706016898,56.6672134399,-19.7529563904,156.9942626953
        1.9253041744,       -0.7073630095,0.6735584736,0.2706016898,56.6672134399,-19.7529563904,164.8067626953
        1.9279351234,       -0.7073630095,0.6735584736,0.2706016898,60.1767349243,-19.8902854919,165.2950439453
        1.9305090904,       -0.7073630095,0.4235584736,0.1993126273,60.1767349243,-19.8902854919,165.2950439453
        1.9330852032,       -0.6731833220,0.4914295673,0.1993126273,62.1451187134,-20.9126243591,171.1696777344
        1.9356610775,       -0.6731833220,0.4914295673,0.1993126273,62.1451187134,-20.9126243591,171.1696777344
        1.9382710457,       -0.6731833220,0.4914295673,0.1993126273,61.0007095337,-21.8586692810,174.7707519531
        1.9408581257,       -0.6731833220,0.3459217548,0.1553673148,61.0007095337,-21.8586692810,174.7707519531
        1.9434411526,       -0.5384176970,0.3459217548,0.1553673148,60.8633804321,-21.4466819763,174.6639404297
        1.9460182190,       -0.5384176970,0.3459217548,0.1553673148,60.8633804321,-21.4466819763,174.6639404297
        1.9486842155,       -0.5384176970,0.3459217548,0.1553673148,60.2072525024,-19.4477806091,175.0759277344
        1.9512631893,       -0.4334372282,0.2585194111,0.0865196586,60.2072525024,-19.4477806091,175.0759277344
        1.9538362026,       -0.4334372282,0.2585194111,0.0865196586,60.9701919556,-18.7153587341,174.7097167969
        1.9564161301,       -0.4334372282,0.2585194111,0.0865196586,60.9701919556,-18.7153587341,174.7097167969
        1.9590761662,       -0.4334372282,0.2585194111,0.0865196586,60.6192398071,-18.9747581482,173.8704833984
        1.9617850780,       -0.3348044157,0.2218983322,0.0577110648,60.6192398071,-18.9747581482,173.8704833984
        1.9644939899,       -0.3348044157,0.2218983322,0.0577110648,60.7718276978,-18.0592308044,171.9631347656
        1.9675860405,       -0.3348044157,0.2218983322,0.0577110648,60.7718276978,-18.0592308044,171.9631347656
        1.9702570438,       -0.3348044157,0.2218983322,0.0577110648,62.6181411743,-16.3960227966,169.2775878906
        1.9734621048,       -0.2664450407,0.1545155197,0.0411095023,62.6181411743,-16.3960227966,169.2775878906
        1.9767160416,       -0.2664450407,0.1545155197,0.0411095023,62.1451187134,-13.7715110779,165.8596191406
        1.9793272018,       -0.2664450407,0.1545155197,0.0411095023,62.1451187134,-13.7715110779,165.8596191406
        1.9819030762,       -0.2132223845,0.0812733322,0.0098595023,59.7189712524,-10.7655296326,162.5179443359
        1.9844760895,       -0.2132223845,0.0812733322,0.0098595023,59.7189712524,-10.7655296326,162.5179443359
        1.9870431423,       -0.2132223845,0.0812733322,0.0098595023,55.1565933228,-8.8276634216,159.2067871094
        1.9896709919,       -0.2132223845,0.0812733322,0.0098595023,55.1565933228,-8.8276634216,159.2067871094
        1.9922420979,       -0.1565817595,0.0290272385,-0.0086951852,50.3042984009,-7.4696311951,155.8193359375
        1.9948091507,       -0.1565817595,0.0290272385,-0.0086951852,50.3042984009,-7.4696311951,155.8193359375
        1.9973850250,       -0.1565817595,0.0290272385,-0.0086951852,47.1152114868,-5.6996116638,151.5010986328
        2.0000040531,       -0.1565817595,0.0290272385,-0.0086951852,47.1152114868,-5.6996116638,151.5010986328
        2.0025751591,       -0.0891989470,-0.0105235428,-0.0111365914,41.2710952759,-3.3650169373,147.2133789062
        2.0051481724,       -0.0891989470,-0.0105235428,-0.0111365914,41.2710952759,-3.3650169373,147.2133789062
        2.0077571869,       -0.0891989470,-0.0105235428,-0.0111365914,33.4585952759,-1.9764672518,143.8259277344
        2.0103302002,       -0.0891989470,-0.0105235428,-0.0111365914,34.5724868774,-1.9764672518,143.8259277344
        2.0129032135,       -0.0047262907,-0.0700938553,-0.0233436227,34.5724868774,-1.9764672518,139.1872558594
        2.0154712200,       -0.0047262907,-0.0700938553,-0.0233436227,27.7670669556,-1.6560326815,139.1872558594
        2.0182411671,       -0.0047262907,-0.0700938553,-0.0233436227,27.7670669556,2.2502174377,133.3278808594
        2.0208170414,       -0.0047262907,-0.0700938553,-0.1483436227,20.8395767212,-0.8473168612,133.3278808594
        2.0233941078,        0.0650979280,-0.1418711990,-0.0438514352,20.8395767212,-0.8473168612,128.1551513672
        2.0259821415,        0.0650979280,-0.1418711990,-0.0438514352,12.8897466660,0.6327856779,128.1551513672
        2.0286931992,        0.0650979280,-0.1418711990,-0.0438514352,12.8897466660,0.6327856779,124.2489089966
        2.0315170288,        0.0650979280,-0.1843516678,-0.0580115914,4.1006841660,2.0213356018,122.9213943481
        2.0342121124,        0.1466408968,-0.1843516678,-0.0580115914,4.1006841660,2.0213356018,116.5737380981
        2.0368981361,        0.1466408968,-0.1843516678,-0.0580115914,-4.2611322403,2.7690162659,116.5737380981
        2.0395841599,        0.1466408968,-0.1843516678,-0.0580115914,-4.2611322403,2.7690162659,108.7612380981
        2.0422492027,        0.2696877718,-0.1887461990,-0.0619178414,-11.2801752090,2.6927223206,109.0511550903
        2.0449120998,        0.2696877718,-0.1887461990,-0.0619178414,-11.2801752090,2.6927223206,101.2386550903
        2.0475780964,        0.2696877718,-0.1887461990,-0.0619178414,-16.7733383179,2.6774635315,101.9405593872
        2.0501580238,        0.2696877718,-0.1887461990,-0.0619178414,-16.7733383179,2.6774635315,101.9405593872
        2.0527381897,        0.3273049593,-0.1887461990,-0.0658240914,-21.1831283569,3.7608375549,94.6773757935
        2.0553071499,        0.3273049593,-0.1887461990,-0.0658240914,-21.1831283569,3.7608375549,94.6773757935
        2.0579521656,        0.3273049593,-0.1887461990,-0.0658240914,-25.5318832397,4.6458473206,86.7275466919
        2.0606679916,        0.3273049593,-0.1887461990,-0.0658240914,-25.5318832397,4.6458473206,86.7275466919
        2.0633749962,        0.3995705843,-0.2580821514,-0.0711951852,-30.3384017944,4.4780006409,77.3433914185
        2.0660851002,        0.3995705843,-0.2580821514,-0.0711951852,-30.3384017944,4.4780006409,77.3433914185
        2.0689311028,        0.3995705843,-0.2580821514,-0.0711951852,-34.3056869507,5.0730934143,68.0507888794
        2.0716011524,        0.3995705843,-0.2580821514,-0.0726600289,-34.3056869507,5.0730934143,68.0507888794
        2.0743501186,        0.4274026155,-0.2873790264,-0.0726600289,-36.8233871460,5.8665504456,59.1701698303
        2.0769240856,        0.4274026155,-0.2873790264,-0.0726600289,-36.8233871460,5.8665504456,59.1701698303
        2.0795881748,        0.4274026155,-0.2873790264,-0.0726600289,-37.3574447632,6.2022438049,50.4421424866
        2.0821561813,        0.4274026155,-0.2976329327,-0.0711951852,-37.3574447632,6.2022438049,50.4421424866
        2.0847220421,        0.4488869905,-0.2976329327,-0.0711951852,-39.6920394897,6.7820777893,41.3326454163
        2.0872921944,        0.4488869905,-0.2976329327,-0.0711951852,-39.6920394897,6.7820777893,41.3326454163
        2.0898840427,        0.4488869905,-0.2976329327,-0.0711951852,-41.7061996460,7.2703590393,32.8487586975
        2.0924491882,        0.5738869905,-0.2639415264,-0.0633826852,-41.7061996460,7.2703590393,32.8487586975
        2.0951352119,        0.4566994905,-0.2639415264,-0.0633826852,-43.7966537476,7.5144996643,24.8378963470
        2.0977520943,        0.4566994905,-0.2639415264,-0.0633826852,-43.7966537476,7.5144996643,24.8378963470
        2.1003141403,        0.4566994905,-0.2639415264,-0.0633826852,-43.7966537476,6.1869850159,17.0711727142
        2.1028840542,        0.4811135530,-0.2419688553,-0.0462928414,-46.5890121460,6.1869850159,17.0711727142
        2.1054530144,        0.4811135530,-0.2419688553,-0.0462928414,-46.5890121460,6.1869850159,9.5180711746
        2.1080272198,        0.4811135530,-0.2419688553,-0.0462928414,-48.4048080444,5.3324928284,9.5180711746
        2.1105980873,        0.4811135530,-0.2419688553,-0.0462928414,-48.4048080444,5.3324928284,2.5142874718
        2.1131629944,        0.5040627718,-0.2263438553,-0.0428748727,-48.3285140991,5.2561988831,2.5142874718
        2.1157321930,        0.5040627718,-0.2263438553,-0.0428748727,-48.3285140991,5.2561988831,-5.2982125282
        2.1184501648,        0.5040627718,-0.2263438553,-0.0428748727,-46.7110824585,5.6224098206,-4.6115670204
        2.1210160255,        0.5040627718,-0.2263438553,-0.0428748727,-46.7110824585,5.6224098206,-4.6115670204
        2.1235849857,        0.5323830843,-0.2077891678,-0.0433631539,-43.5982894897,5.8818092346,-12.8207960129
        2.1261551380,        0.5323830843,-0.2077891678,-0.0433631539,-43.5982894897,5.8818092346,-12.8207960129
        2.1289141178,        0.5323830843,-0.2077891678,-0.0433631539,-40.0429916382,5.0883522034,-21.3199405670
        2.1316220760,        0.5323830843,-0.2077891678,-0.0433631539,-40.0429916382,5.0883522034,-21.3199405670
        2.1343321800,        0.5553323030,-0.2370860428,-0.0448279977,-37.1590805054,4.4017066956,-29.1476993561
        2.1370401382,        0.5553323030,-0.2370860428,-0.0448279977,-37.1590805054,4.4017066956,-29.1476993561
        2.1397571564,        0.5553323030,-0.2370860428,-0.0448279977,-33.9394760132,4.7526588440,-37.6773643494
        2.1424651146,        0.5553323030,-0.3620860577,-0.0340858102,-33.9394760132,4.7526588440,-37.6773643494
        2.1451711655,        0.5367776155,-0.2785899639,-0.0340858102,-30.7656478882,4.9662818909,-45.7645225525
        2.1478641033,        0.5367776155,-0.2785899639,-0.0340858102,-30.7656478882,4.9662818909,-45.7645225525
        2.1504340172,        0.5367776155,-0.2785899639,-0.0340858102,-28.4157943726,5.1951637268,-52.1579551697
        2.1530070305,        0.5367776155,-0.2629649639,-0.0335975289,-28.4157943726,5.1951637268,-52.1579551697
        2.1555831432,        0.5030862093,-0.2629649639,-0.0335975289,-27.7596664429,5.2104225159,-57.8342247009
        2.1583161354,        0.5030862093,-0.2629649639,-0.0335975289,-27.7596664429,5.2104225159,-57.8342247009
        2.1610240936,        0.5030862093,-0.2629649639,-0.0335975289,-25.8828353882,5.1036109924,-63.8919639587
        2.1637320518,        0.5187112093,-0.2615001202,-0.0311561227,-25.8828353882,5.1036109924,-63.8919639587
        2.1664412022,        0.5187112093,-0.2615001202,-0.0311561227,-25.0588607788,5.6071510315,-70.2548751831
        2.1692061424,        0.5187112093,-0.2615001202,-0.0311561227,-25.0588607788,5.6071510315,-70.2548751831
        2.1719090939,        0.5187112093,-0.2615001202,-0.0311561227,-26.3253402710,5.8970680237,-75.3970870972
        2.1746110916,        0.5231057405,-0.2429454178,-0.0423865914,-26.3253402710,5.8970680237,-75.3970870972
        2.1773200035,        0.5231057405,-0.2429454178,-0.0423865914,-28.6141586304,6.4921607971,-80.7376632690
        2.1800370216,        0.5231057405,-0.2429454178,-0.0423865914,-28.6141586304,6.4921607971,-80.7376632690
        2.1827430725,        0.5231057405,-0.1179454178,-0.0492225289,-31.2081527710,6.4463844299,-86.1850509644
        2.1855580807,        0.5304299593,-0.2102305740,-0.0492225289,-31.2081527710,6.4463844299,-86.1850509644
        2.1885700226,        0.5304299593,-0.2102305740,-0.0492225289,-32.6882553101,5.9581031799,-90.7321701050
        2.1912791729,        0.5304299593,-0.2102305740,-0.0492225289,-32.6882553101,5.9581031799,-90.7321701050
        2.1939880848,        0.5470315218,-0.2234141678,-0.0506873727,-34.0615463257,6.2327613831,-96.4236984253
        2.1966969967,        0.5470315218,-0.2234141678,-0.0506873727,-34.0615463257,6.2327613831,-96.4236984253
        2.1993200779,        0.5470315218,-0.2234141678,-0.0506873727,-37.5405502319,6.7820777893,-101.5811691284
        2.2018980980,        0.5470315218,-0.2234141678,-0.0506873727,-37.5405502319,6.7820777893,-101.5811691284
        2.2044742107,        0.5021096468,-0.2365977615,-0.0584998727,-40.5465316772,6.9346656799,-107.0590744019
        2.2070491314,        0.5021096468,-0.2365977615,-0.0584998727,-40.5465316772,6.9346656799,-107.0590744019
        2.2097821236,        0.5021096468,-0.2365977615,-0.0584998727,-43.5830307007,7.4534645081,-111.8045578003
        2.2124969959,        0.5021096468,-0.2365977615,-0.0584998727,-43.5830307007,7.4534645081,-111.8045578003
        2.2152040005,        0.4938088655,-0.2185313553,-0.0526404977,-47.0009994507,7.7586402893,-115.8633956909
        2.2179391384,        0.4938088655,-0.2185313553,-0.0526404977,-47.0009994507,7.7586402893,-115.8633956909
        2.2205140591,        0.4938088655,-0.2185313553,-0.0526404977,-49.6102523804,8.3995094299,-119.8764572144
        2.2231941223,        0.4938088655,-0.2185313553,-0.0399451852,-49.6102523804,8.3995094299,-119.8764572144
        2.2257661819,        0.4791604280,-0.1574961990,-0.0399451852,-52.6620101929,9.1319313049,-123.1113204956
        2.2283561230,        0.4791604280,-0.1574961990,-0.0399451852,-52.6620101929,9.1319313049,-123.1113204956
        2.2309319973,        0.4791604280,-0.1574961990,-0.0399451852,-52.6620101929,8.8114967346,-127.0480880737
        2.2335031033,        0.4791604280,-0.0886485428,-0.0218787789,-53.0129623413,8.8114967346,-127.0480880737
        2.2360780239,        0.4923440218,-0.0886485428,-0.0218787789,-53.0129623413,8.7352027893,-130.5881347656
        2.2388021946,        0.4923440218,-0.0886485428,-0.0218787789,-51.4565658569,8.7352027893,-130.5881347656
        2.2413752079,        0.4923440218,-0.0886485428,-0.0218787789,-51.4565658569,8.7352027893,-133.4567871094
        2.2439520359,        0.4923440218,-0.0251719803,-0.0091834664,-49.7475814819,8.8877906799,-133.4567871094
        2.2465231419,        0.4664651155,-0.0251719803,-0.0091834664,-49.7475814819,8.8877906799,-136.0812988281
        2.2491970062,        0.4664651155,-0.0251719803,-0.0091834664,-49.2440414429,9.1014137268,-136.0812988281
        2.2517731190,        0.4664651155,-0.0251719803,-0.0091834664,-49.2440414429,9.1014137268,-136.0812988281
        2.2543430328,        0.4234963655,0.0129139572,0.0054649711,-49.4424057007,9.2692604065,-137.9428710938
        2.2569200993,        0.4234963655,0.0129139572,0.0054649711,-49.4424057007,9.2692604065,-137.9428710938
        2.2596120834,        0.4234963655,0.0129139572,0.0054649711,-49.3966293335,9.2234840393,-139.6976318359
        2.2623231411,        0.4234963655,0.0129139572,0.0054649711,-49.3966293335,9.2234840393,-139.6976318359
        2.2650301456,        0.4234963655,0.0553944260,0.0132774711,-49.5186996460,9.2082252502,-140.5368652344
        2.2677512169,        0.4234963655,0.0553944260,0.0132774711,-49.5186996460,9.2082252502,-140.5368652344
        2.2704591751,        0.4234963655,0.0553944260,0.0132774711,-50.2358627319,8.9640846252,-141.6812744141
        2.2733001709,        0.4234963655,0.0553944260,0.0132774711,-50.2358627319,8.9640846252,-141.6812744141
        2.2758769989,        0.3858987093,0.1042225510,0.0171837211,-50.1443099976,9.0403785706,-142.2000732422
        2.2786681652,        0.3858987093,0.1042225510,0.0171837211,-50.1443099976,9.0403785706,-142.2000732422
        2.2813410759,        0.3858987093,0.1042225510,0.0171837211,-49.3508529663,9.0403785706,-142.1390380859
        2.2843811512,        0.3483010530,0.1877186447,0.0259727836,-49.3508529663,9.0403785706,-142.1390380859
        2.2870681286,        0.3483010530,0.1877186447,0.0259727836,-47.9317855835,9.4065895081,-142.6578369141
        2.2897131443,        0.3483010530,0.1877186447,0.0259727836,-47.9317855835,9.4065895081,-142.6578369141
        2.2922921181,        0.3483010530,0.1877186447,0.0259727836,-46.0091781616,9.4981422424,-142.1390380859
        2.2948641777,        0.3107033968,0.2292225510,0.0230430961,-46.0091781616,9.4981422424,-142.1390380859
        2.2974860668,        0.3107033968,0.2292225510,0.0230430961,-44.3917465210,10.0321998596,-140.9641113281
        2.3000650406,        0.3107033968,0.2292225510,0.0230430961,-44.3917465210,10.0321998596,-140.9641113281
        2.3026390076,        0.3107033968,0.2292225510,0.0230430961,-47.0620346069,9.9711647034,-138.5837402344
        2.3052191734,        0.2911721468,0.2424061447,0.0264610648,-47.0620346069,9.9711647034,-138.5837402344
        2.3078000546,        0.2911721468,0.2424061447,0.0264610648,-50.6020736694,9.5896949768,-136.3712158203
        2.3103761673,        0.2911721468,0.2424061447,0.0264610648,-50.6020736694,9.5896949768,-136.3712158203
        2.3129510880,        0.2911721468,0.2424061447,0.0264610648,-51.7617416382,9.8643531799,-134.6164550781
        2.3155241013,        0.2911721468,0.3298084736,0.0254845023,-51.7617416382,9.8643531799,-134.6164550781
        2.3181400299,        0.2911721468,0.3298084736,0.0254845023,-51.3955307007,10.3221168518,-132.5870361328
        2.3207180500,        0.2911721468,0.3298084736,0.0254845023,-51.3955307007,10.3221168518,-132.5870361328
        2.3232960701,        0.2911721468,0.3298084736,0.0254845023,-51.3955307007,9.7728004456,-129.8404541016
        2.3258759975,        0.2814065218,0.3952381611,0.0464805961,-50.7394027710,9.7728004456,-129.8404541016
        2.3286402225,        0.2814065218,0.3952381611,0.0464805961,-50.7394027710,9.7728004456,-127.1396408081
        2.3312110901,        0.2814065218,0.3952381611,0.0464805961,-49.6712875366,9.2540016174,-127.1396408081
        2.3337922096,        0.2814065218,0.3952381611,0.0464805961,-49.6712875366,9.2540016174,-123.9963302612
        2.3363690376,        0.2399026155,0.4474842548,0.0645470023,-47.3214340210,9.1624488831,-123.9963302612
        2.3390741348,        0.2399026155,0.4474842548,0.0645470023,-47.3214340210,9.1624488831,-116.1838302612
        2.3416521549,        0.2399026155,0.4474842548,0.0645470023,-44.6358871460,8.6131324768,-119.5560226440
        2.3442270756,        0.2399026155,0.4474842548,0.0762657523,-44.6358871460,8.6131324768,-119.5560226440
        2.3468000889,        0.1793557405,0.4758045673,0.0762657523,-41.9198226929,9.1777076721,-114.4595870972
        2.3494861126,        0.1793557405,0.4758045673,0.0762657523,-41.9198226929,9.1777076721,-114.4595870972
        2.3520591259,        0.1793557405,0.4758045673,0.0762657523,-40.7143783569,9.2387428284,-108.4781417847
        2.3546390533,        0.1793557405,0.4909412861,0.0469688773,-40.7143783569,9.2387428284,-108.4781417847
        2.3572142124,        0.1319924593,0.4909412861,0.0469688773,-40.4092025757,9.5134010315,-102.4509201050
        2.3598351479,        0.1319924593,0.4909412861,0.0469688773,-40.4092025757,9.5134010315,-102.4509201050
        2.3624141216,        0.1319924593,0.4909412861,0.0469688773,-40.4702377319,10.3984107971,-96.5152511597
        2.3649880886,        0.1319924593,0.5505115986,0.0210899711,-40.4702377319,10.3984107971,-96.5152511597
        2.3675711155,        0.1412698030,0.5505115986,0.0210899711,-39.4936752319,10.4441871643,-91.3882980347
        2.3702840805,        0.1412698030,0.5505115986,0.0210899711,-39.4936752319,10.4441871643,-91.3882980347
        2.3730001450,        0.1412698030,0.5505115986,0.0210899711,-38.9596176147,11.0392799377,-86.0934982300
        2.3758060932,        0.1173440218,0.5881092548,0.0337852836,-38.9596176147,11.0392799377,-86.0934982300
        2.3784940243,        0.1173440218,0.5881092548,0.0337852836,-38.0593490601,11.3597145081,-80.2951583862
        2.3811671734,        0.1173440218,0.5881092548,0.0337852836,-38.0593490601,11.3597145081,-80.2951583862
        2.3843832016,        0.1173440218,0.5881092548,0.0337852836,-37.4337387085,11.6954078674,-74.1763839722
        2.3869550228,        0.0821877718,0.5431873798,0.0284141898,-37.4337387085,11.6954078674,-74.1763839722
        2.3896260262,        0.0821877718,0.5431873798,0.0284141898,-36.8081283569,12.1836891174,-67.7371749878
        2.3921999931,        0.0821877718,0.5431873798,0.0284141898,-36.8081283569,12.1836891174,-67.7371749878
        2.3947710991,        0.0821877718,0.5431873798,0.0162071586,-37.1133041382,12.1684303284,-61.1453819275
        2.3973410130,        0.0987893343,0.4972889423,0.0162071586,-37.1133041382,12.1684303284,-61.1453819275
        2.3999261856,        0.0987893343,0.4972889423,0.0162071586,-37.5558090210,12.1226539612,-54.0500450134
        2.4024980068,        0.0987893343,0.4972889423,0.0162071586,-37.5558090210,12.1226539612,-54.0500450134
        2.4050722122,        0.0987893343,0.4972889423,0.0313438773,-37.5558090210,11.7717018127,-47.5803184509
        2.4077031612,        0.1344338655,0.4528553486,0.0313438773,-37.6626205444,11.7717018127,-47.5803184509
        2.4102799892,        0.1344338655,0.4528553486,0.0313438773,-37.6626205444,11.7717018127,-42.8500938416
        2.4129521847,        0.1344338655,0.4528553486,0.0313438773,-37.7236557007,11.1460914612,-42.8500938416
        2.4155271053,       -0.1155661345,0.5036365986,0.3448204398,-37.7236557007,11.1460914612,-37.3874473572
        2.4181561470,       -0.0603903532,0.5036365986,0.3448204398,-48.6489486694,2.1128883362,-37.3874473572
        2.4207251072,       -0.0603903532,0.5036365986,0.3448204398,-48.6489486694,2.1128883362,-29.5749454498
        2.4232921600,       -0.0603903532,0.5036365986,0.3448204398,-72.7120590210,-11.6505393982,-26.6299991608
        2.4258642197,       -0.2156637907,1.3468983173,0.6934532523,-72.7120590210,-11.6505393982,0.7137502432
        2.4285960197,       -0.2156637907,1.3468983173,0.6934532523,-66.0134506226,-10.9638938904,-2.4143013954
        2.4311621189,       -0.2156637907,1.3468983173,0.6934532523,-66.0134506226,-10.9638938904,-2.4143013954
        2.4337291718,       -0.2156637907,1.3468983173,0.6934532523,-19.8098373413,-10.5366477966,24.6242733002
        2.4362981319,       -0.5110739470,2.4806873798,0.4200157523,-19.8098373413,-10.5366477966,24.6242733002
        2.4390110970,       -0.5110739470,2.4806873798,0.4200157523,20.9158706665,-12.6881370544,32.5893592834
        2.4415810108,       -0.5110739470,2.4806873798,0.4200157523,20.9158706665,-12.6881370544,32.5893592834
        2.4441530704,       -0.5110739470,2.4806873798,0.4200157523,40.0351333618,-6.5388450623,29.3697566986
        2.4467191696,       -0.2376364470,0.9172108173,-0.1610389352,40.0351333618,-6.5388450623,29.3697566986
        2.4492959976,       -0.2376364470,0.9172108173,-0.1610389352,35.4422378540,1.0752905607,32.1773719788
        2.4518661499,       -0.2376364470,0.9172108173,-0.1610389352,35.4422378540,1.0752905607,32.1773719788
        2.4544351101,       -0.2376364470,0.9172108173,-0.1610389352,11.1349859238,3.4251441956,41.2716102600
        2.4570062160,       -0.0804098845,-0.0329844803,-0.4134803414,11.1349859238,3.4251441956,41.2716102600
        2.4597420692,       -0.0804098845,-0.0329844803,-0.4134803414,0.2096929550,0.0682104826,51.0372352600
        2.4624471664,       -0.0804098845,-0.0329844803,-0.4134803414,0.2096929550,0.0682104826,51.0372352600
        2.4651432037,       -0.0804098845,-0.0329844803,-0.0384803414,7.6407232285,-7.8205833435,57.4917030334
        2.4678502083,        0.0221291780,-0.1032969803,-0.0145545602,7.6407232285,-7.8205833435,57.4917030334
        2.4705572128,        0.0221291780,-0.1032969803,-0.0145545602,11.9894781113,-8.5377464294,59.1549110413
        2.4732680321,        0.0221291780,-0.1032969803,-0.0145545602,11.9894781113,-8.5377464294,59.1549110413
        2.4759712219,        0.0221291780,-0.0901133865,0.0420860648,11.4096441269,-3.4107933044,54.8824501038
        2.4790210724,        0.0992776155,-0.0901133865,0.0420860648,11.4096441269,-3.4107933044,54.8824501038
        2.4816951752,        0.0992776155,-0.0901133865,0.0420860648,9.9448003769,-2.1290550232,48.9010047913
        2.4849040508,        0.0992776155,-0.0901133865,0.0420860648,9.9448003769,-2.1290550232,48.9010047913
        2.4875040054,        0.1358987093,-0.2478282303,-0.0487342477,8.5409917831,-3.7922630310,45.3762245178
        2.4900732040,        0.1358987093,-0.2478282303,-0.0487342477,8.5409917831,-3.7922630310,45.3762245178
        2.4926431179,        0.1358987093,-0.2478282303,-0.0487342477,4.9246587753,-4.2195091248,42.5380897522
        2.4952151775,        0.1358987093,-0.2478282303,-0.0487342477,4.9246587753,-4.2195091248,42.5380897522
        2.4977900982,        0.1466408968,-0.4074962139,-0.0379920602,-2.8878412247,-3.2124290466,39.0590858459
        2.5003631115,        0.1466408968,-0.4074962139,-0.0379920602,-0.2480707169,-3.2124290466,39.0590858459
        2.5029320717,        0.1466408968,-0.4074962139,-0.0379920602,-0.2480707169,-2.2663841248,35.7937049866
        2.5054981709,        0.1466408968,-0.4074962139,-0.1629920602,-3.0862054825,-2.2663841248,35.7937049866
        2.5081369877,        0.1647073030,-0.2751719952,-0.0668006539,-3.0862054825,-2.2663841248,36.1446571350
        2.5107040405,        0.1647073030,-0.2751719952,-0.0668006539,-3.0251703262,-5.0740013123,36.1446571350
        2.5132741928,        0.1647073030,-0.2751719952,-0.0668006539,-3.0251703262,-5.0740013123,40.0509071350
        2.5158441067,        0.1647073030,-0.2751719952,0.0782188773,-3.3608636856,-11.6963157654,37.5026893616
        2.5184180737,        0.2628518343,0.1149647385,0.0782188773,-3.3608636856,-11.6963157654,37.5026893616
        2.5209960938,        0.2628518343,0.1149647385,0.0782188773,-2.6437005997,-14.9464378357,35.7174110413
        2.5235631466,        0.2628518343,0.1149647385,0.0782188773,-2.6437005997,-14.9464378357,35.7174110413
        2.5261311531,        0.2628518343,0.3649647236,0.0772423148,2.5442876816,-15.5873069763,32.2078895569
        2.5288591385,        0.1969338655,0.3136951923,0.0772423148,2.5442876816,-15.5873069763,32.2078895569
        2.5314271450,        0.1969338655,0.3136951923,0.0772423148,3.4292974472,-15.6025657654,29.8122615814
        2.5339970589,        0.1969338655,0.3136951923,0.0772423148,3.4292974472,-15.6025657654,29.8122615814
        2.5365722179,        0.1969338655,0.2580311298,-0.0296912789,1.6745367050,-14.8091087341,29.9495906830
        2.5392310619,        0.1207619905,0.2580311298,-0.0296912789,1.6745367050,-14.8091087341,29.9495906830
        2.5419201851,        0.1207619905,0.2580311298,-0.0296912789,-1.4077386856,-12.2914085388,29.9648494720
        2.5444910526,        0.1207619905,0.2580311298,-0.0296912789,-1.4077386856,-12.2914085388,29.9648494720
        2.5470561981,        0.1129494905,0.1178944260,-0.1283240914,-1.0415277481,-10.0331077576,30.1174373627
        2.5496871471,        0.1129494905,0.1178944260,-0.1283240914,-1.0415277481,-10.0331077576,30.1174373627
        2.5522511005,        0.1129494905,0.1178944260,-0.1283240914,0.7590093613,-9.3464622498,29.6291561127
        2.5548160076,        0.1129494905,0.1178944260,-0.1283240914,0.7590093613,-9.3464622498,29.6291561127
        2.5573861599,        0.1017190218,0.0417225510,-0.1356483102,0.7590093613,-7.6679954529,28.7746639252
        2.5599930286,        0.1017190218,0.0417225510,-0.1356483102,1.7508306503,-7.6679954529,28.7746639252
        2.5625631809,        0.1017190218,0.0417225510,-0.1356483102,1.7508306503,-7.6679954529,27.2335262299
        2.5651249886,        0.1017190218,0.0417225510,-0.1356483102,2.7579107285,-6.4625511169,27.2335262299
        2.5677480698,       -0.0520895720,0.0568592697,-0.0165076852,2.7579107285,-6.4625511169,25.4482479095
        2.5704741478,       -0.0520895720,0.0568592697,-0.0165076852,-2.2622308731,-4.3263206482,25.4482479095
        2.5731761456,       -0.0520895720,0.0568592697,-0.0165076852,-2.2622308731,-4.3263206482,25.4940242767
        2.5758759975,       -0.0520895720,0.0568592697,-0.0165076852,-6.2142572403,-1.9764672518,25.4940242767
        2.5786001682,       -0.1092184782,0.0466053635,0.0552696586,-6.2142572403,-1.9764672518,25.4482479095
        2.5815010071,       -0.1092184782,0.0466053635,0.0552696586,-11.0207757950,-2.4037132263,25.4482479095
        2.5841910839,       -0.1092184782,0.0466053635,0.0552696586,-11.0207757950,-2.4037132263,24.6700496674
        2.5868830681,       -0.1092184782,0.0651600510,0.0699180961,-15.4000482559,-1.6560326815,24.6700496674
        2.5895800591,       -0.0779684782,0.0651600510,0.0699180961,-15.4000482559,-1.6560326815,22.9915828705
        2.5921680927,       -0.0779684782,0.0651600510,0.0699180961,-13.4011468887,-1.9001733065,22.9915828705
        2.5948851109,       -0.0779684782,0.0651600510,0.0699180961,-13.4011468887,-1.9001733065,19.0853328705
        2.5982160568,       -0.1038473845,0.1501209885,0.0704063773,-12.8365716934,-2.9225120544,20.8553524017
        2.6009662151,       -0.1038473845,0.1501209885,0.0704063773,-12.8365716934,-2.8462181091,18.3223934174
        2.6035330296,       -0.1038473845,0.1501209885,0.0704063773,-11.6311273575,-2.8462181091,18.3223934174
        2.6062099934,       -0.1038473845,0.1501209885,0.0704063773,-11.6311273575,-2.8462181091,15.2248582840
        2.6087841988,       -0.0520895720,0.1823475510,0.0655235648,-10.2425775528,-2.6020774841,15.2248582840
        2.6114900112,       -0.0520895720,0.1823475510,0.0655235648,-10.2425775528,-2.6020774841,12.2493944168
        2.6140530109,       -0.0520895720,0.1823475510,0.0655235648,-9.4948968887,-2.7699241638,12.2493944168
        2.6166121960,       -0.0520895720,0.1823475510,0.0655235648,-9.4948968887,-2.7699241638,8.3431444168
        2.6191790104,        0.0372658968,0.1926014572,0.0498985648,-9.4643793106,-2.4952659607,8.8466844559
        2.6219260693,        0.0372658968,0.1926014572,0.0498985648,-9.4643793106,-2.4952659607,8.8466844559
        2.6244840622,        0.0372658968,0.1926014572,0.0498985648,-8.5335931778,-3.4107933044,5.7338919640
        2.6270470619,        0.0372658968,0.1926014572,0.0572227836,-8.5335931778,-3.4107933044,5.7338919640
        2.6296470165,        0.0816994905,0.2023670822,0.0572227836,-7.3586664200,-4.4941673279,2.8347220421
        2.6323339939,        0.0816994905,0.2023670822,0.0572227836,-7.3586664200,-4.4941673279,2.8347220421
        2.6348960400,        0.0816994905,0.2023670822,0.0572227836,-6.9466791153,-4.8603782654,0.1033986807
        2.6374862194,        0.0816994905,0.1686756760,0.0572227836,-6.9466791153,-4.8603782654,0.1033986807
        2.6400511265,        0.0743752718,0.1686756760,0.0572227836,-6.3973627090,-5.3334007263,-2.2769722939
        2.6426160336,        0.0743752718,0.1686756760,0.0572227836,-6.3973627090,-5.3334007263,-2.2769722939
        2.6451752186,        0.0743752718,0.1686756760,0.0572227836,-6.7330560684,-5.7606468201,-3.5892281532
        2.6478691101,        0.0743752718,0.1218006760,0.0777305961,-6.7330560684,-5.7606468201,-3.5892281532
        2.6504290104,        0.0382424593,0.1218006760,0.0777305961,-7.7401361465,-6.0505638123,-4.9320015907
        2.6529932022,        0.0382424593,0.1218006760,0.0777305961,-7.7401361465,-6.0505638123,-4.9320015907
        2.6555531025,        0.0382424593,0.1218006760,0.0777305961,-11.6463861465,-6.3709983826,-5.4660592079
        2.6582410336,        0.0231057405,0.0920155197,0.0992149711,-8.7929925919,-6.3709983826,-5.4660592079
        2.6608071327,        0.0231057405,0.0920155197,0.0992149711,-8.7929925919,-6.1268577576,-5.9238228798
        2.6633679867,        0.0231057405,0.0920155197,0.0992149711,-9.4948968887,-6.1268577576,-5.9238228798
        2.6659300327,        0.0231057405,0.0920155197,0.0992149711,-9.4948968887,-6.1268577576,-6.8393502235
        2.6686270237,        0.0436135530,0.1169178635,0.0987266898,-9.9068841934,-5.9132347107,-6.8393502235
        2.6713221073,        0.0436135530,0.1169178635,0.0987266898,-9.9068841934,-5.9132347107,-7.9685006142
        2.6738851070,        0.0436135530,0.1169178635,0.0987266898,-9.2049798965,-5.6385765076,-7.9685006142
        2.6764461994,        0.0436135530,0.1169178635,0.0987266898,-9.2049798965,-5.6385765076,-7.9685006142
        2.6791470051,        0.0333596468,0.1301014572,0.0674766898,-8.9303216934,-4.9214134216,-9.7842969894
        2.6818521023,        0.0333596468,0.1301014572,0.0674766898,-8.9303216934,-4.9214134216,-13.6905469894
        2.6845550537,        0.0333596468,0.1301014572,0.0674766898,-9.1592035294,-4.2500267029,-11.5390577316
        2.6872510910,        0.0333596468,0.1301014572,0.0674766898,-9.1592035294,-4.2500267029,-11.5390577316
        2.6899681091,        0.0538674593,0.1408436447,0.0494102836,-9.1744623184,-3.6549339294,-12.6224317551
        2.6926691532,        0.0538674593,0.1408436447,0.0494102836,-9.1744623184,-3.6549339294,-16.5286808014
        2.6953761578,        0.0538674593,0.1408436447,0.0494102836,-9.4186029434,-2.9682884216,-14.8196973801
        2.6981379986,        0.0538674593,0.1144764572,0.0669884086,-9.4186029434,-2.9682884216,-14.8196973801
        2.7008371353,        0.0484963655,0.1144764572,0.0669884086,-9.9679193497,-1.7170678377,-15.8267774582
        2.7035460472,        0.0484963655,0.1144764572,0.0669884086,-9.9679193497,-1.7170678377,-15.8267774582
        2.7062439919,        0.0484963655,0.1144764572,0.0669884086,-10.4256830215,-1.1219750643,-16.1929874420
        2.7089600563,        0.0226174593,0.0651600510,0.0616173148,-10.4256830215,-1.1219750643,-16.1929874420
        2.7116692066,        0.0226174593,0.0651600510,0.0616173148,-11.7379388809,-0.6947289705,-16.6049747467
        2.7144892216,        0.0226174593,0.0651600510,0.0616173148,-11.7379388809,-0.6947289705,-16.6049747467
        2.7176201344,        0.0226174593,0.0651600510,0.0616173148,-12.4093255997,-0.1301537752,-16.8033390045
        2.7201981544,       -0.0037497282,0.0705311447,0.0567345023,-12.4093255997,-0.1301537752,-17.0779972076
        2.7227680683,       -0.0037497282,0.0705311447,0.0567345023,-12.1957025528,0.1139868498,-17.0779972076
        2.7253420353,       -0.0037497282,0.0705311447,0.0567345023,-12.1957025528,0.1139868498,-17.0779972076
        2.7279720306,       -0.0037497282,0.0705311447,0.0357384086,-11.2954339981,0.4801977873,-17.7951602936
        2.7306761742,       -0.0188864470,0.0563709885,0.0357384086,-11.2954339981,0.4801977873,-17.7951602936
        2.7334921360,       -0.0188864470,0.0563709885,0.0357384086,-10.4562005997,0.6327856779,-18.4055118561
        2.7361881733,       -0.0188864470,0.0563709885,0.0357384086,-10.4562005997,0.6327856779,-14.4992628098
        2.7389440536,        0.0113869905,0.0705311447,0.0303673148,-10.0289545059,0.2665747404,-17.8104190826
        2.7416441441,        0.0113869905,0.0705311447,0.0303673148,-10.0289545059,0.2665747404,-17.8104190826
        2.7443470955,        0.0113869905,0.0705311447,0.0303673148,-9.6322259903,-0.6489526033,-17.8714542389
        2.7470560074,        0.0113869905,0.0705311447,0.0303673148,-9.6322259903,-0.6489526033,-17.8714542389
        2.7496562004,        0.0406838655,0.1144764572,0.0489220023,-9.0829095840,-0.8167992830,-18.8022403717
        2.7522351742,        0.0406838655,0.1144764572,0.0489220023,-9.0829095840,-0.8167992830,-18.8022403717
        2.7548041344,        0.0406838655,0.1144764572,0.0489220023,-7.9385004044,-0.8320580721,-20.4196720123
        2.7573730946,        0.0406838655,0.1144764572,0.0489220023,-7.9385004044,-0.8320580721,-20.4196720123
        2.7599530220,        0.0582619905,0.1042225510,0.0425743461,-7.4349603653,-0.5879174471,-21.6098575592
        2.7625260353,        0.0582619905,0.1042225510,0.0425743461,-7.4349603653,-0.5879174471,-21.6098575592
        2.7650921345,        0.0582619905,0.1042225510,0.0425743461,-7.9842767715,-0.5879174471,-23.1662540436
        2.7678401470,        0.0582619905,0.1042225510,0.0425743461,-7.9842767715,-0.5879174471,-23.1662540436
        2.7704491615,        0.0685158968,0.0685780197,0.0538048148,-7.8774652481,-0.9083520174,-24.5395450592
        2.7730231285,        0.0685158968,0.0685780197,0.0538048148,-7.8774652481,-0.9083520174,-24.5395450592
        2.7755939960,        0.0685158968,0.0685780197,0.0538048148,-7.7248773575,-1.2287865877,-25.7449893951
        2.7785379887,        0.0685158968,0.0685780197,0.0708946586,-7.7248773575,-1.2287865877,-25.7449893951
        2.7824440002,        0.0690041780,0.1022694260,0.0708946586,-6.8551263809,-1.1067162752,-27.1182804108
        2.7852430344,        0.0690041780,0.1022694260,0.0708946586,-6.8551263809,-1.1067162752,-27.1182804108
        2.7879531384,        0.0690041780,0.1022694260,0.0708946586,-6.3058099747,-0.6642113924,-28.8577823639
        2.7906460762,        0.0587502718,0.1134998947,0.0489220023,-6.3058099747,-0.6642113924,-28.8577823639
        2.7933320999,        0.0587502718,0.1134998947,0.0489220023,-5.5428705215,-1.0304223299,-30.2615909576
        2.7960240841,        0.0587502718,0.1134998947,0.0489220023,-5.5428705215,-1.0304223299,-30.2615909576
        2.7988810539,        0.0587502718,0.1134998947,0.0230430961,-5.1766595840,-1.0609399080,-31.1771183014
        2.8015720844,        0.0411721468,0.0876209885,0.0230430961,-5.1766595840,-1.0609399080,-31.1771183014
        2.8042590618,        0.0411721468,0.0876209885,0.0230430961,-5.1461420059,-0.8320580721,-32.0010948181
        2.8069372177,        0.0411721468,0.0876209885,0.0230430961,-5.1461420059,-0.8320580721,-32.0010948181
        2.8096351624,        0.0411721468,0.0676014572,0.0577110648,-5.0851068497,-0.4658471346,-32.5809288025
        2.8123281002,        0.0411721468,0.0676014572,0.0577110648,-5.0851068497,-0.4658471346,-32.5809288025
        2.8150150776,        0.0411721468,0.0676014572,0.0577110648,-4.7951898575,-0.9083520174,-33.5269737244
        2.8177480698,        0.0411721468,0.0676014572,0.0577110648,-4.7951898575,-0.9083520174,-33.5269737244
        2.8204309940,        0.0240823030,0.0568592697,0.0796837211,-4.2000970840,-0.8625756502,-33.6185264587
        2.8231101036,        0.0240823030,0.0568592697,0.0796837211,-4.2000970840,-0.8625756502,-33.6185264587
        2.8257980347,        0.0240823030,0.0568592697,0.0796837211,-3.6660394669,-1.0304223299,-34.1831016541
        2.8285400867,        0.0240823030,0.0568592697,0.0796837211,-3.6660394669,-1.0304223299,-34.1831016541
        2.8312470913,       -0.0013083220,0.0221913010,0.0738243461,-3.4218988419,-1.3355981112,-34.3051719666
        2.8341891766,       -0.0013083220,0.0221913010,0.0738243461,-3.4218988419,-1.3355981112,-34.3051719666
        2.8368740082,       -0.0013083220,0.0221913010,0.0738243461,-1.9875726700,-1.3355981112,-34.3204307556
        2.8398621082,        0.0221291780,0.0461170822,0.0601524711,-1.9875726700,-1.3355981112,-34.7324180603
        2.8425660133,        0.0221291780,0.0461170822,0.0601524711,-1.0720453262,-1.4729272127,-34.7324180603
        2.8452680111,        0.0221291780,0.0461170822,0.0601524711,-1.0720453262,-1.4729272127,-34.7324180603
