time, acceleration x, acceleration y, acceleration z, gyro x gyro y, gyro z
        0.0000000000,        0.0073350221,0.0037774444,0.0037542433,-0.2016165107,-0.8042775393,-0.0243823528
        0.0026898384,        0.0073350221,0.0037774444,0.0037542433,0.5765817165,-1.0941945314,-0.1006762981
        0.0053758621,        0.0073350221,0.0037774444,0.0037542433,0.5765817165,-1.0941945314,-0.1006762981
        0.0080778599,        0.0073350221,0.0037774444,0.0037542433,0.3782174587,-1.0331593752,-0.0854175091
        0.0107710361,        0.0053818971,0.0018243194,0.0081487745,0.3782174587,-1.0331593752,-0.0854175091
        0.0134618282,        0.0053818971,0.0018243194,0.0081487745,0.4697701931,-0.6822072268,-0.0548999310
        0.0161569118,        0.0053818971,0.0018243194,0.0081487745,0.4697701931,-0.6822072268,-0.0548999310
        0.0188109875,        0.0053818971,0.0018243194,0.0081487745,0.4697701931,-1.0026417971,-0.2837817669
        0.0213708878,        0.0112412721,0.0037774444,0.0052190870,0.7139108181,-1.0026417971,-0.2837817669
        0.0239338875,        0.0112412721,0.0037774444,0.0052190870,0.7139108181,-1.0026417971,-0.2074878216
        0.0264940262,        0.0112412721,0.0037774444,0.0052190870,0.5613229275,-1.3535939455,-0.2074878216
        0.0291788578,        0.0112412721,0.0037774444,0.0052190870,0.5613229275,-1.3535939455,-0.1311938763
        0.0317430496,        0.0161240846,0.0003594756,0.0047308058,0.7139108181,-1.5977345705,-0.1311938763
        0.0342988968,        0.0161240846,0.0003594756,0.0047308058,0.7139108181,-1.5977345705,-0.1311938763
        0.0368700027,        0.0161240846,0.0003594756,0.0047308058,0.5918405056,-1.4298878908,-0.2532641888
        0.0395328999,        0.0161240846,0.0003594756,0.0052190870,0.5918405056,-1.4298878908,-0.2532641888
        0.0420958996,        0.0107529908,0.0047540069,0.0052190870,0.6376168728,-1.5824757814,-0.1769702435
        0.0449390411,        0.0107529908,0.0047540069,0.0052190870,0.6376168728,-1.5824757814,-0.1769702435
        0.0475080013,        0.0107529908,0.0047540069,0.0052190870,0.1493356377,-1.5672169924,-0.1006762981
        0.0505490303,        0.0171006471,0.0052422881,0.0018011183,0.1493356377,-1.5672169924,-0.1006762981
        0.0534119606,        0.0171006471,0.0052422881,0.0018011183,0.1188180596,-1.5519582033,-0.3295581341
        0.0561099052,        0.0171006471,0.0052422881,0.0018011183,0.1188180596,-1.5519582033,-0.5584399700
        0.0588638783,        0.0171006471,0.0052422881,0.0018011183,0.9580514431,-1.8418751955,-0.5584399700
        0.0615599155,        0.0171006471,-0.0025702119,-0.0011285692,0.9580514431,-1.8418751955,-0.5584399700
        0.0642590523,        0.0171006471,-0.0025702119,-0.0011285692,1.3242623806,-1.5672169924,-0.5279223919
        0.0669560432,        0.0171006471,-0.0025702119,-0.0011285692,1.3242623806,-1.5672169924,-0.5279223919
        0.0696630478,        0.0171006471,-0.0025702119,0.0032659620,0.7596871853,-1.1552296877,-0.4821460247
        0.0723669529,        0.0141709596,0.0003594756,0.0032659620,0.7596871853,-1.1552296877,-0.4821460247
        0.0750589371,        0.0141709596,0.0003594756,0.0032659620,0.8970162868,-1.1247121096,-0.3905932903
        0.0777938366,        0.0141709596,0.0003594756,0.0032659620,0.8970162868,-1.1247121096,-0.3905932903
        0.0803630352,        0.0141709596,-0.0011053681,-0.0016168505,0.9122750759,-1.3078175783,-0.3142993450
        0.0829269886,        0.0073350221,-0.0011053681,-0.0016168505,0.9122750759,-1.3078175783,-0.3142993450
        0.0854959488,        0.0073350221,-0.0011053681,-0.0016168505,0.8817574978,-1.1094533205,-0.2990405560
        0.0881009102,        0.0073350221,-0.0011053681,-0.0016168505,0.8817574978,-1.1094533205,-0.2990405560
        0.0906670094,        0.0073350221,0.0032891631,-0.0069879442,0.6223580837,-0.9416066408,-0.4363696575
        0.0932328701,        0.0146592408,0.0032891631,-0.0069879442,0.6223580837,-0.9416066408,-0.4363696575
        0.0957958698,        0.0146592408,0.0032891631,-0.0069879442,0.8207223415,-0.6516896486,-0.4974048138
        0.0984098911,        0.0146592408,0.0032891631,-0.0069879442,0.8207223415,-0.6516896486,-0.4974048138
        0.1009838581,        0.0078233033,-0.0001288056,-0.0006402880,0.3934762478,-0.7585011721,-0.4211108685
        0.1035518646,        0.0078233033,-0.0001288056,-0.0006402880,0.3934762478,-0.7585011721,-0.4211108685
        0.1061229706,        0.0078233033,-0.0001288056,-0.0006402880,0.3476998806,-0.7585011721,-0.8178393841
        0.1089680195,        0.0078233033,-0.0001288056,-0.0006402880,0.3476998806,-0.7585011721,-0.8178393841
        0.1115419865,        0.0161240846,-0.0015936494,-0.0030816942,0.5460641384,-0.8958302736,-0.4211108685
        0.1141078472,        0.0161240846,-0.0015936494,-0.0030816942,0.5460641384,-0.8958302736,-0.4211108685
        0.1167800426,        0.0161240846,-0.0015936494,-0.0030816942,0.3019235134,-1.0484181643,-0.4974048138
        0.1195960045,        0.0161240846,-0.0015936494,-0.0030816942,0.3019235134,-1.0484181643,-0.4974048138
        0.1222519875,        0.0087998658,0.0062188506,0.0061956495,0.6070992947,-0.6822072268,-0.5889575481
        0.1256978512,        0.0087998658,0.0062188506,0.0061956495,0.6070992947,-0.6822072268,-0.5889575481
        0.1283249855,        0.0087998658,0.0062188506,0.0061956495,0.4087350368,-0.5753957033,-0.3753345013
        0.1308879852,        0.0087998658,-0.0011053681,-0.0025934130,0.4087350368,-0.5753957033,-0.3753345013
        0.1334500313,        0.0122178346,-0.0011053681,-0.0025934130,0.1493356377,-0.5296193361,-0.1464526653
        0.1360130310,        0.0122178346,-0.0011053681,-0.0025934130,0.1493356377,-0.5296193361,-0.1464526653
        0.1386308670,        0.0122178346,-0.0011053681,-0.0025934130,4.0555858612,-0.8347951174,-0.6347339153
        0.1411900520,        0.0122178346,-0.0001288056,0.0052190870,0.6681344509,-0.8347951174,-0.6347339153
        0.1437468529,        0.0009873658,-0.0001288056,0.0052190870,0.6681344509,-0.8347951174,-0.6499927044
        0.1463060379,        0.0009873658,-0.0001288056,0.0052190870,0.4545114040,-0.7432423830,-0.6499927044
        0.1490130424,        0.0009873658,-0.0001288056,0.0052190870,0.4545114040,-0.7432423830,-0.5736987591
        0.1515698433,        0.0083115846,0.0008477569,-0.0045465380,0.4545114040,-0.6516896486,-0.5736987591
        0.1541278362,        0.0083115846,0.0008477569,-0.0045465380,0.4545114040,-0.6516896486,-0.5736987591
        0.1566908360,        0.0083115846,0.0008477569,-0.0045465380,0.7596871853,-0.8195363283,-0.3600757122
        0.1592559814,        0.0083115846,0.0008477569,-0.0045465380,0.7596871853,-0.8195363283,-0.3600757122
        0.1618168354,        0.0024522096,0.0067071319,0.0066839308,0.7139108181,-0.9263478518,-0.6652514935
        0.1643738747,        0.0024522096,0.0067071319,0.0066839308,0.7139108181,-0.9263478518,-0.6652514935
        0.1669359207,        0.0024522096,0.0067071319,0.0066839308,0.4087350368,-1.0331593752,-0.5736987591
        0.1695499420,        0.0024522096,0.0067071319,0.0066839308,0.4087350368,-1.0331593752,-0.5736987591
        0.1721138954,        0.0004990846,0.0018243194,0.0135198683,0.5918405056,-0.8195363283,-0.5431811810
        0.1746768951,        0.0004990846,0.0018243194,0.0135198683,0.5918405056,-0.8195363283,-0.5431811810
        0.1772458553,        0.0004990846,0.0018243194,0.0135198683,0.6681344509,-0.5448781252,-0.5889575481
        0.1800279617,        0.0004990846,0.0018243194,0.0135198683,0.6681344509,-0.5448781252,-0.5889575481
        0.1825959682,        0.0044053346,0.0037774444,0.0061956495,0.1798532158,-0.4380666018,-0.3905932903
        0.1851608753,        0.0044053346,0.0037774444,0.0061956495,0.1798532158,-0.4380666018,-0.3905932903
        0.1877248287,        0.0044053346,0.0037774444,0.0061956495,0.1645944268,-0.4685841799,-0.2837817669
        0.1904878616,        0.0044053346,0.0037774444,0.0061956495,0.1645944268,-0.4685841799,-0.2837817669
        0.1931838989,        0.0024522096,0.0018243194,0.0037542433,0.1798532158,-0.5906544924,-0.3295581341
        0.1958768368,        0.0024522096,0.0018243194,0.0037542433,0.1798532158,-0.5906544924,-0.3295581341
        0.1985809803,        0.0024522096,0.0018243194,0.0037542433,0.3171823025,-0.3312550783,-0.5584399700
        0.2012779713,        0.0024522096,0.0018243194,0.0032659620,0.3171823025,-0.3312550783,-0.5584399700
        0.2039699554,       -0.0029188842,-0.0035467744,0.0032659620,0.1951120049,-0.0718556494,-0.2685229778
        0.2066669464,       -0.0029188842,-0.0035467744,0.0032659620,0.1951120049,-0.0718556494,-0.2685229778
        0.2093679905,       -0.0029188842,-0.0035467744,0.0032659620,0.1951120049,-0.3465138674,-0.0396411419
        0.2120659351,        0.0039170533,0.0037774444,0.0105901808,0.1951120049,-0.3465138674,-0.0396411419
        0.2147610188,        0.0039170533,0.0037774444,0.0105901808,-3.7111380100,-0.5753957033,-0.5431811810
        0.2174589634,        0.0039170533,0.0037774444,0.0105901808,0.1340768486,-0.5753957033,-0.5431811810
        0.2200598717,        0.0039170533,0.0037774444,0.0105901808,0.1340768486,-0.4533253908,-0.3142993450
        0.2226250172,        0.0053818971,0.0003594756,0.0008245558,0.6376168728,-0.4533253908,-0.3142993450
        0.2251868248,        0.0053818971,0.0003594756,0.0008245558,0.6376168728,-0.4533253908,-0.0243823528
        0.2277810574,        0.0053818971,0.0003594756,0.0008245558,0.2561471462,-0.1176320165,-0.0243823528
        0.2303428650,        0.0053818971,0.0003594756,0.0008245558,0.2561471462,-0.1176320165,-0.0243823528
        0.2329089642,        0.0048936158,-0.0025702119,0.0032659620,0.1340768486,-0.0260792822,0.2044994831
        0.2356929779,        0.0048936158,-0.0025702119,0.0032659620,0.1340768486,-0.0260792822,0.2044994831
        0.2384698391,        0.0048936158,-0.0025702119,0.0032659620,0.0120065361,-0.1634083837,-0.0701587200
        0.2411808968,        0.0048936158,-0.0025702119,0.0032659620,0.0120065361,-0.1634083837,-0.0701587200
        0.2439830303,        0.0019639283,0.0057305694,0.0022893995,0.0272653252,-0.2397023290,-0.0091235638
        0.2466809750,        0.0019639283,0.0057305694,0.0022893995,0.0272653252,-0.2397023290,-0.0091235638
        0.2493879795,        0.0019639283,0.0057305694,0.0022893995,0.1798532158,-0.0871144384,-0.0091235638
        0.2520899773,        0.0019639283,-0.0035467744,0.0091253370,0.1798532158,-0.0871144384,0.1739819050
        0.2547888756,        0.0058701783,-0.0035467744,0.0091253370,0.0577829033,0.1570261866,0.1739819050
        0.2574808598,        0.0058701783,-0.0035467744,0.0091253370,0.0577829033,0.1570261866,0.1739819050
        0.2601819038,        0.0058701783,-0.0035467744,0.0091253370,-0.2016165107,0.3706492186,0.2350170612
        0.2628819942,        0.0014756471,-0.0035467744,0.0096136183,-0.2016165107,0.3706492186,0.2350170612
        0.2655830383,        0.0014756471,-0.0035467744,0.0096136183,-0.2473928779,0.2790964842,0.1739819050
        0.2682738304,        0.0014756471,-0.0035467744,0.0096136183,-0.2473928779,0.2790964842,0.1739819050
        0.2708458900,        0.0014756471,-0.0035467744,0.0096136183,-0.5373098850,-0.0413380712,0.1587231159
        0.2734129429,        0.0097764283,0.0115899444,-0.0025934130,-0.5373098850,-0.0413380712,0.1587231159
        0.2759828568,        0.0097764283,0.0115899444,-0.0025934130,-0.2779104710,0.1417673975,0.2807934284
        0.2785558701,        0.0097764283,0.0115899444,-0.0025934130,-0.2779104710,0.1417673975,0.2807934284
        0.2811179161,        0.0097764283,0.0115899444,-0.0025934130,-0.2473928779,0.4469431639,0.2197582722
        0.2836849689,        0.0039170533,0.0018243194,0.0003362745,-0.2473928779,0.4469431639,0.2197582722
        0.2862479687,        0.0039170533,0.0018243194,0.0003362745,0.4392526150,-0.1328908056,-0.2532641888
        0.2889728546,        0.0039170533,0.0018243194,0.0003362745,0.4392526150,-0.1328908056,-0.2532641888
        0.2915349007,        0.0039170533,0.0018243194,0.0003362745,0.0120065361,0.2180613428,0.2044994831
        0.2941000462,        0.0073350221,-0.0001288056,0.0144964308,0.0120065361,0.2180613428,0.2044994831
        0.2966718674,        0.0073350221,-0.0001288056,0.0144964308,-0.2321340889,0.5232371092,0.0976879597
        0.2994568348,        0.0073350221,-0.0001288056,0.0144964308,-0.2321340889,0.5232371092,0.0976879597
        0.3021569252,        0.0073350221,-0.0001288056,0.0022893995,-0.3084280491,0.3553904295,0.0976879597
        0.3048479557,        0.0131943971,0.0081719756,0.0022893995,-0.3084280491,0.3553904295,0.0976879597
        0.3076539040,        0.0131943971,0.0081719756,0.0022893995,-0.1253225654,0.6300486326,0.2197582722
        0.3103599548,        0.0131943971,0.0081719756,0.0022893995,-0.1253225654,0.6300486326,0.2197582722
        0.3130578995,        0.0180772096,0.0023126006,0.0018011183,-0.2321340889,0.1875437647,0.2350170612
        0.3158178329,        0.0180772096,0.0023126006,0.0018011183,-0.2321340889,0.1875437647,0.2350170612
        0.3185939789,        0.0180772096,0.0023126006,0.0018011183,-0.2016165107,0.8894480467,0.1892406940
        0.3212568760,        0.0180772096,0.0023126006,0.0018011183,-0.2016165107,0.8894480467,0.1892406940
        0.3244738579,        0.0083115846,0.0057305694,0.0037542433,-0.0642874092,0.5690134764,0.2807934284
        0.3270349503,        0.0083115846,0.0057305694,0.0037542433,-0.0642874092,0.5690134764,0.2807934284
        0.3296530247,        0.0083115846,0.0057305694,0.0037542433,-0.0948049873,0.4622019529,0.3113110065
        0.3322210312,        0.0083115846,0.0057305694,0.0037542433,-0.0948049873,0.4622019529,0.3113110065
        0.3347790241,        0.0073350221,-0.0074530244,0.0042425245,-0.2931692600,0.4622019529,0.2655346394
        0.3373470306,        0.0073350221,-0.0074530244,0.0042425245,-0.2931692600,0.4622019529,0.2655346394
        0.3399670124,        0.0073350221,-0.0074530244,0.0042425245,-0.2931692600,0.3248728514,0.1434643269
        0.3425190449,        0.0073350221,-0.0074530244,0.0037542433,-0.6593801975,0.3248728514,0.1434643269
        0.3450858593,        0.0068467408,-0.0025702119,0.0037542433,-0.6593801975,0.3248728514,0.2350170612
        0.3476469517,        0.0068467408,-0.0025702119,0.0037542433,-0.5373098850,0.2943552732,0.2350170612
        0.3502240181,        0.0068467408,-0.0025702119,0.0037542433,-0.5373098850,0.2943552732,0.3723461628
        0.3527929783,        0.0068467408,-0.0025702119,0.0086370558,-0.6441214085,0.5690134764,0.3723461628
        0.3553578854,        0.0039170533,0.0057305694,0.0086370558,-0.6441214085,0.5690134764,0.3723461628
        0.3579230309,        0.0039170533,0.0057305694,0.0086370558,-1.0713675022,0.4622019529,0.2197582722
        0.3604838848,        0.0039170533,0.0057305694,0.0086370558,-1.0713675022,0.4622019529,0.2197582722
        0.3630440235,        0.0039170533,0.0052422881,0.0013128370,-0.8730032444,0.4316843748,-0.2532641888
        0.3656108379,        0.0102647096,0.0052422881,0.0013128370,-0.8730032444,0.4316843748,-0.2532641888
        0.3682379723,        0.0102647096,0.0052422881,0.0013128370,-0.8882620335,0.6605662107,0.2044994831
        0.3708999157,        0.0102647096,0.0052422881,0.0013128370,-0.8882620335,0.6605662107,0.2044994831
        0.3734698296,        0.0102647096,-0.0006170869,-0.0064996630,-0.8577444553,0.5842722654,0.2807934284
        0.3760290146,        0.0097764283,-0.0006170869,-0.0064996630,-0.8577444553,0.5842722654,0.2807934284
        0.3787598610,        0.0097764283,-0.0006170869,-0.0064996630,-0.4915335178,0.4622019529,0.0061352253
        0.3813240528,        0.0097764283,-0.0006170869,-0.0064996630,-0.4915335178,0.4622019529,0.0061352253
        0.3838829994,        0.0146592408,0.0062188506,-0.0064996630,-0.0337698311,0.2485789210,0.0519115925
        0.3864510059,        0.0146592408,0.0062188506,-0.0064996630,-0.0337698311,0.2485789210,0.0519115925
        0.3890860081,        0.0146592408,0.0062188506,-0.0064996630,-0.3694632053,0.5995310545,0.2044994831
        0.3916440010,        0.0146592408,0.0062188506,-0.0064996630,-0.3694632053,0.5995310545,0.2044994831
        0.3942129612,        0.0112412721,0.0032891631,0.0057073683,-0.3694632053,0.8436716795,0.0519115925
        0.3967709541,        0.0112412721,0.0032891631,0.0057073683,-0.2931692600,0.8436716795,0.0519115925
        0.3996279240,        0.0112412721,0.0032891631,0.0057073683,-0.2931692600,0.8436716795,0.1587231159
        0.4021959305,        0.0112412721,0.0032891631,0.0057073683,-0.2168752998,0.5537546873,0.1587231159
        0.4047620296,        0.0117295533,0.0067071319,0.0081487745,-0.2168752998,0.5537546873,0.0213940144
        0.4073328972,        0.0117295533,0.0067071319,0.0081487745,-0.3847219944,0.2638376951,0.0213940144
        0.4101719856,        0.0117295533,0.0067071319,0.0081487745,-0.3847219944,0.2638376951,0.0824291706
        0.4128339291,        0.0117295533,0.0067071319,0.0037542433,-0.1100637764,0.1875437647,0.0824291706
        0.4157629013,        0.0097764283,0.0028008819,0.0037542433,-0.1100637764,0.1875437647,0.1892406940
        0.4184439182,        0.0097764283,0.0028008819,0.0037542433,-0.0642874092,0.1875437647,0.1892406940
        0.4210119247,        0.0097764283,0.0028008819,0.0037542433,-0.0642874092,0.1875437647,0.0061352253
        0.4235758781,        0.0097764283,-0.0030584931,0.0047308058,-0.2016165107,0.2028025538,0.0061352253
        0.4261479378,        0.0063584596,-0.0030584931,0.0047308058,-0.2016165107,0.2028025538,0.0061352253
        0.4287798405,        0.0063584596,-0.0030584931,0.0047308058,-0.0795461982,0.3859080076,0.2502758503
        0.4314789772,        0.0063584596,-0.0030584931,0.0047308058,-0.0795461982,0.3859080076,0.2502758503
        0.4341819286,        0.0078233033,0.0062188506,0.0042425245,0.3324410915,0.1417673975,0.0061352253
        0.4369938374,        0.0078233033,0.0062188506,0.0042425245,0.3324410915,0.1417673975,0.0061352253
        0.4397058487,        0.0078233033,0.0062188506,0.0042425245,0.5918405056,-0.3159962893,-0.5584399700
        0.4428498745,        0.0078233033,0.0062188506,0.0096136183,0.4239938259,-0.3007375002,-0.3600757122
        0.4461538792,        0.0141709596,0.0032891631,0.0096136183,0.4239938259,-0.3007375002,-0.3600757122
        0.4488239288,        0.0141709596,0.0032891631,0.0096136183,0.4239938259,-0.2854787111,-0.6499927044
        0.4513888359,        0.0141709596,0.0032891631,0.0096136183,0.4850289822,-0.2854787111,-0.6499927044
        0.4539489746,        0.0141709596,0.0013360381,0.0037542433,0.4850289822,-0.2854787111,-0.2227466106
        0.4565169811,        0.0083115846,0.0013360381,0.0037542433,0.3629586697,-0.0718556494,-0.2227466106
        0.4591569901,        0.0083115846,0.0013360381,0.0037542433,0.3629586697,-0.0718556494,-0.2685229778
        0.4618539810,        0.0083115846,0.0013360381,0.0037542433,0.2408883721,-0.2397023290,-0.2685229778
        0.4645550251,        0.0034287721,0.0018243194,0.0096136183,0.2408883721,-0.2397023290,-0.4516284466
        0.4672489166,        0.0034287721,0.0018243194,0.0096136183,0.6223580837,-0.6669484377,-0.4516284466
        0.4698588848,        0.0034287721,0.0018243194,0.0096136183,0.6223580837,-0.6669484377,-0.4516284466
        0.4724259377,        0.0034287721,0.0018243194,0.0096136183,0.7139108181,-0.3159962893,-0.2227466106
        0.4749920368,        0.0097764283,0.0003594756,-0.0011285692,0.7139108181,-0.3159962893,-0.2227466106
        0.4775600433,        0.0097764283,0.0003594756,-0.0011285692,0.4239938259,-0.2091847509,0.1282055378
        0.4801690578,        0.0097764283,0.0003594756,-0.0011285692,0.4239938259,-0.2091847509,0.1282055378
        0.4827349186,        0.0097764283,0.0003594756,-0.0011285692,0.3476998806,-0.4075490236,-0.0091235638
        0.4853010178,        0.0034287721,0.0003594756,-0.0079645067,0.3476998806,-0.4075490236,-0.0091235638
        0.4879310131,        0.0034287721,0.0003594756,-0.0079645067,0.5765817165,-0.4533253908,-0.2837817669
        0.4905128479,        0.0034287721,0.0003594756,-0.0079645067,0.5765817165,-0.4533253908,-0.2837817669
        0.4930789471,        0.0034287721,0.0003594756,-0.0079645067,0.4392526150,-0.4991017580,-0.2532641888
        0.4956438541,        0.0034287721,0.0018243194,0.0022893995,0.4392526150,-0.4991017580,-0.2532641888
        0.4984538555,        0.0034287721,0.0018243194,0.0022893995,0.6833932400,-0.3312550783,-0.6499927044
        0.5012760162,        0.0034287721,0.0018243194,0.0022893995,0.6833932400,-0.3312550783,-0.6499927044
        0.5039749146,        0.0034287721,0.0018243194,0.0032659620,0.1493356377,-0.3770314455,-0.1159350872
        0.5066728592,        0.0019639283,-0.0020819306,0.0032659620,0.1493356377,-0.3770314455,-0.1159350872
        0.5093789101,        0.0019639283,-0.0020819306,0.0032659620,-0.2168752998,-0.3007375002,0.0671703815
        0.5120749474,        0.0019639283,-0.0020819306,0.0032659620,-0.2168752998,-0.3007375002,0.0671703815
        0.5147700310,        0.0019639283,0.0032891631,0.0105901808,0.1188180596,-0.2549611330,-0.2227466106
        0.5174648762,        0.0000108033,0.0032891631,0.0105901808,0.1188180596,-0.2549611330,-0.2227466106
        0.5200619698,        0.0000108033,0.0032891631,0.0105901808,0.2561471462,-0.6211720705,-0.2990405560
        0.5226199627,        0.0000108033,0.0032891631,0.0105901808,0.2561471462,-0.6211720705,-0.2990405560
        0.5251829624,        0.0068467408,0.0052422881,0.0125433058,0.3476998806,-0.3312550783,-0.3142993450
        0.5277869701,        0.0068467408,0.0052422881,0.0125433058,0.3476998806,-0.3312550783,-0.3142993450
        0.5303540230,        0.0068467408,0.0052422881,0.0125433058,0.3476998806,-0.2397023290,-0.1311938763
        0.5329179764,        0.0068467408,0.0052422881,0.0125433058,0.1340768486,-0.2397023290,-0.1311938763
        0.5354819298,       -0.0043837279,0.0018243194,0.0096136183,0.1340768486,-0.2397023290,-0.1922290325
        0.5381100178,       -0.0043837279,0.0018243194,0.0096136183,-0.0185110420,-0.0871144384,-0.1922290325
        0.5408070087,       -0.0043837279,0.0018243194,0.0096136183,-0.0185110420,-0.0871144384,-0.0854175091
        0.5435059071,       -0.0043837279,0.0018243194,0.0096136183,-0.3389456272,0.2028025538,-0.0854175091
        0.5462038517,        0.0092881471,0.0037774444,0.0081487745,-0.3389456272,0.2028025538,0.0213940144
        0.5489208698,        0.0092881471,0.0037774444,0.0081487745,-0.5373098850,0.0044382960,0.0213940144
        0.5516140461,        0.0092881471,0.0037774444,0.0081487745,-0.5373098850,0.0044382960,0.1587231159
        0.5544128418,        0.0092881471,0.0037774444,0.0101018995,-0.2473928779,-0.2549611330,0.1587231159
        0.5571179390,        0.0083115846,0.0067071319,0.0101018995,-0.2473928779,-0.2549611330,-0.2837817669
        0.5597598553,        0.0083115846,0.0067071319,0.0101018995,0.6681344509,-0.5143605471,-0.2837817669
        0.5623319149,        0.0083115846,0.0067071319,0.0101018995,0.6681344509,-0.5143605471,-0.2837817669
        0.5650069714,        0.0083115846,0.0057305694,0.0008245558,0.3782174587,-0.3770314455,-0.0396411419
        0.5675709248,        0.0063584596,0.0057305694,0.0008245558,0.3782174587,-0.3770314455,-0.0396411419
        0.5703089237,        0.0063584596,0.0057305694,0.0008245558,0.2408883721,-0.5601369143,-0.2990405560
        0.5730059147,        0.0063584596,0.0057305694,0.0008245558,0.2408883721,-0.5601369143,-0.2990405560
        0.5757029057,        0.0083115846,0.0062188506,0.0057073683,1.0801217556,-0.4075490236,-0.4516284466
        0.5784020424,        0.0083115846,0.0062188506,0.0057073683,1.0801217556,-0.4075490236,-0.4516284466
        0.5810949802,        0.0083115846,0.0062188506,0.0057073683,0.9733102322,-0.5143605471,-0.3448169231
        0.5837979317,        0.0083115846,0.0062188506,0.0057073683,0.9733102322,-0.5143605471,-0.3448169231
        0.5864999294,        0.0092881471,0.0008477569,0.0086370558,0.2866647243,-0.6059132814,-0.6042163372
        0.5891380310,        0.0092881471,0.0008477569,0.0086370558,0.2866647243,-0.6059132814,-0.6042163372
        0.5917060375,        0.0092881471,0.0008477569,0.0086370558,0.3019235134,-0.7737599611,-0.1617114544
        0.5942709446,        0.0092881471,0.0008477569,0.0086370558,0.3019235134,-0.7737599611,-0.1617114544
        0.5968420506,        0.0117295533,0.0062188506,0.0057073683,0.4850289822,-0.9416066408,-0.0854175091
        0.5995299816,        0.0117295533,0.0062188506,0.0057073683,0.4850289822,-0.9416066408,-0.0854175091
        0.6020939350,        0.0117295533,0.0062188506,0.0057073683,0.5155465603,-0.7737599611,-0.0548999310
        0.6046609879,        0.0117295533,0.0062188506,0.0057073683,0.5155465603,-0.7737599611,-0.0548999310
        0.6072258949,        0.0127061158,0.0052422881,0.0057073683,0.6528756618,-0.7127248049,-0.3600757122
        0.6099100113,        0.0127061158,0.0052422881,0.0057073683,0.6528756618,-0.7127248049,-0.3600757122
        0.6124768257,        0.0127061158,0.0052422881,0.0057073683,0.6833932400,-0.6974660158,-0.3295581341
        0.6150410175,        0.0127061158,0.0052422881,0.0086370558,0.6833932400,-0.6974660158,-0.3295581341
        0.6176118851,        0.0127061158,0.0028008819,0.0086370558,0.2561471462,-0.1481495947,0.0061352253
        0.6203160286,        0.0127061158,0.0028008819,0.0086370558,0.2561471462,-0.1481495947,0.0061352253
        0.6230108738,        0.0127061158,0.0028008819,0.0086370558,0.2561471462,-0.5143605471,-0.1311938763
        0.6257119179,        0.0127061158,0.0062188506,-0.0060113817,0.2103707939,-0.5143605471,-0.1311938763
        0.6285550594,        0.0087998658,0.0062188506,-0.0060113817,0.8054635525,-0.9263478518,-0.4516284466
        0.6312489510,        0.0087998658,0.0062188506,-0.0060113817,0.8054635525,-0.9263478518,-0.4516284466
        0.6339468956,        0.0087998658,0.0062188506,-0.0060113817,0.9885690212,-0.4838429689,-0.2990405560
        0.6366388798,        0.0102647096,0.0042657256,0.0013128370,0.9885690212,-0.4838429689,-0.2990405560
        0.6393549442,        0.0102647096,0.0042657256,0.0013128370,0.9885690212,-0.4075490236,-0.3295581341
        0.6420509815,        0.0102647096,0.0042657256,0.0013128370,0.6986520290,-0.4075490236,-0.3295581341
        0.6447458267,        0.0102647096,0.0042657256,0.0013128370,0.6986520290,-0.6516896486,-0.4974048138
        0.6474499702,        0.0078233033,-0.0001288056,0.0081487745,0.6528756618,-0.6516896486,-0.4974048138
        0.6501560211,        0.0078233033,-0.0001288056,0.0081487745,0.7749459743,-0.5296193361,-0.4058520794
        0.6528978348,        0.0078233033,-0.0001288056,0.0081487745,0.7749459743,-0.5296193361,-0.4058520794
        0.6554648876,        0.0078233033,-0.0001288056,0.0061956495,0.7749459743,-0.3312550783,-0.3753345013
        0.6582038403,        0.0097764283,0.0047540069,0.0061956495,0.4239938259,-0.3312550783,-0.3753345013
        0.6607689857,        0.0097764283,0.0047540069,0.0061956495,0.4239938259,-0.3312550783,-0.2685229778
        0.6634190083,        0.0097764283,0.0047540069,0.0061956495,0.6986520290,-0.4838429689,-0.2685229778
        0.6659848690,        0.0097764283,0.0037774444,-0.0045465380,0.6986520290,-0.6211720705,-0.4058520794
        0.6689839363,        0.0078233033,0.0037774444,-0.0045465380,0.7596871853,-0.6211720705,-0.4058520794
        0.6716849804,        0.0078233033,0.0037774444,-0.0045465380,0.7596871853,-0.6211720705,-0.5126636028
        0.6743888855,        0.0078233033,0.0037774444,-0.0045465380,0.5002877712,-0.3922902346,-0.5126636028
        0.6770849228,        0.0092881471,0.0008477569,-0.0006402880,0.5002877712,-0.3922902346,-0.1769702435
        0.6797809601,        0.0092881471,0.0008477569,-0.0006402880,0.5460641384,-0.4533253908,-0.1769702435
        0.6824748516,        0.0092881471,0.0008477569,-0.0006402880,0.5460641384,-0.4533253908,-1.1077563763
        0.6851739883,        0.0092881471,0.0008477569,-0.0006402880,0.8054635525,-0.8805714846,-1.1077563763
        0.6878838539,        0.0053818971,0.0037774444,0.0091253370,0.8054635525,-0.8805714846,-0.8788745403
        0.6905798912,        0.0053818971,0.0037774444,0.0091253370,0.9580514431,-0.6211720705,-0.8788745403
        0.6933798790,        0.0053818971,0.0037774444,0.0091253370,0.9580514431,-0.6211720705,-0.4058520794
        0.6960780621,        0.0053818971,0.0037774444,0.0061956495,0.7291696072,-0.5143605471,-0.4058520794
        0.6987428665,        0.0053818971,0.0023126006,0.0061956495,0.7291696072,-0.5143605471,-0.4363696575
        0.7013108730,        0.0053818971,0.0023126006,0.0061956495,0.4087350368,-0.5906544924,-0.4363696575
        0.7038760185,        0.0053818971,0.0023126006,0.0061956495,0.4087350368,-0.5906544924,-0.4363696575
        0.7064378262,        0.0053818971,0.0042657256,-0.0011285692,0.5613229275,-0.5143605471,-0.6499927044
        0.7090468407,        0.0112412721,0.0042657256,-0.0011285692,0.5613229275,-0.5143605471,-0.6499927044
        0.7116110325,        0.0112412721,0.0042657256,-0.0011285692,0.5765817165,-0.6059132814,-0.6347339153
        0.7141740322,        0.0112412721,0.0042657256,-0.0011285692,0.5765817165,-0.6059132814,-0.6347339153
        0.7167370319,        0.0112412721,0.0003594756,-0.0040582567,0.3476998806,-0.5296193361,-0.9551684856
        0.7194030285,        0.0092881471,0.0003594756,-0.0040582567,0.3476998806,-0.5296193361,-0.9551684856
        0.7219710350,        0.0092881471,0.0003594756,-0.0040582567,0.5002877712,-0.4685841799,-1.0009448528
        0.7245328426,        0.0092881471,0.0003594756,-0.0040582567,0.5002877712,-0.4685841799,-1.0009448528
        0.7270970345,       -0.0024306029,-0.0020819306,0.0105901808,0.5308053493,-0.3465138674,-0.5126636028
        0.7298698425,       -0.0024306029,-0.0020819306,0.0105901808,0.5308053493,-0.3465138674,-0.5126636028
        0.7325689793,       -0.0024306029,-0.0020819306,0.0105901808,0.3782174587,-0.3007375002,-0.5431811810
        0.7352628708,       -0.0024306029,-0.0020819306,0.0105901808,0.3782174587,-0.3007375002,-0.5431811810
        0.7380118370,        0.0009873658,0.0062188506,0.0047308058,0.0883004814,0.0196970850,-0.3905932903
        0.7407088280,        0.0009873658,0.0062188506,0.0047308058,0.0883004814,0.0196970850,-0.3905932903
        0.7434039116,        0.0009873658,0.0062188506,0.0047308058,0.4087350368,-0.0413380712,-0.4211108685
        0.7460999489,        0.0009873658,0.0062188506,0.0047308058,0.4087350368,-0.0413380712,-0.4211108685
        0.7487978935,        0.0034287721,-0.0011053681,0.0086370558,0.6070992947,-0.1634083837,-0.5584399700
        0.7514939308,        0.0034287721,-0.0011053681,0.0086370558,0.6070992947,-0.1634083837,-0.5584399700
        0.7541899681,        0.0034287721,-0.0011053681,0.0086370558,0.2561471462,-0.1328908056,-0.7720630169
        0.7569918633,        0.0034287721,0.0023126006,-0.0030816942,0.2561471462,-0.1328908056,-0.7720630169
        0.7596149445,        0.0151475221,0.0023126006,-0.0030816942,0.6681344509,-0.1176320165,-0.8025805950
        0.7621819973,        0.0151475221,0.0023126006,-0.0030816942,0.6681344509,-0.1176320165,-0.8025805950
        0.7647500038,        0.0151475221,0.0023126006,-0.0030816942,0.7444283962,-0.1481495947,-0.7110278606
        0.7673099041,        0.0151475221,0.0023126006,0.0037542433,0.7444283962,-0.1481495947,-0.7110278606
        0.7699718475,        0.0014756471,0.0023126006,0.0037542433,0.7444283962,0.0044382960,-1.0314624310
        0.7725398540,        0.0014756471,0.0023126006,0.0037542433,0.4545114040,0.0044382960,-1.0314624310
        0.7751049995,        0.0014756471,0.0023126006,0.0037542433,0.4545114040,0.0044382960,-0.7568042278
        0.7776708603,        0.0083115846,0.0086602569,0.0032659620,0.7596871853,-0.1176320165,-0.7568042278
        0.7804129124,        0.0083115846,0.0086602569,0.0032659620,0.7596871853,-0.1176320165,-1.1230151653
        0.7830839157,        0.0083115846,0.0086602569,0.0032659620,0.7902047634,-0.1786671728,-1.1230151653
        0.7858698368,        0.0083115846,0.0086602569,0.0032659620,0.7902047634,-0.1786671728,-0.5279223919
        0.7888989449,        0.0029404908,0.0062188506,0.0013128370,0.3171823025,0.1875437647,-0.5279223919
        0.7916049957,        0.0029404908,0.0062188506,0.0013128370,-3.5890676975,0.1722849756,-0.4058520794
        0.7943029404,        0.0029404908,0.0062188506,0.0013128370,0.0425241143,0.1722849756,-0.4058520794
        0.7969968319,        0.0029404908,0.0062188506,0.0125433058,0.0425241143,0.3248728514,-1.1077563763
        0.7997100353,       -0.0029188842,0.0023126006,0.0125433058,0.3934762478,0.3248728514,-1.1077563763
        0.8024108410,       -0.0029188842,0.0023126006,0.0125433058,0.3934762478,0.0654734522,-0.8636157513
        0.8051018715,       -0.0029188842,0.0023126006,0.0125433058,0.8512399197,0.0654734522,-0.8636157513
        0.8078110218,        0.0039170533,0.0013360381,0.0047308058,0.8512399197,0.0044382960,-0.6499927044
        0.8105030060,        0.0039170533,0.0013360381,0.0047308058,0.5155465603,0.0044382960,-0.6499927044
        0.8132019043,        0.0039170533,0.0013360381,0.0047308058,0.5155465603,3.9106884003,-0.8636157513
        0.8158948421,        0.0039170533,0.0013360381,0.0047308058,0.2561471462,0.2333201319,-0.8636157513
        0.8185670376,        0.0092881471,0.0057305694,0.0105901808,0.2561471462,-3.6729297638,-0.8178393841
        0.8212389946,        0.0092881471,0.0057305694,0.0105901808,0.6833932400,0.1112498194,-0.8178393841
        0.8238070011,        0.0092881471,0.0057305694,0.0105901808,0.6833932400,0.1112498194,-0.6957690716
        0.8263709545,        0.0092881471,0.0057305694,0.0105901808,0.2714059353,0.0349558741,-0.6957690716
        0.8289458752,        0.0019639283,0.0047540069,0.0003362745,0.2714059353,0.0349558741,-0.6957690716
        0.8315110207,        0.0019639283,0.0047540069,0.0003362745,0.4697701931,-0.0871144384,-0.6194751263
        0.8340778351,        0.0019639283,0.0047540069,0.0003362745,0.4697701931,-0.0871144384,-0.6194751263
        0.8366429806,        0.0019639283,0.0047540069,0.0003362745,0.6833932400,0.1265086085,-0.3753345013
        0.8393499851,        0.0058701783,0.0013360381,0.0018011183,0.6833932400,0.1265086085,-0.3753345013
        0.8419189453,        0.0058701783,0.0013360381,0.0018011183,1.0038278103,0.0959910303,-0.4363696575
        0.8444869518,        0.0058701783,0.0013360381,0.0018011183,1.0038278103,0.0959910303,-0.4363696575
        0.8470549583,        0.0058701783,0.0013360381,0.0018011183,0.7596871853,-0.0871144384,-0.4668872356
        0.8498229980,        0.0063584596,0.0023126006,-0.0089410692,0.7596871853,-0.0871144384,-0.4668872356
        0.8525190353,        0.0063584596,0.0023126006,-0.0089410692,0.5002877712,0.2638376951,-0.4211108685
        0.8552069664,        0.0063584596,0.0023126006,-0.0089410692,0.5002877712,0.2638376951,-0.4211108685
        0.8579118252,        0.0063584596,0.0013360381,0.0115667433,0.5002877712,0.0502146631,-0.1617114544
        0.8604719639,        0.0034287721,0.0013360381,0.0115667433,0.5002877712,0.0502146631,-0.1617114544
        0.8630330563,        0.0034287721,0.0013360381,0.0115667433,0.7291696072,0.0044382960,-0.5126636028
        0.8655989170,        0.0034287721,0.0013360381,0.0115667433,0.7291696072,0.0044382960,-0.5126636028
        0.8681850433,        0.0034287721,0.0028008819,0.0027776808,1.0648629665,0.0959910303,-0.9093921185
        0.8708839417,        0.0078233033,0.0028008819,0.0027776808,1.0648629665,0.0959910303,-0.9093921185
        0.8735840321,        0.0078233033,0.0028008819,0.0027776808,1.0190865993,0.1112498194,-0.7568042278
        0.8762760162,        0.0078233033,0.0028008819,0.0027776808,1.0190865993,0.1112498194,-0.7568042278
        0.8789770603,        0.0024522096,0.0018243194,0.0066839308,0.7902047634,0.1417673975,-0.5736987591
        0.8816678524,        0.0024522096,0.0018243194,0.0066839308,0.7902047634,0.1417673975,-0.5736987591
        0.8844728470,        0.0024522096,0.0018243194,0.0066839308,1.0648629665,0.1570261866,-0.5431811810
        0.8871698380,        0.0024522096,0.0018243194,0.0066839308,1.0648629665,0.1570261866,-0.5431811810
        0.8898799419,        0.0078233033,0.0042657256,0.0042425245,0.8817574978,0.4011667967,-0.8330981731
        0.8925769329,        0.0078233033,0.0042657256,0.0042425245,0.8817574978,0.4011667967,-0.8330981731
        0.8952729702,        0.0078233033,0.0042657256,0.0042425245,1.0648629665,0.1875437647,-0.8636157513
        0.8980219364,        0.0078233033,0.0042657256,-0.0021051317,1.0648629665,0.1875437647,-0.8636157513
        0.9007229805,        0.0014756471,-0.0020819306,-0.0021051317,0.5308053493,0.1722849756,-0.8025805950
        0.9034178257,        0.0014756471,-0.0020819306,-0.0021051317,0.5308053493,0.1722849756,-0.8025805950
        0.9063270092,        0.0014756471,-0.0020819306,-0.0021051317,0.6528756618,0.1112498194,-0.6805102825
        0.9094119072,       -0.0038954467,0.0081719756,-0.0025934130,0.6528756618,0.1112498194,-0.6805102825
        0.9119830132,       -0.0038954467,0.0081719756,-0.0025934130,0.4545114040,0.1875437647,-0.5279223919
        0.9145498276,       -0.0038954467,0.0081719756,-0.0025934130,0.4545114040,0.1875437647,-0.5279223919
        0.9171109200,       -0.0038954467,0.0081719756,-0.0025934130,0.8817574978,0.4622019529,-1.0162036419
        0.9197838306,        0.0039170533,0.0081719756,-0.0021051317,0.8817574978,0.4622019529,-1.0162036419
        0.9224760532,        0.0039170533,0.0081719756,-0.0021051317,1.2021920681,0.7978953123,-0.6499927044
        0.9251718521,        0.0039170533,0.0081719756,-0.0021051317,1.2021920681,0.7978953123,-0.6499927044
        0.9278779030,        0.0039170533,0.0081719756,-0.0021051317,1.2021920681,0.4164255857,-0.2837817669
        0.9305739403,        0.0034287721,0.0028008819,-0.0001520067,1.2021920681,0.4164255857,-0.2837817669
        0.9332699776,        0.0034287721,0.0028008819,-0.0001520067,1.2021920681,0.7521189451,-0.8178393841
        0.9359669685,        0.0034287721,0.0028008819,-0.0001520067,1.2174508572,0.7521189451,-0.8178393841
        0.9386420250,        0.0034287721,0.0018243194,0.0008245558,1.2174508572,0.5537546873,-0.9399096966
        0.9412109852,        0.0044053346,0.0018243194,0.0008245558,1.0190865993,0.5537546873,-0.9399096966
        0.9437780380,        0.0044053346,0.0018243194,0.0008245558,1.0190865993,0.5537546873,-0.8788745403
        0.9463379383,        0.0044053346,0.0018243194,0.0008245558,0.1645944268,0.4469431639,-0.8788745403
        0.9490249157,        0.0044053346,-0.0015936494,-0.0001520067,0.1645944268,0.4469431639,-0.6957690716
        0.9515929222,        0.0009873658,-0.0015936494,-0.0001520067,0.5002877712,0.7673777342,-0.6957690716
        0.9541599751,        0.0009873658,-0.0015936494,-0.0001520067,0.5002877712,0.7673777342,-0.6957690716
        0.9567248821,        0.0009873658,-0.0015936494,-0.0001520067,0.8359811306,0.7521189451,-0.7720630169
        0.9594099522,        0.0048936158,0.0032891631,-0.0030816942,0.8359811306,0.7521189451,-0.7720630169
        0.9619798660,        0.0048936158,0.0032891631,-0.0030816942,0.8207223415,0.6758249998,-0.8330981731
        0.9645469189,        0.0048936158,0.0032891631,-0.0030816942,0.8207223415,0.6758249998,-0.8330981731
        0.9671099186,        0.0048936158,0.0032891631,-0.0030816942,0.9733102322,0.6910837889,-0.6652514935
        0.9698679447,        0.0014756471,-0.0015936494,0.0008245558,0.9733102322,0.6910837889,-0.6652514935
        0.9725630283,        0.0014756471,-0.0015936494,0.0008245558,0.6986520290,0.6910837889,-0.6194751263
        0.9752588272,        0.0014756471,-0.0015936494,0.0008245558,0.6986520290,0.6910837889,-0.6194751263
        0.9780089855,        0.0014756471,-0.0015936494,0.0008245558,0.5460641384,0.7673777342,-0.5126636028
        0.9807028770,        0.0014756471,0.0071954131,0.0013128370,0.5460641384,0.7673777342,-0.5126636028
        0.9833979607,        0.0014756471,0.0071954131,0.0013128370,0.3934762478,0.7521189451,-0.5431811810
        0.9860918522,        0.0014756471,0.0071954131,0.0013128370,0.3934762478,0.7521189451,-0.5431811810
        0.9887928963,        0.0014756471,0.0071954131,-0.0021051317,0.3629586697,0.9047068357,-0.7720630169
        0.9914908409,        0.0073350221,0.0008477569,-0.0021051317,0.3629586697,0.9047068357,-0.7720630169
        0.9941868782,        0.0073350221,0.0008477569,-0.0021051317,0.4239938259,0.5842722654,-0.9399096966
        0.9968819618,        0.0073350221,0.0008477569,-0.0021051317,0.4239938259,0.5842722654,-0.9399096966
        0.9995100498,        0.0073350221,0.0047540069,0.0003362745,0.8207223415,0.6147898436,-0.8330981731
        1.0020718575,        0.0087998658,0.0047540069,0.0003362745,0.8207223415,0.6147898436,-0.8330981731
        1.0046420097,        0.0087998658,0.0047540069,0.0003362745,0.7291696072,0.5079783201,-0.6042163372
        1.0072059631,        0.0087998658,0.0047540069,0.0003362745,0.7291696072,0.5079783201,-0.6042163372
        1.0099189281,        0.0039170533,-0.0030584931,0.0022893995,0.6681344509,0.4469431639,-0.8941333294
        1.0127048492,        0.0039170533,-0.0030584931,0.0022893995,0.6681344509,0.4469431639,-0.8941333294
        1.0153889656,        0.0039170533,-0.0030584931,0.0022893995,0.5613229275,0.4622019529,-0.6957690716
        1.0180890560,        0.0039170533,-0.0030584931,0.0022893995,0.5613229275,0.4622019529,-0.6957690716
        1.0207729340,        0.0068467408,0.0028008819,-0.0040582567,0.8664987087,0.5537546873,-0.8178393841
        1.0234508514,        0.0068467408,0.0028008819,-0.0040582567,0.8664987087,0.5537546873,-0.8178393841
        1.0262188911,        0.0068467408,0.0028008819,-0.0040582567,0.4239938259,0.7216013670,-0.4821460247
        1.0292458534,        0.0068467408,0.0028008819,0.0071722120,0.4239938259,0.7216013670,-0.4821460247
        1.0319349766,        0.0058701783,-0.0045233369,0.0071722120,0.6986520290,0.6605662107,-0.7568042278
        1.0346138477,        0.0058701783,-0.0045233369,0.0071722120,0.6986520290,0.6605662107,-0.7568042278
        1.0372948647,        0.0058701783,-0.0045233369,0.0071722120,1.1258981228,0.6147898436,-1.1230151653
        1.0399620533,        0.0058701783,0.0071954131,0.0042425245,1.1258981228,0.6147898436,-1.1230151653
        1.0426218510,        0.0092881471,0.0071954131,0.0042425245,1.1411569118,0.5995310545,-0.4363696575
        1.0452809334,        0.0092881471,0.0071954131,0.0042425245,1.1411569118,0.5995310545,-0.4363696575
        1.0480070114,        0.0092881471,0.0071954131,0.0042425245,0.7596871853,0.3859080076,-0.3905932903
        1.0507009029,        0.0014756471,-0.0025702119,0.0091253370,0.7596871853,0.3859080076,-0.3905932903
        1.0533950329,        0.0014756471,-0.0025702119,0.0091253370,0.6986520290,0.2790964842,-0.6347339153
        1.0560948849,        0.0014756471,-0.0025702119,0.0091253370,0.6986520290,0.2790964842,-0.6347339153
        1.0587480068,        0.0014756471,-0.0025702119,0.0091253370,0.6528756618,0.2943552732,-0.6805102825
        1.0613138676,        0.0068467408,0.0028008819,-0.0060113817,0.6528756618,0.2943552732,-0.6805102825
        1.0638780594,        0.0068467408,0.0028008819,-0.0060113817,0.6528756618,0.3248728514,-0.3448169231
        1.0664429665,        0.0068467408,0.0028008819,-0.0060113817,0.4392526150,0.3248728514,-0.3448169231
        1.0690569878,        0.0068467408,0.0028008819,-0.0060113817,0.4392526150,0.3248728514,-0.4821460247
        1.0716228485,        0.0014756471,-0.0006170869,0.0032659620,0.3782174587,0.2638376951,-0.4821460247
        1.0741848946,        0.0014756471,-0.0006170869,0.0032659620,0.3782174587,0.2638376951,-0.8483569622
        1.0768449306,        0.0014756471,-0.0006170869,0.0032659620,0.7444283962,0.4927195311,-0.8483569622
        1.0795450211,        0.0014756471,-0.0006170869,-0.0064996630,0.7444283962,0.4927195311,-0.5889575481
        1.0821080208,        0.0029404908,0.0003594756,-0.0064996630,0.6376168728,0.3401316404,-0.5889575481
        1.0846769810,        0.0029404908,0.0003594756,-0.0064996630,0.6376168728,0.3401316404,-0.5889575481
        1.0872418880,        0.0029404908,0.0003594756,-0.0064996630,0.4697701931,0.1570261866,-0.2990405560
        1.0900139809,        0.0029404908,0.0062188506,0.0096136183,0.4697701931,0.1570261866,-0.2990405560
        1.0927088261,       -0.0063368529,0.0062188506,0.0096136183,0.6681344509,0.2485789210,-0.3753345013
        1.0954060555,       -0.0063368529,0.0062188506,0.0096136183,0.6681344509,0.2485789210,-0.3753345013
        1.0981130600,       -0.0063368529,0.0062188506,0.0096136183,0.8817574978,0.3859080076,-0.6347339153
        1.1008138657,       -0.0019423217,-0.0006170869,-0.0006402880,0.8817574978,0.3859080076,-0.6347339153
        1.1035089493,       -0.0019423217,-0.0006170869,-0.0006402880,1.0496041775,0.5537546873,-0.6194751263
        1.1061999798,       -0.0019423217,-0.0006170869,-0.0006402880,1.0496041775,0.5537546873,-0.6194751263
        1.1088569164,       -0.0019423217,-0.0006170869,-0.0006402880,1.2479684353,0.5690134764,-0.6652514935
        1.1114230156,       -0.0034071654,-0.0001288056,-0.0011285692,1.2479684353,0.5690134764,-0.6652514935
        1.1139898300,       -0.0034071654,-0.0001288056,-0.0011285692,0.8512399197,0.7368601561,-0.5431811810
        1.1165499687,       -0.0034071654,-0.0001288056,-0.0011285692,0.8512399197,0.7368601561,-0.5431811810
        1.1191909313,       -0.0034071654,-0.0001288056,-0.0011285692,0.7596871853,0.7521189451,-0.2227466106
        1.1218898296,       -0.0034071654,0.0057305694,-0.0021051317,0.7596871853,0.7521189451,-0.2227466106
        1.1245808601,       -0.0034071654,0.0057305694,-0.0021051317,0.9733102322,0.5995310545,-0.1769702435
        1.1272768974,       -0.0034071654,0.0057305694,-0.0021051317,0.9733102322,0.5995310545,-0.1769702435
        1.1299870014,       -0.0034071654,0.0057305694,0.0013128370,0.5460641384,0.7826365232,-0.2532641888
        1.1326849461,       -0.0034071654,-0.0006170869,0.0013128370,0.5460641384,0.7826365232,-0.2532641888
        1.1353838444,       -0.0034071654,-0.0006170869,0.0013128370,0.4392526150,0.5995310545,-0.4058520794
        1.1380820274,       -0.0034071654,-0.0006170869,0.0013128370,0.4392526150,0.5995310545,-0.4058520794
        1.1407768726,       -0.0034071654,0.0008477569,0.0061956495,0.8512399197,0.4316843748,-0.3448169231
        1.1435759068,       -0.0048720092,0.0008477569,0.0061956495,0.8512399197,0.4316843748,-0.3448169231
        1.1464049816,       -0.0048720092,0.0008477569,0.0061956495,0.3934762478,0.6758249998,-0.1311938763
        1.1492700577,       -0.0048720092,0.0008477569,0.0061956495,0.3934762478,0.6758249998,-0.1311938763
        1.1519699097,       -0.0024306029,-0.0035467744,0.0027776808,0.5308053493,0.5079783201,-0.5126636028
        1.1546669006,       -0.0024306029,-0.0035467744,0.0027776808,0.5308053493,0.5079783201,-0.5126636028
        1.1573569775,       -0.0024306029,-0.0035467744,0.0027776808,0.1798532158,0.5537546873,-0.1464526653
        1.1599569321,       -0.0024306029,-0.0035467744,0.0027776808,0.1798532158,0.5537546873,-0.1464526653
        1.1625289917,       -0.0038954467,0.0042657256,-0.0001520067,-0.4304983616,0.7216013670,-0.1617114544
        1.1650938988,       -0.0038954467,0.0042657256,-0.0001520067,-0.4304983616,0.7216013670,-0.1617114544
        1.1676549911,       -0.0038954467,0.0042657256,-0.0001520067,-0.2168752998,1.1488474607,-0.2227466106
        1.1703560352,       -0.0038954467,0.0042657256,-0.0050348192,-0.2168752998,1.1488474607,-0.2227466106
        1.1730518341,        0.0068467408,0.0003594756,-0.0050348192,0.1493356377,1.1335886717,-0.5889575481
        1.1757478714,        0.0068467408,0.0003594756,-0.0050348192,0.1493356377,1.1335886717,-0.5889575481
        1.1784319878,        0.0068467408,0.0003594756,-0.0050348192,0.0425241143,0.8436716795,-0.2990405560
        1.1810009480,        0.0068467408,0.0018243194,0.0042425245,0.0425241143,0.8436716795,-0.2990405560
        1.1835689545,       -0.0063368529,0.0018243194,0.0042425245,3.9487740993,0.6910837889,0.0824291706
        1.1861319542,       -0.0063368529,0.0018243194,0.0042425245,0.2103707939,0.6910837889,0.0824291706
        1.1887040138,       -0.0063368529,0.0018243194,0.0042425245,0.2103707939,0.6910837889,-0.0396411419
        1.1912739277,       -0.0063368529,-0.0045233369,-0.0035699755,0.0425241143,0.7368601561,-0.0396411419
        1.1938400269,       -0.0029188842,-0.0045233369,-0.0035699755,0.0425241143,0.7368601561,-0.0701587200
        1.1964068413,       -0.0029188842,-0.0045233369,-0.0035699755,0.2714059353,0.9047068357,-0.0701587200
        1.1991448402,       -0.0029188842,-0.0045233369,-0.0035699755,0.2714059353,0.9047068357,-0.0701587200
        1.2017118931,       -0.0019423217,0.0057305694,0.0037542433,0.1188180596,1.0572947264,-0.2074878216
        1.2042880058,       -0.0019423217,0.0057305694,0.0037542433,0.1188180596,1.0572947264,-0.2074878216
        1.2069609165,       -0.0019423217,0.0057305694,0.0037542433,0.1798532158,1.1488474607,-0.5431811810
        1.2096869946,       -0.0019423217,0.0057305694,0.0037542433,0.1798532158,1.1488474607,-0.5431811810
        1.2122540474,        0.0053818971,-0.0015936494,0.0008245558,0.2256295830,1.4082468748,-0.4668872356
        1.2148139477,        0.0053818971,-0.0015936494,0.0008245558,0.2256295830,1.4082468748,-0.4668872356
        1.2173788548,        0.0053818971,-0.0015936494,0.0008245558,-0.5067923069,1.5760935545,0.0213940144
        1.2200939655,        0.0053818971,-0.0015936494,0.0008245558,-0.5067923069,1.5760935545,0.0213940144
        1.2227919102,        0.0039170533,-0.0001288056,0.0061956495,-0.0490286201,1.2098826170,-0.2685229778
        1.2254920006,        0.0039170533,-0.0001288056,0.0061956495,-0.0490286201,1.2098826170,-0.2685229778
        1.2281889915,        0.0039170533,-0.0001288056,0.0061956495,0.1645944268,1.1488474607,-0.3295581341
        1.2308859825,        0.0039170533,-0.0001288056,-0.0025934130,0.1645944268,1.1488474607,-0.3295581341
        1.2335798740,        0.0078233033,0.0008477569,-0.0025934130,0.2714059353,1.1335886717,-0.1922290325
        1.2362780571,        0.0078233033,0.0008477569,-0.0025934130,0.2714059353,1.1335886717,-0.1922290325
        1.2389788628,        0.0078233033,0.0008477569,-0.0025934130,0.3324410915,0.9047068357,-0.2074878216
        1.2416749001,        0.0078233033,-0.0035467744,-0.0011285692,0.3324410915,0.9047068357,-0.2074878216
        1.2443690300,        0.0048936158,-0.0035467744,-0.0011285692,0.2714059353,1.1335886717,-0.2380053997
        1.2470710278,        0.0048936158,-0.0035467744,-0.0011285692,0.2714059353,1.1335886717,-0.2380053997
        1.2496910095,        0.0048936158,-0.0035467744,-0.0011285692,0.3324410915,0.8589304686,0.0061352253
        1.2522609234,        0.0044053346,-0.0001288056,-0.0060113817,0.3324410915,0.8589304686,0.0061352253
        1.2548229694,        0.0044053346,-0.0001288056,-0.0060113817,0.5460641384,0.4316843748,-0.2227466106
        1.2573859692,        0.0044053346,-0.0001288056,-0.0060113817,0.5460641384,0.4316843748,-0.2227466106
        1.2599918842,        0.0044053346,-0.0001288056,-0.0060113817,0.2714059353,0.7216013670,-0.2990405560
        1.2625548840,        0.0078233033,0.0013360381,-0.0035699755,0.2714059353,0.7216013670,-0.2990405560
        1.2653050423,        0.0078233033,0.0013360381,-0.0035699755,-3.6348440647,0.8589304686,-0.3142993450
        1.2682518959,        0.0078233033,0.0013360381,-0.0035699755,0.0425241143,0.8589304686,-0.3142993450
        1.2709360123,        0.0078233033,0.0013360381,-0.0035699755,0.2714059353,0.9962595701,-0.5126636028
        1.2735009193,       -0.0024306029,-0.0030584931,0.0061956495,0.2714059353,0.9962595701,-0.5126636028
        1.2760629654,       -0.0024306029,-0.0030584931,0.0061956495,0.2714059353,0.7826365232,-0.4668872356
        1.2786970139,       -0.0024306029,-0.0030584931,0.0061956495,0.5460641384,0.7826365232,-0.4668872356
        1.2812559605,       -0.0024306029,-0.0030584931,0.0061956495,0.5460641384,0.7826365232,-0.2685229778
        1.2838180065,        0.0044053346,0.0008477569,-0.0001520067,0.4087350368,0.9504832029,-0.2685229778
        1.2863788605,        0.0044053346,0.0008477569,-0.0001520067,0.4087350368,0.9504832029,-0.6194751263
        1.2889449596,        0.0044053346,0.0008477569,-0.0001520067,0.8817574978,0.6605662107,-0.6194751263
        1.2915079594,        0.0044053346,0.0008477569,-0.0001520067,0.8817574978,0.6605662107,-0.6194751263
        1.2940740585,        0.0004990846,0.0062188506,-0.0001520067,0.7291696072,0.4316843748,-0.4058520794
        1.2966370583,        0.0004990846,0.0062188506,-0.0001520067,0.7291696072,0.4316843748,-0.4058520794
        1.2992448807,        0.0004990846,0.0062188506,-0.0001520067,0.5613229275,0.5079783201,-0.2227466106
        1.3018100262,        0.0004990846,0.0062188506,0.0018011183,0.5613229275,0.5079783201,-0.2227466106
        1.3043699265,        0.0014756471,-0.0025702119,0.0018011183,0.0883004814,0.6605662107,-0.0701587200
        1.3069360256,        0.0014756471,-0.0025702119,0.0018011183,0.0883004814,0.6605662107,-0.0701587200
        1.3095090389,        0.0014756471,-0.0025702119,0.0018011183,0.3324410915,0.6758249998,-0.4668872356
        1.3120658398,        0.0014756471,-0.0025702119,-0.0108941942,0.3324410915,0.6758249998,-0.4668872356
        1.3146269321,        0.0000108033,0.0013360381,-0.0108941942,0.6376168728,0.6605662107,-0.2837817669
        1.3171918392,        0.0000108033,0.0013360381,-0.0108941942,0.6376168728,0.6605662107,-0.2837817669
        1.3199198246,        0.0000108033,0.0013360381,-0.0108941942,1.0190865993,0.5995310545,-0.5279223919
        1.3224899769,        0.0000108033,-0.0006170869,-0.0011285692,1.0190865993,0.5995310545,-0.5279223919
        1.3250570297,        0.0029404908,-0.0006170869,-0.0011285692,1.0190865993,0.6300486326,-0.6042163372
        1.3276250362,        0.0029404908,-0.0006170869,-0.0011285692,1.1411569118,0.6300486326,-0.6042163372
        1.3304028511,        0.0029404908,-0.0006170869,-0.0011285692,1.1411569118,0.5537546873,-0.5736987591
        1.3332078457,        0.0014756471,-0.0045233369,0.0008245558,0.9580514431,0.5537546873,-0.5736987591
        1.3359048367,        0.0014756471,-0.0045233369,0.0008245558,0.9580514431,0.5384958982,-0.6194751263
        1.3386549950,        0.0014756471,-0.0045233369,0.0008245558,0.7139108181,0.5384958982,-0.6194751263
        1.3412308693,        0.0014756471,-0.0045233369,0.0008245558,0.7139108181,0.5384958982,-0.3295581341
        1.3438010216,        0.0000108033,-0.0035467744,0.0061956495,0.5765817165,0.5995310545,-0.3295581341
        1.3463649750,        0.0000108033,-0.0035467744,0.0061956495,0.5765817165,0.5995310545,-0.0701587200
        1.3490698338,        0.0000108033,-0.0035467744,0.0061956495,0.9427926540,0.6453074217,-0.0701587200
        1.3516378403,        0.0000108033,-0.0035467744,0.0061956495,0.9427926540,0.6453074217,-0.1159350872
        1.3545629978,       -0.0048720092,0.0013360381,0.0027776808,0.6986520290,0.6910837889,-0.1159350872
        1.3571310043,       -0.0048720092,0.0013360381,0.0027776808,0.6986520290,0.6910837889,-0.2837817669
        1.3597009182,       -0.0048720092,0.0013360381,0.0027776808,0.5918405056,0.6758249998,-0.2837817669
        1.3622648716,       -0.0048720092,0.0013360381,-0.0001520067,0.5918405056,0.6758249998,-0.2837817669
        1.3648259640,       -0.0029188842,-0.0040350556,-0.0001520067,0.7444283962,0.5995310545,-0.3142993450
        1.3673870564,       -0.0029188842,-0.0040350556,-0.0001520067,0.7444283962,0.5995310545,-0.3142993450
        1.3699970245,       -0.0029188842,-0.0040350556,-0.0001520067,0.4087350368,0.4011667967,-0.2685229778
        1.3725559711,       -0.0029188842,-0.0040350556,-0.0021051317,0.4087350368,0.4011667967,-0.2685229778
        1.3751249313,        0.0063584596,-0.0030584931,-0.0021051317,0.5765817165,0.6147898436,-0.6042163372
        1.3776879311,        0.0063584596,-0.0030584931,-0.0021051317,0.5765817165,0.6147898436,-0.6042163372
        1.3802609444,        0.0063584596,-0.0030584931,-0.0021051317,0.8664987087,0.3706492186,-0.5279223919
        1.3828320503,        0.0063584596,0.0008477569,0.0003362745,0.8664987087,0.3706492186,-0.5279223919
        1.3853929043,       -0.0004774779,0.0008477569,0.0003362745,0.4697701931,0.7368601561,-0.2990405560
        1.3880028725,       -0.0004774779,0.0008477569,0.0003362745,0.4697701931,0.7368601561,-0.2990405560
        1.3905708790,       -0.0004774779,0.0008477569,0.0003362745,0.1188180596,0.8284128904,-0.3142993450
        1.3931310177,       -0.0004774779,-0.0001288056,-0.0016168505,0.1188180596,0.8284128904,-0.3142993450
        1.3958289623,       -0.0024306029,-0.0001288056,-0.0016168505,0.1188180596,0.9962595701,-0.4363696575
        1.3985910416,       -0.0024306029,-0.0001288056,-0.0016168505,-0.2626516819,0.9962595701,-0.4363696575
        1.4011540413,       -0.0024306029,-0.0001288056,-0.0016168505,-0.2626516819,0.7368601561,-0.2074878216
        1.4037230015,       -0.0078016967,0.0008477569,0.0081487745,0.3171823025,0.7368601561,-0.2074878216
        1.4062819481,       -0.0078016967,0.0008477569,0.0081487745,0.3171823025,0.7368601561,-0.2837817669
        1.4089670181,       -0.0078016967,0.0008477569,0.0081487745,0.4087350368,0.3096140623,-0.2837817669
        1.4115369320,       -0.0078016967,0.0008477569,0.0081487745,0.4087350368,0.3096140623,-0.4668872356
        1.4140989780,        0.0024522096,-0.0015936494,0.0086370558,0.4392526150,0.4927195311,-0.4668872356
        1.4166569710,        0.0024522096,-0.0015936494,0.0086370558,0.4392526150,0.4927195311,-0.4668872356
        1.4192459583,        0.0024522096,-0.0015936494,0.0086370558,0.6070992947,0.4164255857,-0.1617114544
        1.4218089581,        0.0024522096,-0.0015936494,0.0086370558,0.6070992947,0.4164255857,-0.1617114544
        1.4243719578,        0.0073350221,-0.0045233369,-0.0040582567,0.2256295830,0.8436716795,-0.2532641888
        1.4269390106,        0.0073350221,-0.0045233369,-0.0040582567,0.2256295830,0.8436716795,-0.2532641888
        1.4295058250,        0.0073350221,-0.0045233369,-0.0040582567,0.5613229275,0.6147898436,-0.2990405560
        1.4320700169,        0.0073350221,-0.0045233369,-0.0040582567,0.5613229275,0.6147898436,-0.2990405560
        1.4346339703,       -0.0009657592,-0.0025702119,-0.0006402880,0.6070992947,0.2638376951,-0.3600757122
        1.4371998310,       -0.0009657592,-0.0025702119,-0.0006402880,0.6070992947,0.2638376951,-0.3600757122
        1.4399349689,       -0.0009657592,-0.0025702119,-0.0006402880,0.1951120049,0.4927195311,-0.2227466106
        1.4426350594,       -0.0009657592,-0.0025702119,-0.0006402880,0.1951120049,0.4927195311,-0.2227466106
        1.4453389645,        0.0034287721,0.0003594756,-0.0148004442,0.4087350368,0.6147898436,-0.2074878216
        1.4480719566,        0.0034287721,0.0003594756,-0.0148004442,0.4087350368,0.6147898436,-0.2074878216
        1.4506380558,        0.0034287721,0.0003594756,-0.0148004442,0.6070992947,0.5690134764,-0.3448169231
        1.4532098770,        0.0034287721,0.0003594756,-0.0016168505,0.6070992947,0.5690134764,-0.3448169231
        1.4557778835,        0.0044053346,0.0067071319,-0.0016168505,0.6070992947,0.4164255857,-0.4211108685
        1.4585258961,        0.0044053346,0.0067071319,-0.0016168505,0.9733102322,0.4164255857,-0.4211108685
        1.4612338543,        0.0044053346,0.0067071319,-0.0016168505,0.9733102322,0.3096140623,-0.6957690716
        1.4640140533,        0.0044053346,0.0042657256,-0.0084527880,0.8817574978,0.3096140623,-0.6957690716
        1.4668500423,        0.0127061158,0.0042657256,-0.0084527880,0.3629586697,0.2180613428,-0.4516284466
        1.4697420597,        0.0127061158,0.0042657256,-0.0084527880,0.3629586697,0.2180613428,-0.4516284466
        1.4724459648,        0.0127061158,0.0042657256,-0.0084527880,0.2714059353,0.5079783201,-0.1464526653
        1.4751429558,        0.0048936158,0.0032891631,-0.0030816942,0.2714059353,0.5079783201,-0.1464526653
        1.4778490067,        0.0048936158,0.0032891631,-0.0030816942,0.6986520290,0.4469431639,-0.1159350872
        1.4805479050,        0.0048936158,0.0032891631,-0.0030816942,0.6986520290,0.4469431639,-0.1159350872
        1.4832420349,        0.0048936158,0.0032891631,-0.0030816942,0.3324410915,0.8284128904,0.0519115925
        1.4859418869,        0.0000108033,0.0018243194,0.0003362745,0.3324410915,0.8284128904,0.0519115925
        1.4886889458,        0.0000108033,0.0018243194,0.0003362745,0.1951120049,0.4774607420,-0.0701587200
        1.4913868904,        0.0000108033,0.0018243194,0.0003362745,0.1951120049,0.4774607420,-0.0701587200
        1.4940860271,        0.0000108033,0.0057305694,-0.0099176317,0.4545114040,0.0959910303,-0.1617114544
        1.4967839718,        0.0004990846,0.0057305694,-0.0099176317,0.4545114040,0.0959910303,-0.1617114544
        1.4994158745,        0.0004990846,0.0057305694,-0.0099176317,0.4545114040,0.6147898436,-0.1159350872
        1.5019860268,        0.0004990846,0.0057305694,-0.0099176317,0.6070992947,0.6147898436,-0.1159350872
        1.5045549870,        0.0009873658,-0.0001288056,-0.0064996630,0.6070992947,0.6300486326,-0.2532641888
        1.5071189404,        0.0009873658,-0.0001288056,-0.0064996630,1.0343453884,0.6300486326,-0.2532641888
        1.5096979141,        0.0009873658,-0.0001288056,-0.0064996630,1.0343453884,0.6300486326,-0.1159350872
        1.5122609138,        0.0009873658,-0.0001288056,-0.0064996630,1.0953805447,0.6453074217,-0.1159350872
        1.5148289204,       -0.0058485717,-0.0020819306,-0.0035699755,1.0953805447,0.6453074217,-0.1159350872
        1.5173919201,       -0.0058485717,-0.0020819306,-0.0035699755,0.5155465603,0.6300486326,-0.0548999310
        1.5201058388,       -0.0058485717,-0.0020819306,-0.0035699755,0.5155465603,0.6300486326,-0.0548999310
        1.5227830410,       -0.0058485717,-0.0020819306,-0.0035699755,0.6223580837,0.3706492186,-0.2990405560
        1.5253529549,       -0.0019423217,0.0008477569,-0.0016168505,0.6223580837,0.3706492186,-0.2990405560
        1.5279710293,       -0.0019423217,0.0008477569,-0.0016168505,0.5155465603,0.3553904295,-0.1159350872
        1.5306868553,       -0.0019423217,0.0008477569,-0.0016168505,0.5155465603,0.3553904295,-0.1159350872
        1.5333838463,       -0.0019423217,0.0008477569,-0.0016168505,0.6070992947,0.4622019529,-0.0548999310
        1.5360779762,        0.0004990846,-0.0054998994,-0.0069879442,0.6070992947,0.4622019529,-0.0548999310
        1.5387799740,        0.0004990846,-0.0054998994,-0.0069879442,0.7291696072,0.4316843748,0.0213940144
        1.5414710045,        0.0004990846,-0.0054998994,-0.0069879442,0.7291696072,0.4316843748,0.0213940144
        1.5441670418,        0.0004990846,-0.0054998994,-0.0025934130,0.3171823025,0.4622019529,0.1129467487
        1.5468618870,       -0.0043837279,-0.0030584931,-0.0025934130,0.3171823025,0.4622019529,0.1129467487
        1.5494959354,       -0.0043837279,-0.0030584931,-0.0025934130,0.3324410915,0.4774607420,0.2350170612
        1.5520658493,       -0.0043837279,-0.0030584931,-0.0025934130,0.3324410915,0.4774607420,0.2350170612
        1.5546238422,       -0.0043837279,-0.0030584931,-0.0074762255,0.2561471462,0.5690134764,0.0824291706
        1.5571889877,        0.0068467408,-0.0030584931,-0.0074762255,0.2561471462,0.5690134764,0.0824291706
        1.5598988533,        0.0068467408,-0.0030584931,-0.0074762255,-0.0795461982,0.5842722654,-0.2532641888
        1.5625898838,        0.0068467408,-0.0030584931,-0.0074762255,-0.0795461982,0.5842722654,-0.2532641888
        1.5652899742,       -0.0019423217,-0.0011053681,-0.0069879442,0.4850289822,0.1265086085,-0.2074878216
        1.5680348873,       -0.0019423217,-0.0011053681,-0.0069879442,0.4850289822,0.1265086085,-0.2074878216
        1.5707299709,       -0.0019423217,-0.0011053681,-0.0069879442,0.4545114040,0.1417673975,-0.1617114544
        1.5734319687,       -0.0019423217,-0.0011053681,-0.0069879442,0.4545114040,0.1417673975,-0.1617114544
        1.5761258602,       -0.0043837279,-0.0020819306,-0.0089410692,0.2256295830,0.4011667967,0.0671703815
        1.5788710117,       -0.0043837279,-0.0020819306,-0.0089410692,0.2256295830,0.4011667967,0.0671703815
        1.5815680027,       -0.0043837279,-0.0020819306,-0.0089410692,0.3019235134,0.4316843748,-0.1922290325
        1.5844850540,       -0.0043837279,-0.0020819306,0.0022893995,0.3019235134,0.4316843748,-0.1922290325
        1.5876619816,        0.0014756471,0.0008477569,0.0022893995,0.4239938259,0.4927195311,-0.0854175091
        1.5903768539,        0.0014756471,0.0008477569,0.0022893995,0.4239938259,0.4927195311,-0.0854175091
        1.5930838585,        0.0014756471,0.0008477569,0.0022893995,0.1798532158,0.3706492186,-0.1006762981
        1.5957839489,        0.0000108033,-0.0020819306,-0.0050348192,0.1798532158,0.3706492186,-0.1006762981
        1.5984640121,        0.0000108033,-0.0020819306,-0.0050348192,0.8054635525,-0.1023732275,-0.2837817669
        1.6010348797,        0.0000108033,-0.0020819306,-0.0050348192,0.8054635525,-0.1023732275,-0.2837817669
        1.6036050320,        0.0000108033,-0.0020819306,-0.0050348192,0.6986520290,0.2638376951,-0.4516284466
        1.6061730385,       -0.0034071654,-0.0001288056,0.0022893995,0.6986520290,0.2638376951,-0.4516284466
        1.6088039875,       -0.0034071654,-0.0001288056,0.0022893995,0.4392526150,-0.1328908056,-0.3448169231
        1.6115000248,       -0.0034071654,-0.0001288056,0.0022893995,0.4392526150,-0.1328908056,-0.3448169231
        1.6142020226,       -0.0034071654,-0.0001288056,0.0022893995,0.1798532158,-0.1023732275,-0.2837817669
        1.6168949604,       -0.0019423217,0.0013360381,-0.0011285692,0.1798532158,-0.1023732275,-0.2837817669
        1.6195058823,       -0.0019423217,0.0013360381,-0.0011285692,-0.0490286201,0.0502146631,0.0366528034
        1.6220810413,       -0.0019423217,0.0013360381,-0.0011285692,-0.0490286201,0.0502146631,0.0366528034
        1.6246469021,       -0.0019423217,0.0013360381,-0.0113824755,0.3171823025,-0.2397023290,-0.1006762981
        1.6272099018,       -0.0019423217,-0.0011053681,-0.0113824755,0.3171823025,-0.2397023290,-0.1006762981
        1.6299259663,       -0.0019423217,-0.0011053681,-0.0113824755,0.3171823025,-0.7127248049,-0.2532641888
        1.6324870586,       -0.0019423217,-0.0011053681,-0.0113824755,0.6223580837,-0.7127248049,-0.2532641888
        1.6350538731,       -0.0019423217,-0.0011053681,-0.0055231005,0.6223580837,-0.7127248049,-0.1464526653
        1.6376190186,       -0.0009657592,-0.0030584931,-0.0055231005,0.3324410915,-0.5296193361,-0.1464526653
        1.6404190063,       -0.0009657592,-0.0030584931,-0.0055231005,0.3324410915,-0.5296193361,-0.1617114544
        1.6431200504,       -0.0009657592,-0.0030584931,-0.0055231005,0.1035592705,-0.2244435400,-0.1617114544
        1.6458158493,        0.0083115846,0.0003594756,-0.0104059130,0.1035592705,-0.2244435400,-0.3753345013
        1.6484999657,        0.0083115846,0.0003594756,-0.0104059130,0.0577829033,-0.3465138674,-0.3753345013
        1.6511819363,        0.0083115846,0.0003594756,-0.0104059130,0.0577829033,-0.3465138674,-0.0243823528
        1.6537458897,        0.0083115846,0.0003594756,-0.0104059130,0.1035592705,-0.3312550783,-0.0243823528
        1.6563119888,       -0.0024306029,-0.0015936494,-0.0128473192,0.1035592705,-0.3312550783,-0.0243823528
        1.6589448452,       -0.0024306029,-0.0015936494,-0.0128473192,0.0120065361,-0.3159962893,-0.2837817669
        1.6616389751,       -0.0024306029,-0.0015936494,-0.0128473192,0.0120065361,-0.3159962893,-0.2837817669
        1.6643388271,       -0.0024306029,-0.0015936494,-0.0128473192,0.2714059353,-0.4075490236,-0.4211108685
        1.6670339108,       -0.0073134154,0.0013360381,-0.0025934130,0.2714059353,-0.4075490236,-0.4211108685
        1.6697459221,       -0.0073134154,0.0013360381,-0.0025934130,0.0730416924,-0.3922902346,-0.3295581341
        1.6724498272,       -0.0073134154,0.0013360381,-0.0025934130,0.0730416924,-0.3922902346,-0.3295581341
        1.6751439571,       -0.0073134154,0.0013360381,-0.0079645067,-0.2931692600,0.0654734522,-0.1464526653
        1.6778550148,       -0.0068251342,-0.0030584931,-0.0079645067,-0.2931692600,0.0654734522,-0.1464526653
        1.6805529594,       -0.0068251342,-0.0030584931,-0.0079645067,-0.1710989326,0.0502146631,0.0061352253
        1.6832468510,       -0.0068251342,-0.0030584931,-0.0079645067,-0.1710989326,0.0502146631,0.0061352253
        1.6859438419,       -0.0068251342,0.0003594756,-0.0060113817,-0.3084280491,-0.1176320165,0.0824291706
        1.6886808872,        0.0004990846,0.0003594756,-0.0060113817,-0.3084280491,-0.1176320165,0.0824291706
        1.6913828850,        0.0004990846,0.0003594756,-0.0060113817,-0.1100637764,-0.0871144384,-0.2227466106
        1.6943109035,        0.0004990846,0.0003594756,-0.0060113817,-0.1100637764,-0.0871144384,-0.2227466106
        1.6970019341,        0.0024522096,-0.0006170869,0.0032659620,0.1493356377,-0.2397023290,-0.2837817669
        1.6997940540,        0.0024522096,-0.0006170869,0.0032659620,0.1493356377,-0.2397023290,-0.2837817669
        1.7023620605,        0.0024522096,-0.0006170869,0.0032659620,0.1035592705,-0.5448781252,0.1129467487
        1.7049210072,        0.0024522096,-0.0006170869,0.0032659620,0.1035592705,-0.5448781252,0.1129467487
        1.7074928284,        0.0009873658,0.0003594756,-0.0006402880,0.3324410915,-0.3922902346,0.0366528034
        1.7100639343,        0.0009873658,0.0003594756,-0.0006402880,0.3324410915,-0.3922902346,0.0366528034
        1.7126288414,        0.0009873658,0.0003594756,-0.0006402880,0.7902047634,-0.7737599611,-0.1769702435
        1.7153019905,        0.0009873658,0.0003594756,-0.0006402880,0.7902047634,-0.7737599611,-0.1769702435
        1.7178609371,       -0.0024306029,-0.0015936494,0.0003362745,0.2103707939,-0.9263478518,-0.2380053997
        1.7204320431,       -0.0024306029,-0.0015936494,0.0003362745,0.2103707939,-0.9263478518,-0.2380053997
        1.7229950428,       -0.0024306029,-0.0015936494,0.0003362745,0.0577829033,-0.4685841799,-0.3753345013
        1.7255589962,       -0.0024306029,-0.0015936494,0.0003362745,0.0577829033,-0.4685841799,-0.3753345013
        1.7282600403,       -0.0053602904,0.0013360381,-0.0021051317,0.2866647243,-0.5601369143,-0.1006762981
        1.7308299541,       -0.0053602904,0.0013360381,-0.0021051317,0.2866647243,-0.5601369143,-0.1006762981
        1.7333970070,       -0.0053602904,0.0013360381,-0.0021051317,-3.6195852757,-0.1634083837,0.2197582722
        1.7359569073,       -0.0053602904,0.0013360381,-0.0123590380,-0.0948049873,-0.1634083837,0.2197582722
        1.7385230064,        0.0019639283,0.0003594756,-0.0123590380,-0.0948049873,-0.1634083837,0.2655346394
        1.7410929203,        0.0019639283,0.0003594756,-0.0123590380,-0.1710989326,-0.3922902346,0.2655346394
        1.7436540127,        0.0019639283,0.0003594756,-0.0123590380,-0.1710989326,-0.3922902346,0.3418285847
        1.7462148666,        0.0019639283,0.0003594756,-0.0108941942,-0.2016165107,-0.2244435400,0.3418285847
        1.7493209839,        0.0009873658,0.0008477569,-0.0108941942,0.2408883721,-0.2854787111,0.2350170612
        1.7525489330,        0.0009873658,0.0008477569,-0.0108941942,0.2408883721,-0.2854787111,0.2350170612
        1.7551059723,        0.0009873658,0.0008477569,-0.0108941942,-3.6653616428,-0.1786671728,-0.0396411419
        1.7576658726,       -0.0048720092,-0.0001288056,0.0052190870,-0.3084280491,-0.1786671728,-0.0396411419
        1.7603158951,       -0.0048720092,-0.0001288056,0.0052190870,-0.3084280491,-0.1786671728,0.1282055378
        1.7628738880,       -0.0048720092,-0.0001288056,0.0052190870,-0.5678274632,-0.2854787111,0.1282055378
        1.7654299736,       -0.0048720092,-0.0001288056,0.0052190870,-0.5678274632,-0.2854787111,0.1739819050
        1.7680449486,       -0.0029188842,-0.0001288056,-0.0094293505,-0.4457571507,-0.1481495947,0.1739819050
        1.7706060410,       -0.0029188842,-0.0001288056,-0.0094293505,-0.4457571507,-0.1481495947,0.1739819050
        1.7731649876,       -0.0029188842,-0.0001288056,-0.0094293505,-0.0795461982,-0.0413380712,0.2350170612
        1.7757258415,       -0.0029188842,-0.0001288056,-0.0094293505,-0.0795461982,-0.0413380712,0.2350170612
        1.7782928944,        0.0019639283,0.0013360381,-0.0055231005,-0.2321340889,-0.2702199221,0.3723461628
        1.7809610367,        0.0019639283,0.0013360381,-0.0055231005,-0.2321340889,-0.2702199221,0.3723461628
        1.7835209370,        0.0019639283,0.0013360381,-0.0055231005,-0.3236868382,-0.4075490236,0.2197582722
        1.7860829830,        0.0019639283,0.0013360381,-0.0055231005,-0.3236868382,-0.4075490236,0.2197582722
        1.7886860371,        0.0048936158,0.0018243194,-0.0099176317,-0.2626516819,-0.3007375002,0.0213940144
        1.7912478447,        0.0048936158,0.0018243194,-0.0099176317,-0.2626516819,-0.3007375002,0.0213940144
        1.7938079834,        0.0048936158,0.0018243194,-0.0099176317,-0.5220510960,-0.4075490236,0.1282055378
        1.7963688374,        0.0048936158,0.0018243194,-0.0055231005,-0.5220510960,-0.4075490236,0.1282055378
        1.7990319729,        0.0019639283,-0.0015936494,-0.0055231005,-0.6441214085,-0.3465138674,0.3418285847
        1.8015968800,        0.0019639283,-0.0015936494,-0.0055231005,-0.6441214085,-0.3465138674,0.3418285847
        1.8041548729,        0.0019639283,-0.0015936494,-0.0055231005,-0.6441214085,-0.2244435400,0.5249340534
        1.8067188263,        0.0019639283,-0.0015936494,-0.0016168505,-0.7051565647,-0.2244435400,0.5249340534
        1.8093779087,       -0.0004774779,-0.0001288056,-0.0016168505,-0.7051565647,-0.1176320165,0.7843334675
        1.8119440079,       -0.0004774779,-0.0001288056,-0.0016168505,-0.4152395725,-0.1176320165,0.7843334675
        1.8145010471,       -0.0004774779,-0.0001288056,-0.0016168505,-0.4152395725,-0.1176320165,0.4638988972
        1.8170599937,       -0.0004774779,0.0067071319,-0.0030816942,-0.3542044163,-0.1481495947,0.4638988972
        1.8196229935,        0.0019639283,0.0067071319,-0.0030816942,-0.3542044163,-0.1481495947,0.4638988972
        1.8221850395,        0.0019639283,0.0067071319,-0.0030816942,-0.3999807835,-0.2854787111,0.2502758503
        1.8247430325,        0.0019639283,0.0067071319,-0.0030816942,-0.3999807835,-0.2854787111,0.2502758503
        1.8272988796,        0.0019639283,-0.0025702119,-0.0011285692,-0.0032522529,-0.6974660158,0.0671703815
        1.8299820423,       -0.0024306029,-0.0025702119,-0.0011285692,-0.0032522529,-0.6974660158,0.0671703815
        1.8325409889,       -0.0024306029,-0.0025702119,-0.0011285692,-0.3847219944,-0.9416066408,0.1434643269
        1.8350999355,       -0.0024306029,-0.0025702119,-0.0011285692,-0.3847219944,-0.9416066408,0.1434643269
        1.8376619816,        0.0004990846,0.0052422881,-0.0025934130,-0.5220510960,-0.6211720705,0.0671703815
        1.8402240276,        0.0004990846,0.0052422881,-0.0025934130,-0.5220510960,-0.6211720705,0.0671703815
        1.8428959846,        0.0004990846,0.0052422881,-0.0025934130,-0.3847219944,-0.5143605471,0.1739819050
        1.8454549313,        0.0004990846,0.0052422881,-0.0025934130,-0.3847219944,-0.5143605471,0.1739819050
        1.8480749130,       -0.0014540404,-0.0059881806,0.0027776808,-0.6136038303,-0.5143605471,0.1587231159
        1.8506338596,       -0.0014540404,-0.0059881806,0.0027776808,-0.6136038303,-0.5143605471,0.1587231159
        1.8531908989,       -0.0014540404,-0.0059881806,0.0027776808,-0.6136038303,-0.7127248049,-0.0243823528
        1.8557498455,       -0.0014540404,-0.0059881806,0.0027776808,-0.3694632053,-0.7127248049,-0.0243823528
        1.8584330082,        0.0073350221,-0.0011053681,0.0008245558,-0.3694632053,-0.4228078127,0.3418285847
        1.8610019684,        0.0073350221,-0.0011053681,0.0008245558,-0.6136038303,-0.4228078127,0.3418285847
        1.8635718822,        0.0073350221,-0.0011053681,0.0008245558,-0.6136038303,-0.5753957033,0.5096752644
        1.8663790226,        0.0073350221,-0.0011053681,0.0008245558,-0.4152395725,-0.5753957033,0.5096752644
        1.8693170547,       -0.0009657592,-0.0064764619,-0.0030816942,-0.4152395725,-0.8195363283,0.2807934284
        1.8720169067,       -0.0009657592,-0.0064764619,-0.0030816942,-0.4762747288,-0.8195363283,0.2807934284
        1.8747098446,       -0.0009657592,-0.0064764619,-0.0030816942,-0.4762747288,-0.5601369143,0.0366528034
        1.8774030209,       -0.0009657592,-0.0064764619,-0.0079645067,-0.5830862522,-0.5601369143,0.0366528034
        1.8801128864,        0.0014756471,-0.0035467744,-0.0079645067,-0.5830862522,-0.9110890627,-0.2074878216
        1.8828070164,        0.0014756471,-0.0035467744,-0.0079645067,-0.3084280491,-0.9110890627,-0.2074878216
        1.8855068684,        0.0014756471,-0.0035467744,-0.0079645067,-0.3084280491,-0.7127248049,0.2350170612
        1.8882069588,       -0.0019423217,0.0023126006,0.0022893995,-0.1100637764,-0.7127248049,0.2350170612
        1.8908989429,       -0.0019423217,0.0023126006,0.0022893995,-0.1100637764,-0.7127248049,0.2960522175
        1.8935999870,       -0.0019423217,0.0023126006,0.0022893995,-0.2779104710,-0.9110890627,0.2960522175
        1.8962948322,       -0.0019423217,0.0023126006,0.0022893995,-0.2779104710,-0.9110890627,0.1739819050
        1.8989398479,        0.0004990846,0.0023126006,-0.0001520067,-0.2931692600,-0.7127248049,0.1739819050
        1.9015049934,        0.0004990846,0.0023126006,-0.0001520067,-0.2931692600,-0.7127248049,0.0976879597
        1.9040730000,        0.0004990846,0.0023126006,-0.0001520067,-0.8119680882,-1.1094533205,0.0976879597
        1.9067528248,        0.0004990846,0.0023126006,-0.0001520067,-0.8119680882,-1.1094533205,0.0976879597
        1.9093289375,        0.0058701783,0.0013360381,0.0022893995,-0.4304983616,-0.9263478518,0.0519115925
        1.9118950367,        0.0058701783,0.0013360381,0.0022893995,-0.4304983616,-0.9263478518,0.0519115925
        1.9144558907,        0.0058701783,0.0013360381,0.0022893995,-0.3389456272,-1.0484181643,-0.1617114544
        1.9170248508,        0.0058701783,0.0013360381,0.0022893995,-0.3389456272,-1.0484181643,-0.1617114544
        1.9197349548,        0.0029404908,0.0023126006,-0.0040582567,-0.5525686741,-0.7737599611,-0.0854175091
        1.9223010540,        0.0029404908,0.0023126006,-0.0040582567,-0.5525686741,-0.7737599611,-0.0854175091
        1.9248659611,        0.0029404908,0.0023126006,-0.0040582567,-0.2168752998,-1.1552296877,-0.1006762981
        1.9274308681,        0.0029404908,0.0023126006,0.0018011183,-0.2168752998,-1.1552296877,-0.1006762981
        1.9302060604,        0.0024522096,0.0028008819,0.0018011183,-0.3542044163,-1.2925587893,0.0366528034
        1.9329030514,        0.0024522096,0.0028008819,0.0018011183,-0.3542044163,-1.2925587893,0.0366528034
        1.9356000423,        0.0024522096,0.0028008819,0.0018011183,-0.7967092991,-1.0179005861,-0.0396411419
        1.9383089542,        0.0024522096,-0.0001288056,0.0027776808,-0.7967092991,-1.0179005861,-0.0396411419
        1.9410059452,       -0.0004774779,-0.0001288056,0.0027776808,-0.4457571507,-0.6974660158,0.1892406940
        1.9436979294,       -0.0004774779,-0.0001288056,0.0027776808,-0.4457571507,-0.6974660158,0.1892406940
        1.9463920593,       -0.0004774779,-0.0001288056,0.0027776808,-0.3999807835,-0.5143605471,0.3113110065
        1.9490430355,       -0.0009657592,0.0028008819,-0.0040582567,-0.3999807835,-0.5143605471,0.3113110065
        1.9516079426,       -0.0009657592,0.0028008819,-0.0040582567,-0.7509329319,-0.6059132814,0.2197582722
        1.9541699886,       -0.0009657592,0.0028008819,-0.0040582567,-0.7509329319,-0.6059132814,0.2197582722
        1.9567379951,       -0.0009657592,0.0028008819,-0.0040582567,-0.9645559788,-0.8958302736,0.1892406940
        1.9593899250,        0.0073350221,-0.0001288056,0.0066839308,-0.9645559788,-0.8958302736,0.1892406940
        1.9620878696,        0.0073350221,-0.0001288056,0.0066839308,-0.7509329319,-0.7585011721,0.0366528034
        1.9647829533,        0.0073350221,-0.0001288056,0.0066839308,-0.7509329319,-0.7585011721,0.0366528034
        1.9674780369,        0.0073350221,-0.0001288056,0.0066839308,-0.7967092991,-0.8653126955,0.1739819050
        1.9702839851,       -0.0019423217,-0.0001288056,0.0052190870,-0.7967092991,-0.8653126955,0.1739819050
        1.9729850292,       -0.0019423217,-0.0001288056,0.0052190870,-0.8272268772,-0.8500539064,0.1739819050
        1.9756798744,       -0.0019423217,-0.0001288056,0.0052190870,-0.8272268772,-0.8500539064,0.1739819050
        1.9783928394,       -0.0019423217,-0.0001288056,0.0057073683,-0.4304983616,-0.6364308596,0.2044994831
        1.9810850620,        0.0000108033,-0.0025702119,0.0057073683,-0.4304983616,-0.6364308596,0.2044994831
        1.9838209152,        0.0000108033,-0.0025702119,0.0057073683,-0.3389456272,-0.8500539064,0.2044994831
        1.9866290092,        0.0000108033,-0.0025702119,0.0057073683,-0.3389456272,-0.8500539064,0.2044994831
        1.9895980358,        0.0000108033,-0.0006170869,-0.0016168505,-0.5067923069,-1.0179005861,-0.0854175091
        1.9923000336,        0.0000108033,-0.0006170869,-0.0016168505,-0.5067923069,-1.0179005861,-0.0854175091
        1.9949979782,        0.0000108033,-0.0006170869,-0.0016168505,-0.3999807835,-0.8500539064,0.0366528034
        1.9976949692,        0.0000108033,-0.0006170869,-0.0016168505,-0.3999807835,-0.8500539064,0.0366528034
        2.0002629757,        0.0024522096,-0.0001288056,0.0003362745,-0.1100637764,-0.7127248049,0.2197582722
        2.0028238297,        0.0024522096,-0.0001288056,0.0003362745,-0.1100637764,-0.7127248049,0.2197582722
        2.0053889751,        0.0024522096,-0.0001288056,0.0003362745,-0.1100637764,-0.5906544924,-0.0396411419
        2.0080180168,        0.0024522096,-0.0001288056,0.0003362745,-0.2016165107,-0.5906544924,-0.0396411419
        2.0107119083,       -0.0004774779,-0.0006170869,-0.0001520067,-0.2016165107,-0.8653126955,-0.0091235638
        2.0134110451,       -0.0004774779,-0.0006170869,-0.0001520067,-0.1710989326,-0.8653126955,-0.0091235638
        2.0161099434,       -0.0004774779,-0.0006170869,-0.0001520067,-0.1710989326,-1.0636769533,-0.4058520794
        2.0188078880,       -0.0004774779,-0.0015936494,-0.0055231005,0.3324410915,-1.0636769533,-0.4058520794
        2.0213739872,        0.0029404908,-0.0015936494,-0.0055231005,0.3324410915,-1.0636769533,-0.0548999310
        2.0239348412,        0.0029404908,-0.0015936494,-0.0055231005,-0.1100637764,-0.5906544924,-0.0548999310
        2.0264978409,        0.0029404908,-0.0015936494,-0.0055231005,-0.1100637764,-0.5906544924,-0.0548999310
        2.0290739536,        0.0029404908,0.0023126006,-0.0035699755,-0.1863577217,-0.8195363283,0.0366528034
        2.0316410065,        0.0039170533,0.0023126006,-0.0035699755,-0.1863577217,-0.8195363283,0.0366528034
        2.0343198776,        0.0039170533,0.0023126006,-0.0035699755,-0.0642874092,-1.1399708986,-0.1159350872
        2.0368850231,        0.0039170533,0.0023126006,-0.0035699755,-0.0642874092,-1.1399708986,-0.1159350872
        2.0395619869,        0.0009873658,-0.0035467744,-0.0025934130,-0.1100637764,-1.4298878908,0.1129467487
        2.0421309471,        0.0009873658,-0.0035467744,-0.0025934130,-0.1100637764,-1.4298878908,0.1129467487
        2.0446939468,        0.0009873658,-0.0035467744,-0.0025934130,-0.0948049873,-0.8347951174,-0.2227466106
        2.0472588539,        0.0009873658,-0.0035467744,-0.0025934130,-0.0948049873,-0.8347951174,-0.2227466106
        2.0500459671,       -0.0004774779,0.0047540069,-0.0030816942,-0.3389456272,-0.1634083837,-0.1464526653
        2.0527448654,       -0.0004774779,0.0047540069,-0.0030816942,-0.3389456272,-0.1634083837,-0.1464526653
        2.0554399490,       -0.0004774779,0.0047540069,-0.0030816942,-0.5067923069,-0.4075490236,-0.1159350872
        2.0581479073,       -0.0004774779,0.0047540069,-0.0030816942,-0.5067923069,-0.4075490236,-0.1159350872
        2.0608530045,        0.0053818971,-0.0020819306,0.0022893995,0.1645944268,-0.6974660158,-0.1922290325
        2.0635528564,        0.0053818971,-0.0020819306,0.0022893995,0.1645944268,-0.6974660158,-0.1922290325
        2.0662498474,        0.0053818971,-0.0020819306,0.0022893995,0.0577829033,-1.1094533205,0.0366528034
        2.0689480305,        0.0053818971,-0.0020819306,0.0047308058,0.0577829033,-1.1094533205,0.0366528034
        2.0716419220,        0.0004990846,-0.0025702119,0.0047308058,-0.1253225654,-0.9263478518,-0.2990405560
        2.0743389130,        0.0004990846,-0.0025702119,0.0047308058,-0.1253225654,-0.9263478518,-0.2990405560
        2.0770339966,        0.0004990846,-0.0025702119,0.0047308058,0.1798532158,-0.6059132814,-0.0243823528
        2.0797400475,        0.0004990846,0.0018243194,-0.0104059130,0.1798532158,-0.6059132814,-0.0243823528
        2.0824339390,        0.0024522096,0.0018243194,-0.0104059130,0.1188180596,-0.7432423830,0.1129467487
        2.0851299763,        0.0024522096,0.0018243194,-0.0104059130,0.1188180596,-0.7432423830,0.1129467487
        2.0878338814,        0.0024522096,0.0018243194,-0.0104059130,0.5765817165,-1.4909230471,-0.3600757122
        2.0905330181,       -0.0043837279,-0.0069647431,0.0042425245,0.5765817165,-1.4909230471,-0.3600757122
        2.0932278633,       -0.0043837279,-0.0069647431,0.0042425245,0.0577829033,-0.8347951174,-0.1464526653
        2.0959229469,       -0.0043837279,-0.0069647431,0.0042425245,0.0577829033,-0.8347951174,-0.1464526653
        2.0987930298,       -0.0043837279,-0.0069647431,0.0042425245,0.3324410915,-0.8958302736,0.0061352253
        2.1014928818,       -0.0014540404,-0.0020819306,-0.0055231005,0.3324410915,-0.8958302736,0.0061352253
        2.1043908596,       -0.0014540404,-0.0020819306,-0.0055231005,0.1035592705,-0.5906544924,-0.1006762981
        2.1074588299,       -0.0014540404,-0.0020819306,-0.0055231005,0.1035592705,-0.5906544924,-0.1006762981
        2.1101758480,       -0.0004774779,0.0057305694,-0.0006402880,-0.4610159397,-0.2854787111,-0.0091235638
        2.1128740311,       -0.0004774779,0.0057305694,-0.0006402880,-0.4610159397,-0.2854787111,-0.0091235638
        2.1155688763,       -0.0004774779,0.0057305694,-0.0006402880,-0.2168752998,-0.5601369143,-0.0854175091
        2.1182768345,       -0.0004774779,0.0057305694,-0.0006402880,-0.2168752998,-0.5601369143,-0.0854175091
        2.1209719181,        0.0004990846,0.0032891631,-0.0079645067,0.3934762478,-0.8195363283,-0.2685229778
        2.1236698627,        0.0004990846,0.0032891631,-0.0079645067,0.3934762478,-0.8195363283,-0.2685229778
        2.1263709068,        0.0004990846,0.0032891631,-0.0079645067,0.4545114040,-0.8347951174,-0.3753345013
        2.1290810108,        0.0004990846,0.0032891631,-0.0079645067,0.4545114040,-0.8347951174,-0.3753345013
        2.1317789555,       -0.0009657592,0.0018243194,0.0032659620,0.1188180596,-0.6669484377,-0.2227466106
        2.1344778538,       -0.0009657592,0.0018243194,0.0032659620,0.1188180596,-0.6669484377,-0.2227466106
        2.1371769905,       -0.0009657592,0.0018243194,0.0032659620,-0.0032522529,-0.3922902346,-0.1617114544
        2.1397879124,       -0.0009657592,0.0018243194,0.0013128370,-0.0032522529,-0.3922902346,-0.1617114544
        2.1423540115,       -0.0004774779,0.0013360381,0.0013128370,0.0730416924,-0.1023732275,-0.0091235638
        2.1449208260,       -0.0004774779,0.0013360381,0.0013128370,0.0730416924,-0.1023732275,-0.0091235638
        2.1474850178,       -0.0004774779,0.0013360381,0.0013128370,-0.1863577217,-0.1176320165,0.2502758503
        2.1501379013,       -0.0004774779,0.0008477569,-0.0016168505,-0.1863577217,-0.1176320165,0.2502758503
        2.1527009010,       -0.0034071654,0.0008477569,-0.0016168505,-0.2779104710,-0.3770314455,0.2655346394
        2.1552610397,       -0.0034071654,0.0008477569,-0.0016168505,-0.2779104710,-0.3770314455,0.2655346394
        2.1579289436,       -0.0034071654,0.0008477569,-0.0016168505,-0.2779104710,-0.5906544924,0.3113110065
        2.1604959965,       -0.0034071654,0.0013360381,0.0008245558,-0.8577444553,-0.5906544924,0.3113110065
        2.1631629467,        0.0029404908,0.0013360381,0.0008245558,-0.8577444553,-0.3159962893,0.1434643269
        2.1657269001,        0.0029404908,0.0013360381,0.0008245558,-0.7204153538,-0.3159962893,0.1434643269
        2.1682958603,        0.0029404908,0.0013360381,0.0008245558,-0.7204153538,-0.3159962893,0.0976879597
        2.1708559990,       -0.0024306029,-0.0011053681,0.0071722120,-0.3389456272,-0.2854787111,0.0976879597
        2.1734199524,       -0.0024306029,-0.0011053681,0.0071722120,-0.3389456272,-0.2854787111,0.0976879597
        2.1759819984,       -0.0024306029,-0.0011053681,0.0071722120,-0.5067923069,0.0502146631,0.2197582722
        2.1785540581,       -0.0024306029,-0.0011053681,0.0071722120,-0.5067923069,0.0502146631,0.2197582722
        2.1811230183,       -0.0048720092,0.0042657256,-0.0011285692,-0.2779104710,0.1112498194,-0.0243823528
        2.1836860180,       -0.0048720092,0.0042657256,-0.0011285692,-0.2779104710,0.1112498194,-0.0243823528
        2.1862468719,       -0.0048720092,0.0042657256,-0.0011285692,0.4697701931,-0.0871144384,-0.1006762981
        2.1888549328,       -0.0048720092,0.0042657256,-0.0011285692,0.4697701931,-0.0871144384,-0.1006762981
        2.1914169788,        0.0024522096,0.0062188506,-0.0079645067,0.3476998806,-0.1328908056,-0.0396411419
        2.1939778328,        0.0024522096,0.0062188506,-0.0079645067,0.3476998806,-0.1328908056,-0.0396411419
        2.1965370178,        0.0024522096,0.0062188506,-0.0079645067,-0.4457571507,-0.0108204931,0.2197582722
        2.1992368698,        0.0024522096,0.0062188506,-0.0079645067,-0.4457571507,-0.0108204931,0.2197582722
        2.2018058300,        0.0004990846,0.0023126006,0.0003362745,0.1035592705,-0.0413380712,0.1434643269
        2.2043628693,        0.0004990846,0.0023126006,0.0003362745,0.1035592705,-0.0413380712,0.1434643269
        2.2069270611,        0.0004990846,0.0023126006,0.0003362745,0.3171823025,-0.0565968603,0.0519115925
        2.2095749378,        0.0004990846,0.0023126006,0.0003362745,0.3171823025,-0.0565968603,0.0519115925
        2.2121338844,       -0.0078016967,-0.0001288056,0.0071722120,0.3171823025,0.1875437647,-0.2837817669
        2.2149329185,       -0.0078016967,-0.0001288056,0.0071722120,0.0425241143,0.1875437647,-0.2837817669
        2.2175018787,       -0.0078016967,-0.0001288056,0.0071722120,0.0425241143,0.2180613428,-0.1464526653
        2.2202429771,       -0.0078016967,-0.0001288056,0.0071722120,0.5460641384,0.2180613428,-0.1464526653
        2.2228050232,       -0.0014540404,0.0023126006,0.0008245558,0.5460641384,0.2180613428,0.2350170612
        2.2254738808,       -0.0014540404,0.0023126006,0.0008245558,-0.1558401436,0.1722849756,0.2350170612
        2.2280869484,       -0.0014540404,0.0023126006,0.0008245558,-0.1558401436,0.1722849756,0.2960522175
        2.2306509018,       -0.0014540404,0.0023126006,-0.0001520067,-0.4152395725,0.4622019529,0.2960522175
        2.2332129478,       -0.0029188842,-0.0011053681,-0.0001520067,-0.4152395725,0.4622019529,0.2960522175
        2.2357759476,       -0.0029188842,-0.0011053681,-0.0001520067,-0.3999807835,0.3096140623,0.0671703815
        2.2383470535,       -0.0029188842,-0.0011053681,-0.0001520067,-0.3999807835,0.3096140623,0.0671703815
        2.2409160137,       -0.0029188842,0.0008477569,0.0018011183,-0.2931692600,0.5232371092,0.2044994831
        2.2434790134,        0.0058701783,0.0008477569,0.0018011183,-0.2931692600,0.5232371092,0.2044994831
        2.2460389137,        0.0058701783,0.0008477569,0.0018011183,-0.3084280491,0.5842722654,0.1587231159
        2.2486429214,        0.0058701783,0.0008477569,0.0018011183,-0.3084280491,0.5842722654,0.1587231159
        2.2512040138,        0.0058701783,0.0008477569,-0.0021051317,-0.9035208225,0.7368601561,0.2960522175
        2.2537648678,        0.0034287721,0.0008477569,-0.0021051317,-0.9035208225,0.7368601561,0.2960522175
        2.2563290596,        0.0034287721,0.0008477569,-0.0021051317,-0.5220510960,0.7063425779,0.0976879597
        2.2588989735,        0.0034287721,0.0008477569,-0.0021051317,-0.5220510960,0.7063425779,0.0976879597
        2.2617299557,        0.0014756471,0.0032891631,0.0066839308,-0.5067923069,0.2638376951,0.1892406940
        2.2642960548,        0.0014756471,0.0032891631,0.0066839308,-0.5067923069,0.2638376951,0.1892406940
        2.2668569088,        0.0014756471,0.0032891631,0.0066839308,-0.6746389866,0.8741892576,0.2350170612
        2.2694630623,        0.0014756471,0.0032891631,0.0066839308,-0.6746389866,0.8741892576,0.2350170612
        2.2720248699,        0.0068467408,0.0013360381,-0.0016168505,-0.6746389866,0.5079783201,0.0824291706
        2.2745840549,        0.0068467408,0.0013360381,-0.0016168505,-0.0185110420,0.5079783201,0.0824291706
        2.2771508694,        0.0068467408,0.0013360381,-0.0016168505,-0.0185110420,0.5079783201,0.0366528034
        2.2797689438,        0.0068467408,0.0013360381,-0.0016168505,-0.0490286201,0.4774607420,0.0366528034
        2.2823419571,       -0.0053602904,-0.0011053681,0.0003362745,-0.0490286201,0.4774607420,0.0366528034
        2.2849030495,       -0.0053602904,-0.0011053681,0.0003362745,-0.0795461982,0.3706492186,0.0976879597
        2.2875669003,       -0.0053602904,-0.0011053681,0.0003362745,-0.0795461982,0.3706492186,0.0976879597
        2.2901928425,       -0.0053602904,-0.0011053681,0.0003362745,0.0272653252,0.6758249998,0.1892406940
        2.2927529812,        0.0000108033,0.0047540069,0.0022893995,0.0272653252,0.6758249998,0.1892406940
        2.2953128815,        0.0000108033,0.0047540069,0.0022893995,-0.1405813545,0.7978953123,0.3113110065
        2.2978799343,        0.0000108033,0.0047540069,0.0022893995,-0.1405813545,0.7978953123,0.3113110065
        2.3004448414,        0.0000108033,0.0047540069,0.0022893995,-0.2779104710,0.6605662107,0.1434643269
        2.3030099869,        0.0000108033,-0.0006170869,-0.0128473192,-0.2779104710,0.6605662107,0.1434643269
        2.3055739403,        0.0000108033,-0.0006170869,-0.0128473192,-0.1100637764,0.3401316404,0.1129467487
        2.3082740307,        0.0000108033,-0.0006170869,-0.0128473192,-0.1100637764,0.3401316404,0.1129467487
        2.3108649254,        0.0000108033,-0.0006170869,-0.0128473192,-0.2168752998,0.4164255857,0.3265697956
        2.3134329319,       -0.0078016967,0.0018243194,-0.0001520067,-0.2168752998,0.4164255857,0.3265697956
        2.3159978390,       -0.0078016967,0.0018243194,-0.0001520067,-0.3236868382,1.0420359373,0.2197582722
        2.3187668324,       -0.0078016967,0.0018243194,-0.0001520067,-0.3236868382,1.0420359373,0.2197582722
        2.3214640617,       -0.0078016967,0.0018243194,0.0052190870,-0.2168752998,1.0725535154,0.1739819050
        2.3241660595,       -0.0058485717,0.0023126006,0.0052190870,-0.2168752998,1.0725535154,0.1739819050
        2.3268618584,       -0.0058485717,0.0023126006,0.0052190870,-0.3236868382,0.4316843748,0.1587231159
        2.3294909000,       -0.0058485717,0.0023126006,0.0052190870,-0.3236868382,0.4316843748,0.1587231159
        2.3320629597,       -0.0058485717,-0.0025702119,-0.0040582567,-0.3236868382,0.6605662107,0.5096752644
        2.3346309662,       -0.0063368529,-0.0025702119,-0.0040582567,-0.1710989326,0.6605662107,0.5096752644
        2.3371968269,       -0.0063368529,-0.0025702119,-0.0040582567,-0.1710989326,0.6605662107,0.5096752644
        2.3399088383,       -0.0063368529,-0.0025702119,-0.0040582567,-0.2016165107,0.2943552732,0.5096752644
        2.3426098824,       -0.0043837279,0.0013360381,0.0066839308,-0.2016165107,0.2943552732,0.4791576862
        2.3453149796,       -0.0043837279,0.0013360381,0.0066839308,-0.5830862522,0.3248728514,0.4791576862
        2.3480548859,       -0.0043837279,0.0013360381,0.0066839308,-0.5830862522,0.3248728514,0.3570873737
        2.3507268429,       -0.0043837279,0.0013360381,0.0066839308,-0.2931692600,0.5384958982,0.3570873737
        2.3532989025,        0.0078233033,0.0042657256,-0.0001520067,-0.2931692600,0.5384958982,0.0671703815
        2.3558650017,        0.0078233033,0.0042657256,-0.0001520067,-0.3999807835,0.5232371092,0.0671703815
        2.3585188389,        0.0078233033,0.0042657256,-0.0001520067,-0.3999807835,0.5232371092,0.3418285847
        2.3612179756,        0.0078233033,0.0042657256,-0.0001520067,-0.6898977757,0.7216013670,0.3418285847
        2.3639149666,        0.0029404908,0.0062188506,0.0013128370,-0.6898977757,0.7216013670,0.3418285847
        2.3666188717,        0.0029404908,0.0062188506,0.0013128370,-0.6136038303,0.7063425779,0.3418285847
        2.3693258762,        0.0029404908,0.0062188506,0.0013128370,-0.6136038303,0.7063425779,0.3418285847
        2.3720209599,        0.0029404908,0.0062188506,-0.0045465380,-0.7509329319,0.5995310545,0.1892406940
        2.3748369217,        0.0053818971,-0.0011053681,-0.0045465380,-0.7509329319,0.5995310545,0.4028637409
        2.3779358864,        0.0053818971,-0.0011053681,-0.0045465380,-0.6593801975,0.3706492186,0.4028637409
        2.3805098534,        0.0053818971,-0.0011053681,-0.0045465380,-0.6593801975,0.3706492186,0.3113110065
        2.3830749989,       -0.0014540404,0.0008477569,0.0042425245,-0.4915335178,0.4469431639,0.3113110065
        2.3856399059,       -0.0014540404,0.0008477569,0.0042425245,-0.4915335178,0.4469431639,0.3113110065
        2.3882780075,       -0.0014540404,0.0008477569,0.0042425245,-0.2168752998,0.6300486326,0.2350170612
        2.3909790516,       -0.0014540404,0.0008477569,0.0042425245,-0.2168752998,0.6300486326,0.2350170612
        2.3936769962,        0.0039170533,0.0037774444,0.0037542433,-0.3542044163,0.6910837889,0.4944164753
        2.3963799477,        0.0039170533,0.0037774444,0.0037542433,-0.3542044163,0.6910837889,0.4944164753
        2.3990859985,        0.0039170533,0.0037774444,0.0037542433,-0.2626516819,0.5384958982,0.3113110065
        2.4017858505,        0.0039170533,0.0037774444,0.0037542433,-0.2626516819,0.5384958982,0.3113110065
        2.4044849873,        0.0009873658,-0.0020819306,-0.0060113817,-0.5525686741,0.3859080076,0.2350170612
        2.4071860313,        0.0009873658,-0.0020819306,-0.0060113817,-0.5525686741,0.3859080076,0.2350170612
        2.4098000526,        0.0009873658,-0.0020819306,-0.0060113817,-0.3999807835,0.5995310545,0.4181225300
        2.4123699665,        0.0009873658,-0.0020819306,-0.0006402880,-0.3999807835,0.5995310545,0.4181225300
        2.4150328636,       -0.0048720092,0.0013360381,-0.0006402880,-0.6593801975,0.7216013670,0.2655346394
        2.4176020622,       -0.0048720092,0.0013360381,-0.0006402880,-0.6593801975,0.7216013670,0.2655346394
        2.4201929569,       -0.0048720092,0.0013360381,-0.0006402880,-0.2931692600,0.6453074217,0.0519115925
        2.4227619171,       -0.0048720092,0.0037774444,0.0003362745,-0.2931692600,0.6453074217,0.0519115925
        2.4253289700,       -0.0048720092,0.0037774444,0.0003362745,-0.4304983616,0.8741892576,0.1587231159
        2.4279580116,       -0.0048720092,0.0037774444,0.0003362745,-0.4304983616,0.8741892576,0.1587231159
        2.4305520058,       -0.0048720092,0.0037774444,0.0003362745,0.0577829033,0.7216013670,0.0976879597
        2.4331169128,       -0.0048720092,0.0013360381,-0.0030816942,0.0577829033,0.7216013670,0.0976879597
        2.4356820583,        0.0044053346,0.0013360381,-0.0030816942,-0.0185110420,0.1417673975,-0.1769702435
        2.4384100437,        0.0044053346,0.0013360381,-0.0030816942,-0.0185110420,0.1417673975,-0.1769702435
        2.4411170483,        0.0044053346,0.0013360381,-0.0030816942,-0.3694632053,0.2638376951,0.2807934284
        2.4438209534,        0.0004990846,0.0013360381,0.0013128370,-0.3694632053,0.2638376951,0.2807934284
        2.4465198517,        0.0004990846,0.0013360381,0.0013128370,-0.7967092991,0.5232371092,0.3113110065
        2.4492659569,        0.0004990846,0.0013360381,0.0013128370,-0.7967092991,0.5232371092,0.3113110065
        2.4519579411,        0.0004990846,0.0013360381,0.0013128370,-1.1781790257,0.2790964842,0.3113110065
        2.4546549320,        0.0092881471,0.0042657256,-0.0001520067,-1.1781790257,0.2790964842,0.3113110065
        2.4573509693,        0.0092881471,0.0042657256,-0.0001520067,-0.9492971897,0.3859080076,0.1129467487
        2.4600670338,        0.0092881471,0.0042657256,-0.0001520067,-0.9492971897,0.3859080076,0.1129467487
        2.4627618790,        0.0092881471,0.0042657256,0.0042425245,-0.4610159397,0.0959910303,0.3113110065
        2.4654679298,        0.0019639283,0.0028008819,0.0042425245,-0.4610159397,0.0959910303,0.3113110065
        2.4681668282,        0.0019639283,0.0028008819,0.0042425245,-0.4610159397,0.2180613428,0.1892406940
        2.4707310200,        0.0019639283,0.0028008819,0.0042425245,-0.6593801975,0.2180613428,0.1892406940
        2.4732978344,        0.0019639283,-0.0006170869,0.0022893995,-0.6593801975,0.2180613428,0.0824291706
        2.4758639336,       -0.0004774779,-0.0006170869,0.0022893995,-0.7204153538,0.2485789210,0.0824291706
        2.4784908295,       -0.0004774779,-0.0006170869,0.0022893995,-0.7204153538,0.2485789210,-0.1311938763
        2.4811668396,       -0.0004774779,-0.0006170869,0.0022893995,-0.4610159397,0.0349558741,-0.1311938763
        2.4837360382,        0.0063584596,0.0023126006,0.0027776808,-0.4610159397,0.0349558741,-0.1311938763
        2.4863040447,        0.0063584596,0.0023126006,0.0027776808,-0.8119680882,0.1112498194,0.1739819050
        2.4889478683,        0.0063584596,0.0023126006,0.0027776808,-0.8119680882,0.1112498194,0.1739819050
        2.4916410446,        0.0063584596,0.0023126006,0.0027776808,-0.5525686741,0.3248728514,-0.0854175091
        2.4944639206,       -0.0014540404,0.0023126006,0.0027776808,-0.5525686741,0.3248728514,-0.0854175091
        2.4971580505,       -0.0014540404,0.0023126006,0.0027776808,-0.4762747288,0.4011667967,0.2197582722
        2.5002639294,       -0.0014540404,0.0023126006,0.0027776808,-0.4762747288,0.4011667967,0.1129467487
        2.5029640198,       -0.0014540404,0.0023126006,0.0018011183,-0.9187796116,0.3096140623,0.1129467487
        2.5056600571,       -0.0063368529,0.0018243194,0.0018011183,-0.9187796116,0.3096140623,0.0671703815
        2.5083789825,       -0.0063368529,0.0018243194,0.0018011183,-0.4915335178,0.3401316404,0.0671703815
        2.5110819340,       -0.0063368529,0.0018243194,0.0018011183,-0.4915335178,0.3401316404,-0.2380053997
        2.5137789249,       -0.0063368529,0.0013360381,0.0013128370,-0.7204153538,0.6147898436,-0.2380053997
        2.5164828300,        0.0024522096,0.0013360381,0.0013128370,-0.7204153538,0.6147898436,-0.5126636028
        2.5191800594,        0.0024522096,0.0013360381,0.0013128370,-0.3542044163,0.3553904295,-0.5126636028
        2.5218799114,        0.0024522096,0.0013360381,0.0013128370,-0.3542044163,0.3553904295,-0.0396411419
        2.5245759487,        0.0053818971,-0.0015936494,0.0003362745,-0.6593801975,0.4774607420,-0.0396411419
        2.5272710323,        0.0053818971,-0.0015936494,0.0003362745,-0.6593801975,0.4774607420,-0.0396411419
        2.5298850536,        0.0053818971,-0.0015936494,0.0003362745,-0.5678274632,0.4622019529,-0.0243823528
        2.5324499607,        0.0053818971,-0.0015936494,0.0003362745,-0.5678274632,0.4622019529,-0.0243823528
        2.5350120068,        0.0029404908,0.0008477569,0.0076604933,-1.0866262913,0.2638376951,-0.1311938763
        2.5375769138,        0.0029404908,0.0008477569,0.0076604933,-1.0866262913,0.2638376951,-0.1311938763
        2.5401968956,        0.0029404908,0.0008477569,0.0076604933,-0.5983450413,0.2028025538,-0.4363696575
        2.5427680016,        0.0029404908,0.0008477569,0.0076604933,-0.5983450413,0.2028025538,-0.4363696575
        2.5454330444,       -0.0014540404,-0.0020819306,0.0047308058,-0.5983450413,0.5079783201,-0.2685229778
        2.5481739044,       -0.0014540404,-0.0020819306,0.0047308058,-0.5983450413,0.5079783201,-0.2685229778
        2.5507500172,       -0.0014540404,-0.0020819306,0.0047308058,-0.5067923069,0.1722849756,-0.4516284466
        2.5533149242,       -0.0014540404,-0.0020819306,0.0047308058,-0.5067923069,0.1722849756,-0.4516284466
        2.5558798313,        0.0102647096,-0.0025702119,-0.0104059130,-0.1863577217,-0.0718556494,-0.7720630169
        2.5586059093,        0.0102647096,-0.0025702119,-0.0104059130,-0.1863577217,-0.0718556494,-0.7720630169
        2.5613059998,        0.0102647096,-0.0025702119,-0.0104059130,-0.1710989326,-0.0718556494,-0.8178393841
        2.5640079975,        0.0102647096,-0.0006170869,0.0027776808,-0.1710989326,-0.0718556494,-0.8178393841
        2.5667040348,        0.0058701783,-0.0006170869,0.0027776808,-0.3542044163,-0.0565968603,-0.3295581341
        2.5694019794,        0.0058701783,-0.0006170869,0.0027776808,-0.3542044163,-0.0565968603,-0.3295581341
        2.5721030235,        0.0058701783,-0.0006170869,0.0027776808,-0.5678274632,-0.4991017580,-0.7110278606
        2.5748009682,        0.0009873658,-0.0030584931,0.0003362745,-0.5678274632,-0.4991017580,-0.7110278606
        2.5774948597,        0.0009873658,-0.0030584931,0.0003362745,-0.1863577217,-0.3922902346,-0.7873218060
        2.5800778866,        0.0009873658,-0.0030584931,0.0003362745,-0.1863577217,-0.3922902346,-0.7873218060
        2.5826468468,        0.0009873658,-0.0030584931,0.0003362745,-0.2931692600,-0.1939259619,-0.8941333294
        2.5852189064,        0.0063584596,-0.0006170869,0.0027776808,-0.2931692600,-0.1939259619,-0.8941333294
        2.5878078938,        0.0063584596,-0.0006170869,0.0027776808,-0.2931692600,0.1722849756,-0.7262866497
        2.5904989243,        0.0063584596,-0.0006170869,0.0027776808,-0.1253225654,0.1722849756,-0.7262866497
        2.5932040215,        0.0063584596,-0.0006170869,0.0027776808,-0.1253225654,0.0654734522,-0.9856860638
        2.5958988667,        0.0039170533,-0.0001288056,-0.0035699755,-0.4915335178,0.0654734522,-0.9856860638
        2.5985970497,        0.0039170533,-0.0001288056,-0.0035699755,-0.4915335178,0.3096140623,-0.8178393841
        2.6013050079,        0.0039170533,-0.0001288056,-0.0035699755,-0.6288626194,0.3096140623,-0.8178393841
        2.6039979458,        0.0039170533,-0.0001288056,-0.0021051317,-0.6288626194,0.0349558741,-0.8330981731
        2.6067008972,        0.0004990846,-0.0054998994,-0.0021051317,-0.1405813545,0.0349558741,-0.8330981731
        2.6095108986,        0.0004990846,-0.0054998994,-0.0021051317,-0.1405813545,0.4316843748,-1.1687915325
        2.6122088432,        0.0004990846,-0.0054998994,-0.0021051317,-0.6288626194,0.4316843748,-1.1687915325
        2.6151578426,       -0.0204970092,-0.0069647431,-0.0177301317,-0.6288626194,0.7826365232,-0.5584399700
        2.6182458401,       -0.0204970092,-0.0069647431,-0.0177301317,-1.9106009007,0.7826365232,-0.5584399700
        2.6208209991,       -0.0204970092,-0.0069647431,-0.0177301317,-2.3836233616,0.4316843748,0.1129467487
        2.6233830452,       -0.0204970092,-0.0069647431,-0.0177301317,-2.3836233616,0.4316843748,0.1129467487
        2.6260688305,       -0.0204970092,-0.0128241181,-0.0104059130,-2.3836233616,0.1570261866,0.2655346394
        2.6287000179,       -0.0204970092,-0.0128241181,-0.0104059130,-3.3449270725,0.1570261866,0.2655346394
        2.6313600540,       -0.0204970092,-0.0128241181,-0.0104059130,-7.2511768341,0.1875437647,0.3570873737
        2.6340179443,       -0.0204970092,-0.0128241181,-0.0104059130,-4.1536426544,0.1875437647,0.3570873737
        2.6367440224,       -0.0287977904,-0.0040350556,-0.0113824755,-4.1536426544,0.1112498194,0.6622631550
        2.6394889355,       -0.0287977904,-0.0040350556,-0.0113824755,-5.0386524200,0.1112498194,0.6622631550
        2.6421868801,       -0.0287977904,-0.0040350556,-0.0113824755,-5.0386524200,0.7063425779,0.4028637409
        2.6448829174,       -0.0287977904,0.0106133819,-0.0133356005,-5.7710742950,0.7063425779,0.4028637409
        2.6475708485,       -0.0429579467,0.0106133819,-0.0133356005,-5.7710742950,1.3472117186,-0.0243823528
        2.6501579285,       -0.0429579467,0.0106133819,-0.0133356005,-5.5116748810,1.3472117186,-0.0243823528
        2.6527178288,       -0.0429579467,0.0106133819,-0.0133356005,-5.5116748810,1.3472117186,-0.1922290325
        2.6552920341,       -0.0453993529,0.0101251006,-0.0069879442,-4.9470996857,1.8660105467,-0.1922290325
        2.6578528881,       -0.0453993529,0.0101251006,-0.0069879442,-4.9470996857,1.8660105467,-0.1922290325
        2.6604180336,       -0.0453993529,0.0101251006,-0.0069879442,-4.1231250763,1.8812693357,-0.3448169231
        2.6629898548,       -0.0453993529,0.0101251006,-0.0069879442,-4.1231250763,1.8812693357,-0.3448169231
        2.6655550003,       -0.0512587279,-0.0006170869,-0.0113824755,-4.9470996857,1.6523874998,-0.1769702435
        2.6682100296,       -0.0512587279,-0.0006170869,-0.0113824755,-4.9470996857,1.6523874998,-0.1769702435
        2.6707899570,       -0.0512587279,-0.0006170869,-0.0113824755,-6.4119434357,1.6371287107,0.0061352253
        2.6734590530,       -0.0512587279,-0.0006170869,-0.0113824755,-6.4119434357,1.6371287107,0.0061352253
        2.6760258675,       -0.0527235717,-0.0108709931,0.0003362745,-6.8544483185,1.7286814451,-0.1311938763
        2.6787869930,       -0.0527235717,-0.0108709931,0.0003362745,-6.8544483185,1.7286814451,-0.1311938763
        2.6814758778,       -0.0527235717,-0.0108709931,0.0003362745,-7.9530811310,2.2169628143,-0.4363696575
        2.6841788292,       -0.0527235717,-0.0108709931,0.0003362745,-7.9530811310,2.2169628143,-0.4363696575
        2.6868729591,       -0.0497938842,0.0067071319,-0.0055231005,-8.7312793732,2.2627391815,-0.4211108685
        2.6895818710,       -0.0497938842,0.0067071319,-0.0055231005,-8.7312793732,2.2627391815,-0.4211108685
        2.6922788620,       -0.0497938842,0.0067071319,-0.0055231005,-8.6549854279,2.4153270721,-0.5126636028
        2.6949720383,       -0.0497938842,0.0067071319,-0.0064996630,-8.6549854279,2.4153270721,-0.5126636028
        2.6976699829,       -0.0434462279,0.0120782256,-0.0064996630,-8.3345508575,2.3237743378,-1.0619800091
        2.7003729343,       -0.0434462279,0.0120782256,-0.0064996630,-8.3345508575,2.3237743378,-1.0619800091
        2.7030708790,       -0.0434462279,0.0120782256,-0.0064996630,-8.2887744904,2.0796337128,-1.1993091106
        2.7058689594,       -0.0297743529,0.0115899444,-0.0045465380,-8.2887744904,2.0796337128,-1.1993091106
        2.7085380554,       -0.0297743529,0.0115899444,-0.0045465380,-7.5716114044,2.1254100800,-0.9399096966
        2.7110979557,       -0.0297743529,0.0115899444,-0.0045465380,-7.5716114044,2.1254100800,-0.9399096966
        2.7136659622,       -0.0297743529,0.0115899444,-0.0045465380,-7.0222949982,2.1559276581,-0.8941333294
        2.7162270546,       -0.0327040404,-0.0035467744,-0.0050348192,-7.0222949982,2.1559276581,-0.8941333294
        2.7188689709,       -0.0327040404,-0.0035467744,-0.0050348192,-7.0833301544,2.2322216034,-1.2756030560
        2.7214348316,       -0.0327040404,-0.0035467744,-0.0050348192,-7.0833301544,2.2322216034,-1.2756030560
        2.7239940166,       -0.0327040404,-0.0035467744,-0.0050348192,-7.0833301544,2.2322216034,-1.4739673138
        2.7265620232,       -0.0190321654,-0.0045233369,-0.0064996630,-6.6866016388,2.2322216034,-1.4739673138
        2.7292029858,       -0.0190321654,-0.0045233369,-0.0064996630,-6.6866016388,2.2779979706,-1.1230151653
        2.7318978310,       -0.0190321654,-0.0045233369,-0.0064996630,-5.8473682404,2.2779979706,-1.1230151653
        2.7348299026,       -0.0190321654,-0.0045233369,-0.0064996630,-5.8473682404,2.1711864471,-1.1230151653
        2.7380809784,       -0.0141493529,-0.0113592744,0.0022893995,-5.6795215607,2.1711864471,-1.1230151653
        2.7407908440,       -0.0141493529,-0.0113592744,0.0022893995,-5.4658985138,2.3848094940,-0.7415454388
        2.7434859276,       -0.0141493529,-0.0113592744,0.0022893995,-5.4658985138,2.3848094940,-0.7415454388
        2.7461869717,       -0.0117079467,-0.0050116181,-0.0064996630,-5.0996875763,2.6899852753,-0.6499927044
        2.7488958836,       -0.0117079467,-0.0050116181,-0.0064996630,-5.0996875763,2.6899852753,-0.6499927044
        2.7515919209,       -0.0117079467,-0.0050116181,-0.0064996630,-6.0457324982,2.7967967987,-0.6347339153
        2.7542920113,       -0.0117079467,-0.0050116181,-0.0064996630,-6.0457324982,2.7967967987,-0.6347339153
        2.7569890022,       -0.0078016967,-0.0098944306,-0.0050348192,-6.4119434357,2.7967967987,-0.5126636028
        2.7596969604,       -0.0078016967,-0.0098944306,-0.0050348192,-6.4119434357,2.7967967987,-0.5126636028
        2.7623939514,       -0.0078016967,-0.0098944306,-0.0050348192,-6.8086719513,2.8273143768,-0.4211108685
        2.7650878429,       -0.0078016967,-0.0098944306,-0.0050348192,-6.8086719513,2.8273143768,-0.4211108685
        2.7677879333,       -0.0078016967,-0.0030584931,0.0052190870,-7.0833301544,3.2850780487,-0.3600757122
        2.7703549862,       -0.0078016967,-0.0030584931,0.0052190870,-7.0833301544,3.2850780487,-0.3600757122
        2.7729158401,       -0.0078016967,-0.0030584931,0.0052190870,-7.0833301544,3.6512889862,-0.3142993450
        2.7754819393,       -0.0078016967,-0.0030584931,0.0052190870,-7.3579883575,3.6512889862,-0.3142993450
        2.7780909538,        0.0019639283,0.0145196319,0.0018011183,-7.3579883575,7.5575389862,-0.4516284466
        2.7806499004,        0.0019639283,0.0145196319,0.0018011183,-7.4190235138,4.2006053925,-0.4516284466
        2.7832179070,        0.0019639283,0.0145196319,0.0018011183,-7.4190235138,4.2006053925,-0.5431811810
        2.7857768536,        0.0019639283,0.0145196319,0.0120550245,-6.7171192169,4.1700878143,-0.5431811810
        2.7884008884,        0.0083115846,0.0111016631,0.0120550245,-6.7171192169,4.1700878143,-0.5431811810
        2.7909748554,        0.0083115846,0.0111016631,0.0120550245,-6.5492725372,4.3531932831,-0.2380053997
        2.7935369015,        0.0083115846,0.0111016631,0.0120550245,-6.5492725372,4.3531932831,-0.2380053997
        2.7961058617,        0.0083115846,0.0111016631,0.0013128370,-6.6560840607,4.3379344940,0.0366528034
        2.7987978458,        0.0131943971,0.0013360381,0.0013128370,-6.6560840607,4.3379344940,0.0366528034
        2.8016028404,        0.0131943971,0.0013360381,0.0013128370,-6.9612598419,4.2616405487,0.0061352253
        2.8043060303,        0.0131943971,0.0013360381,0.0013128370,-6.9612598419,4.2616405487,0.0061352253
        2.8069999218,        0.0224717408,0.0018243194,0.0164495558,-6.7781543732,4.4447460175,-0.1006762981
        2.8097088337,        0.0224717408,0.0018243194,0.0164495558,-6.7781543732,4.4447460175,-0.1006762981
        2.8124089241,        0.0224717408,0.0018243194,0.0164495558,-6.6103076935,4.4294872284,-0.2990405560
        2.8150990009,        0.0224717408,0.0018243194,0.0164495558,-6.6103076935,4.4294872284,-0.2990405560
        2.8178079128,        0.0283311158,-0.0001288056,0.0364690870,-5.9541797638,4.9330272675,-0.5736987591
        2.8203718662,        0.0283311158,-0.0001288056,0.0364690870,-5.9541797638,4.9330272675,-0.5736987591
        2.8229360580,        0.0283311158,-0.0001288056,0.0364690870,-4.9623584747,4.9788036346,-0.2990405560
        2.8255069256,        0.0283311158,-0.0001288056,0.0364690870,-4.9623584747,4.9788036346,-0.2990405560
        2.8281028271,        0.0312608033,0.0042657256,0.0452581495,-4.7792530060,4.8109569550,-0.3448169231
        2.8306670189,        0.0312608033,0.0042657256,0.0452581495,-4.7792530060,4.8109569550,-0.3448169231
        2.8332419395,        0.0312608033,0.0042657256,0.0452581495,-4.4283008575,4.5668163300,-0.5889575481
        2.8358049393,        0.0312608033,0.0042657256,0.0452581495,-4.4283008575,4.5668163300,-0.5889575481
        2.8384099007,        0.0332139283,0.0091485381,0.0398870558,-3.7721731663,4.3989696503,-0.3142993450
        2.8411059380,        0.0332139283,0.0091485381,0.0398870558,-3.7721731663,4.3989696503,-0.3142993450
        2.8438010216,        0.0332139283,0.0091485381,0.0398870558,-3.4975149632,4.5210399628,-0.0243823528
        2.8464989662,        0.0332139283,0.0091485381,0.0398870558,-3.4975149632,4.5210399628,-0.0243823528
        2.8492019176,        0.0390733033,0.0140313506,0.0398870558,-3.4975149632,4.3837108612,-0.1617114544
        2.8518998623,        0.0390733033,0.0140313506,0.0398870558,-2.3378469944,4.3837108612,-0.1617114544
        2.8549139500,        0.0390733033,0.0140313506,0.0398870558,-1.9563772678,4.3989696503,-0.3753345013
        2.8580439091,        0.0400498658,0.0037774444,0.0428167433,-1.9563772678,4.3989696503,-0.3753345013
        2.8607549667,        0.0400498658,0.0037774444,0.0428167433,-2.1394827366,3.9717235565,-0.0243823528
        2.8634560108,        0.0400498658,0.0037774444,0.0428167433,-2.1394827366,3.9717235565,-0.0243823528
        2.8662588596,        0.0400498658,0.0037774444,0.0428167433,-2.1700003147,4.1395702362,0.1129467487
        2.8689310551,        0.0454209596,0.0013360381,0.0457464308,-2.1700003147,4.1395702362,0.1129467487
        2.8714959621,        0.0454209596,0.0013360381,0.0457464308,-1.2239553928,3.6970653534,0.0061352253
        2.8740708828,        0.0454209596,0.0013360381,0.0457464308,-1.2239553928,3.6970653534,0.0061352253
        2.8766388893,        0.0454209596,0.0013360381,0.0437933058,-1.1324026585,3.7581005096,0.2197582722
        2.8793129921,        0.0473740846,-0.0025702119,0.0437933058,-1.1324026585,3.7581005096,0.2197582722
        2.8820149899,        0.0473740846,-0.0025702119,0.0437933058,-1.0103323460,3.6665477753,0.2044994831
        2.8847138882,        0.0473740846,-0.0025702119,0.0437933058,-1.0103323460,3.6665477753,0.2044994831
        2.8874108791,        0.0473740846,0.0023126006,0.0442815870,-0.3389456272,3.6207714081,0.1434643269
        2.8900148869,        0.0420029908,0.0023126006,0.0442815870,-0.3389456272,3.6207714081,0.1434643269
        2.8925850391,        0.0420029908,0.0023126006,0.0442815870,-0.3389456272,3.1324901581,0.0824291706
        2.8951518536,        0.0420029908,0.0023126006,0.0442815870,0.2408883721,3.1324901581,0.0824291706
        2.8977198601,        0.0512803346,0.0120782256,0.0418401808,0.2408883721,3.1324901581,0.0671703815
        2.9003338814,        0.0512803346,0.0120782256,0.0418401808,0.4087350368,2.7662792206,0.0671703815
        2.9029090405,        0.0512803346,0.0120782256,0.0418401808,0.4087350368,2.7662792206,0.0061352253
        2.9054780006,        0.0512803346,0.0120782256,0.0418401808,0.5613229275,2.4305858612,0.0061352253
