time, acceleration x, acceleration y, acceleration z, gyro x gyro y, gyro z
        0.0000000000,        0.0218480825,-0.0104672313,0.0259176325,-1.1330382824,6.0131802559,-17.1163311005
        0.0025601387,        0.0218480825,-0.0104672313,0.0259176325,-1.1330382824,6.0131802559,-16.9790019989
        0.0051200390,        0.0218480825,-0.0104672313,0.0259176325,1.4304382801,5.1129117012,-16.9790019989
        0.0076780319,        0.0218480825,-0.0104672313,0.0259176325,1.4304382801,4.8382534981,-16.4449443817
        0.0109980106,        0.0071996450,-0.0055844188,0.0156637263,3.9481384754,4.8382534981,-16.4449443817
        0.0136880875,        0.0071996450,-0.0055844188,0.0156637263,3.9481384754,4.5025601387,-16.3686504364
        0.0163879395,        0.0071996450,-0.0055844188,0.0156637263,5.3061704636,4.5025601387,-16.3686504364
        0.0190250874,        0.0071996450,-0.0055844188,0.0469137281,5.3061704636,8.4088096619,-15.7735576630
        0.0215899944,        0.0013402700,-0.0309750438,0.0469137281,6.9693784714,4.5941128731,-15.7735576630
        0.0241470337,        0.0013402700,-0.0309750438,0.0469137281,6.9693784714,4.5941128731,-14.4765605927
        0.0267059803,        0.0013402700,-0.0309750438,0.0469137281,7.8849058151,5.2349820137,-14.4765605927
        0.0292949677,        0.0013402700,-0.0285336375,0.0459371656,7.8849058151,5.2349820137,-10.5703105927
        0.0318629742,        0.0047582388,-0.0285336375,0.0459371656,8.2663755417,5.0518765450,-13.7441387177
        0.0344290733,        0.0047582388,-0.0285336375,0.0459371656,8.2663755417,5.0518765450,-13.7441387177
        0.0369980335,        0.0047582388,-0.0285336375,0.0459371656,8.9530210495,5.2807583809,-12.6760234833
        0.0396380424,        0.0047582388,-0.0348812938,0.0503316969,8.9530210495,5.2807583809,-12.6760234833
        0.0422129631,        0.0111058950,-0.0348812938,0.0503316969,9.4565610886,5.9826626778,-11.5773906708
        0.0447800159,        0.0111058950,-0.0348812938,0.0503316969,9.4565610886,5.9826626778,-11.5773906708
        0.0473399162,        0.0111058950,-0.0348812938,0.0503316969,8.2663755417,6.4556851387,-11.0128154755
        0.0500979424,       -0.0108667612,-0.0719906688,0.0522848219,8.2663755417,6.4556851387,-11.0128154755
        0.0528221130,       -0.0108667612,-0.0719906688,0.0522848219,6.9083433151,7.6000943184,-9.9447002411
        0.0553901196,       -0.0108667612,-0.0719906688,0.0522848219,6.9083433151,7.6000943184,-9.9447002411
        0.0580921173,       -0.0108667612,-0.0719906688,0.0522848219,6.4658384323,8.8818321228,-9.0291728973
        0.0607991219,       -0.0162378550,-0.0461117625,0.0596090406,6.4658384323,8.8818321228,-9.0291728973
        0.0635061264,       -0.0162378550,-0.0461117625,0.0596090406,6.3132505417,9.4158897400,-8.4798564911
        0.0661990643,       -0.0162378550,-0.0461117625,0.0596090406,6.3132505417,9.4158897400,-8.4798564911
        0.0689039230,       -0.0162378550,-0.0461117625,0.0596090406,7.1372251511,10.0567588806,-8.4493389130
        0.0716040134,       -0.0137964487,-0.0050961375,0.0303121638,7.1372251511,10.0567588806,-8.4493389130
        0.0743160248,       -0.0137964487,-0.0050961375,0.0303121638,7.3813657761,10.0262413025,-8.7392559052
        0.0768799782,       -0.0137964487,-0.0050961375,0.0303121638,7.3813657761,10.0262413025,-8.7392559052
        0.0795660019,       -0.0137964487,-0.0050961375,0.0127340388,7.6712827682,10.6518516541,-8.8765850067
        0.0821409225,       -0.0035425425,-0.0085141063,0.0127340388,7.6712827682,10.6518516541,-8.8765850067
        0.0855259895,       -0.0035425425,-0.0085141063,0.0127340388,7.5186948776,10.8654747009,-9.4869365692
        0.0881350040,       -0.0035425425,-0.0085141063,0.0127340388,7.5186948776,10.8654747009,-9.4869365692
        0.0906970501,        0.0067113638,-0.0011898875,0.0151754450,5.6266050339,10.7281455994,-10.0820293427
        0.0932600498,        0.0067113638,-0.0011898875,0.0151754450,5.6266050339,10.7281455994,-10.0820293427
        0.0959579945,        0.0067113638,-0.0011898875,0.0151754450,4.0702085495,10.8654747009,-10.3566875458
        0.0985260010,        0.0067113638,-0.0011898875,0.0151754450,4.0702085495,10.8654747009,-10.3566875458
        0.1010890007,        0.0047582388,-0.0046078563,0.0088277888,2.3001892567,10.5602989197,-10.5550518036
        0.1036500931,        0.0047582388,-0.0046078563,0.0088277888,2.3001892567,10.5602989197,-10.5550518036
        0.1062090397,        0.0047582388,-0.0046078563,0.0088277888,2.3001892567,10.7281455994,-10.5703105927
        0.1088230610,        0.0047582388,-0.0046078563,0.0088277888,0.0113708973,10.7281455994,-10.5703105927
        0.1113889217,        0.0120824575,-0.0002133250,0.0224996638,0.0113708973,10.7281455994,-10.7228984833
        0.1139490604,        0.0120824575,-0.0002133250,0.0224996638,-2.5063292980,10.8502159119,-10.7228984833
        0.1166219711,        0.0120824575,-0.0002133250,0.0224996638,-2.5063292980,10.8502159119,-10.8602275848
        0.1192269325,        0.0120824575,-0.0002133250,0.0224996638,-3.4523742199,11.6436729431,-10.8602275848
        0.1217849255,        0.0360082388,0.0075991750,0.0308004450,-3.4523742199,11.6436729431,-10.8602275848
        0.1243469715,        0.0360082388,0.0075991750,0.0308004450,-2.9488341808,10.7434043884,-10.3719463348
        0.1269080639,        0.0360082388,0.0075991750,0.0308004450,-2.9488341808,10.7434043884,-10.3719463348
        0.1295540333,        0.0360082388,0.0075991750,0.0308004450,-2.4605529308,10.6060752869,-10.3719463348
        0.1321260929,        0.0272191763,0.0061343312,0.0171285700,-2.4605529308,10.6060752869,-10.3719463348
        0.1346960068,        0.0272191763,0.0061343312,0.0171285700,-2.0333068371,10.7739219666,-10.8907451630
        0.1372609138,        0.0272191763,0.0061343312,0.0171285700,-2.0333068371,10.7739219666,-10.8907451630
        0.1400320530,        0.0272191763,0.0061343312,0.0254293513,-1.3314025402,10.9417686462,-11.2416973114
        0.1427159309,        0.0350316763,0.0100405812,0.0254293513,-1.3314025402,10.9417686462,-11.2416973114
        0.1454000473,        0.0350316763,0.0100405812,0.0254293513,-1.2245910168,11.0790977478,-11.5010967255
        0.1480960846,        0.0350316763,0.0100405812,0.0254293513,-1.2245910168,11.0790977478,-11.5010967255
        0.1507830620,        0.0350316763,0.0290835500,0.0347066969,-0.0801818371,10.1330528259,-11.8673076630
        0.1534669399,        0.0418676138,0.0290835500,0.0347066969,-0.0801818371,10.1330528259,-11.8673076630
        0.1561489105,        0.0418676138,0.0290835500,0.0347066969,1.2320740223,9.2327842712,-12.6607646942
        0.1588759422,        0.0418676138,0.0290835500,0.0347066969,1.2320740223,9.2327842712,-12.6607646942
        0.1615619659,        0.0408910513,0.0271304250,0.0166402888,2.2544128895,9.3701133728,-12.9964580536
        0.1642489433,        0.0408910513,0.0271304250,0.0166402888,2.2544128895,9.3701133728,-12.9964580536
        0.1669330597,        0.0408910513,0.0271304250,0.0166402888,2.8800232410,9.4158897400,-13.1490459442
        0.1696970463,        0.0408910513,0.0271304250,0.0166402888,2.8800232410,9.4158897400,-13.1490459442
        0.1722640991,        0.0335668325,0.0144351125,-0.0004495550,2.7121765614,9.4464073181,-13.3321514130
        0.1748321056,        0.0335668325,0.0144351125,-0.0004495550,2.7121765614,9.4464073181,-13.3321514130
        0.1774060726,        0.0335668325,0.0144351125,-0.0004495550,2.9715759754,9.6142539978,-13.5915508270
        0.1803181171,        0.0335668325,0.0144351125,0.0010152888,2.9715759754,9.6142539978,-13.5915508270
        0.1835241318,        0.0306371450,0.0071108937,0.0010152888,3.3683044910,9.6295127869,-13.3931865692
        0.1862161160,        0.0306371450,0.0071108937,0.0010152888,3.3683044910,9.6295127869,-13.3931865692
        0.1888971329,        0.0306371450,0.0071108937,0.0010152888,3.6429626942,9.2327842712,-13.2558574677
        0.1915609837,        0.0218480825,0.0080874562,0.0044332575,3.6429626942,9.2327842712,-13.2558574677
        0.1942179203,        0.0218480825,0.0080874562,0.0044332575,4.0244321823,9.2022666931,-13.0880107880
        0.1970279217,        0.0218480825,0.0080874562,0.0044332575,4.0244321823,9.2022666931,-13.0880107880
        0.1997349262,        0.0218480825,0.0080874562,0.0044332575,4.3296079636,9.0039024353,-12.8591289520
        0.2024281025,       -0.0001245737,-0.0192562938,0.0068746638,4.3296079636,9.0039024353,-12.8591289520
        0.2051310539,       -0.0001245737,-0.0192562938,0.0068746638,4.3906431198,9.2938194275,-13.2100811005
        0.2078659534,       -0.0001245737,-0.0192562938,0.0068746638,4.3906431198,9.2938194275,-13.2100811005
        0.2105610371,       -0.0001245737,-0.0192562938,0.0044332575,2.8189880848,9.1870079041,-13.1032695770
        0.2132630348,        0.0023168325,-0.0031430125,0.0044332575,2.8189880848,9.1870079041,-13.1032695770
        0.2159600258,        0.0023168325,-0.0031430125,0.0044332575,2.2391541004,8.9733848572,-12.8743877411
        0.2186250687,        0.0023168325,-0.0031430125,0.0044332575,2.2391541004,8.9733848572,-12.8743877411
        0.2211880684,        0.0023168325,0.0198062062,0.0044332575,2.7579529285,8.9886436462,-12.9506816864
        0.2237460613,        0.0194066763,0.0198062062,0.0044332575,2.7579529285,8.9886436462,-12.9506816864
        0.2263131142,        0.0194066763,0.0198062062,0.0044332575,3.1089050770,8.9581260681,-13.0727519989
        0.2289879322,        0.0194066763,0.0198062062,0.0044332575,3.1089050770,8.9581260681,-13.0727519989
        0.2315540314,        0.0194066763,0.0212710500,0.0117574763,3.1089050770,8.8513145447,-13.4999980927
        0.2341251373,        0.0321019888,0.0212710500,0.0117574763,3.3530457020,8.8513145447,-13.4999980927
        0.2366819382,        0.0321019888,0.0212710500,0.0117574763,3.3530457020,8.6071739197,-13.4237041473
        0.2394220829,        0.0321019888,0.0212710500,0.0117574763,3.6734802723,8.6071739197,-13.4237041473
        0.2421009541,        0.0428441763,0.0242007375,0.0181051325,3.6734802723,4.7009243965,-13.4389629364
        0.2448880672,        0.0428441763,0.0242007375,0.0181051325,4.3753843307,8.4393272400,-13.4389629364
        0.2475819588,        0.0428441763,0.0242007375,0.0181051325,4.3753843307,8.4393272400,-13.5762920380
        0.2502579689,        0.0428441763,0.0242007375,0.0181051325,4.9857358932,8.2562217712,-13.5762920380
        0.2529330254,        0.0457738638,0.0212710500,0.0220113825,4.9857358932,8.2562217712,-14.1866436005
        0.2556219101,        0.0457738638,0.0212710500,0.0220113825,6.9388608932,7.8594937325,-14.1866436005
        0.2583119869,        0.0457738638,0.0212710500,0.0220113825,6.9388608932,7.8594937325,-14.6444072723
        0.2609930038,        0.0457738638,0.0212710500,0.0220113825,8.6325864792,7.6611294746,-14.6444072723
        0.2636890411,        0.0457738638,0.0242007375,0.0268941950,8.6325864792,7.6611294746,-15.1632061005
        0.2663750648,        0.0457738638,0.0242007375,0.0268941950,10.3110532761,7.4627652168,-15.1632061005
        0.2690839767,        0.0457738638,0.0242007375,0.0268941950,10.3110532761,7.4627652168,-15.6514873505
        0.2717690468,        0.0457738638,0.0188296437,0.0200582575,12.1726255417,6.9744839668,-15.6514873505
        0.2744569778,        0.0277074575,0.0188296437,0.0200582575,12.1726255417,6.9744839668,-16.3686504364
        0.2771470547,        0.0277074575,0.0188296437,0.0200582575,13.1339292526,7.0050015450,-16.3686504364
        0.2798910141,        0.0277074575,0.0188296437,0.0200582575,13.1339292526,7.0050015450,-17.1621074677
        0.2825849056,        0.0184301138,0.0129702687,0.0112691950,13.3322935104,7.0965542793,-17.1621074677
        0.2852749825,        0.0184301138,0.0129702687,0.0112691950,13.3322935104,7.0965542793,-17.4520244598
        0.2879691124,        0.0184301138,0.0129702687,0.0112691950,13.3780698776,6.7303433418,-17.4520244598
        0.2906389236,        0.0184301138,0.0129702687,0.0112691950,13.3780698776,6.7303433418,-17.4520244598
        0.2933049202,        0.0223363638,0.0217593312,-0.0024026800,12.8134946823,6.7761197090,-17.1773662567
        0.2962760925,        0.0223363638,0.0217593312,-0.0024026800,12.8134946823,6.7761197090,-17.5893535614
        0.2990720272,        0.0223363638,0.0217593312,-0.0024026800,12.4320249557,6.5930142403,-17.5893535614
        0.3017940521,        0.0223363638,0.0217593312,-0.0097268987,12.4320249557,6.5930142403,-17.7724590302
        0.3045060635,        0.0277074575,0.0168765187,-0.0097268987,11.9895200729,6.3336148262,-17.7724590302
        0.3072080612,        0.0277074575,0.0168765187,-0.0097268987,11.9895200729,6.3336148262,-17.3452129364
        0.3100299835,        0.0277074575,0.0168765187,-0.0097268987,11.4554624557,6.1505093575,-17.3452129364
        0.3127400875,        0.0281957388,0.0085757375,-0.0341409594,11.4554624557,6.1505093575,-17.5283184052
        0.3154411316,        0.0281957388,0.0085757375,-0.0341409594,10.3720884323,6.5930142403,-17.5283184052
        0.3181579113,        0.0281957388,0.0085757375,-0.0341409594,10.3720884323,6.5930142403,-18.0623760223
        0.3208649158,        0.0281957388,0.0085757375,-0.0341409594,8.5868101120,6.5167202950,-18.0623760223
        0.3235650063,        0.0238012075,0.0046694875,-0.0204690862,8.5868101120,6.5167202950,-17.7114238739
        0.3262751102,        0.0238012075,0.0046694875,-0.0204690862,7.1982603073,6.3336148262,-17.7114238739
        0.3289251328,        0.0238012075,0.0046694875,-0.0204690862,7.1982603073,6.3336148262,-17.2231426239
        0.3314931393,        0.0238012075,0.0046694875,-0.0204690862,5.9622983932,5.9826626778,-17.2231426239
        0.3340640068,        0.0208715200,0.0119937062,-0.0111917425,5.9622983932,5.9826626778,-17.2231426239
        0.3366310596,        0.0208715200,0.0119937062,-0.0111917425,5.2451353073,5.8300747871,-17.2536602020
        0.3392579556,        0.0208715200,0.0119937062,-0.0111917425,5.2451353073,5.8300747871,-17.2536602020
        0.3418269157,        0.0208715200,0.0119937062,-0.0111917425,3.7802917957,5.6927456856,-17.4672832489
        0.3443899155,        0.0028051138,0.0071108937,0.0000387263,3.7802917957,5.6927456856,-17.4672832489
        0.3469579220,        0.0028051138,0.0071108937,0.0000387263,2.0865662098,6.1657681465,-17.8945293427
        0.3496980667,        0.0028051138,0.0071108937,0.0000387263,2.0865662098,6.1657681465,-17.8945293427
        0.3522629738,        0.0028051138,0.0071108937,0.0068746638,0.9116394520,6.2420620918,-17.9860820770
        0.3548369408,        0.0081762075,0.0124819875,0.0068746638,0.9116394520,6.2420620918,-17.9860820770
        0.3574080467,        0.0081762075,0.0124819875,0.0068746638,0.1792175770,5.9674038887,-17.9555644989
        0.3602230549,        0.0081762075,0.0124819875,0.0068746638,0.1792175770,5.9674038887,-17.9555644989
        0.3629190922,        0.0081762075,0.0144351125,-0.0019143987,-0.1869933605,5.6622281075,-17.6809062958
        0.3656079769,        0.0238012075,0.0144351125,-0.0019143987,-0.1869933605,5.6622281075,-17.6809062958
        0.3683190346,        0.0238012075,0.0144351125,-0.0019143987,-0.1412169933,5.6469693184,-17.5740947723
        0.3710079193,        0.0238012075,0.0144351125,-0.0019143987,-0.1412169933,5.6469693184,-17.5740947723
        0.3738009930,        0.0330785513,0.0251773000,0.0039449763,0.3775818348,5.8453335762,-17.7572002411
        0.3765070438,        0.0330785513,0.0251773000,0.0039449763,0.3775818348,5.8453335762,-17.7572002411
        0.3791320324,        0.0330785513,0.0251773000,0.0039449763,1.1405212879,5.5248990059,-18.1691875458
        0.3817040920,        0.0330785513,0.0251773000,0.0039449763,1.1405212879,5.5248990059,-18.1691875458
        0.3842720985,        0.0281957388,0.0119937062,-0.0014261175,1.9644958973,5.7537808418,-17.8640117645
        0.3868439198,        0.0281957388,0.0119937062,-0.0014261175,1.9644958973,5.7537808418,-17.8640117645
        0.3895330429,        0.0281957388,0.0119937062,-0.0014261175,3.0936462879,5.8758511543,-17.9708232880
        0.3922319412,        0.0281957388,0.0119937062,-0.0014261175,3.0936462879,5.8758511543,-17.9708232880
        0.3949251175,        0.0140355825,-0.0114437938,0.0239645075,4.0549497604,6.2115445137,-18.3217754364
        0.3976349831,        0.0140355825,-0.0114437938,0.0239645075,4.0549497604,6.2115445137,-18.3217754364
        0.4003319740,        0.0140355825,-0.0114437938,0.0239645075,4.0549497604,6.6082730293,-18.3065166473
        0.4030411243,        0.0140355825,-0.0265805125,0.0088277888,4.9704771042,6.6082730293,-18.3065166473
        0.4057369232,       -0.0167261362,-0.0265805125,0.0088277888,4.9704771042,6.3488736153,-17.9555644989
        0.4084811211,       -0.0167261362,-0.0265805125,0.0088277888,5.2451353073,6.3488736153,-17.9555644989
        0.4111859798,       -0.0167261362,-0.0265805125,0.0088277888,5.2451353073,6.3030972481,-17.6198711395
        0.4140861034,       -0.0118433237,-0.0031430125,0.0127340388,5.1078062057,6.3030972481,-17.6198711395
        0.4167850018,       -0.0118433237,-0.0031430125,0.0127340388,4.6958189011,6.4862027168,-16.9637432098
        0.4196491241,       -0.0118433237,-0.0031430125,0.0127340388,4.6958189011,6.4862027168,-16.9637432098
        0.4223489761,       -0.0118433237,-0.0031430125,0.0127340388,4.7721128464,6.3793911934,-16.7501201630
        0.4250550270,       -0.0079370737,0.0163882375,-0.0111917425,4.7721128464,6.3793911934,-16.7501201630
        0.4277861118,       -0.0079370737,0.0163882375,-0.0111917425,4.6500425339,6.2878384590,-16.9027080536
        0.4303541183,       -0.0079370737,0.0163882375,-0.0111917425,4.6500425339,6.2878384590,-16.9027080536
        0.4329340458,       -0.0079370737,0.0163882375,-0.0233987737,4.6500425339,6.2420620918,-16.9790019989
        0.4355020523,        0.0028051138,0.0232241750,-0.0233987737,4.9857358932,6.2420620918,-16.9790019989
        0.4381349087,        0.0028051138,0.0232241750,-0.0233987737,4.9857358932,6.2420620918,-17.0247783661
        0.4408020973,        0.0028051138,0.0232241750,-0.0233987737,5.0162534714,6.1047329903,-17.0247783661
        0.4433639050,        0.0028051138,0.0193179250,-0.0214456487,5.0162534714,6.1047329903,-17.2384014130
        0.4459309578,        0.0262426138,0.0193179250,-0.0214456487,4.9094419479,5.5859341621,-17.2384014130
        0.4486720562,        0.0262426138,0.0193179250,-0.0214456487,4.9094419479,5.5859341621,-17.8029766083
        0.4512360096,        0.0262426138,0.0193179250,-0.0214456487,5.2909116745,5.2502408028,-17.8029766083
        0.4538059235,        0.0262426138,0.0261538625,-0.0150979925,5.2909116745,5.2502408028,-17.8029766083
        0.4563720226,        0.0198949575,0.0261538625,-0.0150979925,5.8402280807,4.7314419746,-17.7266826630
        0.4589409828,        0.0198949575,0.0261538625,-0.0150979925,5.8402280807,4.7314419746,-17.7266826630
        0.4615020752,        0.0198949575,0.0261538625,-0.0150979925,5.3977231979,4.7161831856,-17.9860820770
        0.4640619755,        0.0111058950,0.0188296437,-0.0307229925,5.3977231979,4.7161831856,-17.9860820770
        0.4666259289,        0.0111058950,0.0188296437,-0.0307229925,5.0315122604,4.8077359200,-18.9473857880
        0.4693479538,        0.0111058950,0.0188296437,-0.0307229925,5.0315122604,4.8077359200,-18.9473857880
        0.4719030857,        0.0111058950,0.0188296437,-0.0307229925,2.8952820301,4.9603238106,-19.4967021942
        0.4745371342,       -0.0074487925,0.0105288625,-0.0092386175,2.8952820301,4.9603238106,-19.4967021942
        0.4771029949,       -0.0074487925,0.0105288625,-0.0092386175,-0.2938048840,4.5941128731,-19.8781719208
        0.4797849655,       -0.0074487925,0.0105288625,-0.0092386175,-0.2938048840,4.5941128731,-19.8781719208
        0.4823479652,       -0.0074487925,0.0105288625,-0.0092386175,-2.7657287121,4.2736783028,-20.2138652802
        0.4849090576,       -0.0108667612,0.0100405812,-0.0077737737,-2.7657287121,4.2736783028,-20.2138652802
        0.4874649048,       -0.0108667612,0.0100405812,-0.0077737737,-4.8256654739,4.5788540840,-20.5953350067
        0.4902050495,       -0.0108667612,0.0100405812,-0.0077737737,-4.8256654739,4.5788540840,-20.5953350067
        0.4936530590,       -0.0108667612,0.0100405812,-0.0160745550,-6.6872377396,4.4110074043,-20.5037822723
        0.4962260723,       -0.0025659800,0.0115054250,-0.0160745550,-6.6872377396,4.4110074043,-20.5037822723
        0.4988579750,       -0.0025659800,0.0115054250,-0.0160745550,-8.1368227005,4.0142788887,-20.7174053192
        0.5014200211,       -0.0025659800,0.0115054250,-0.0160745550,-8.1368227005,4.0142788887,-20.7174053192
        0.5040891171,       -0.0025659800,0.0129702687,-0.0170511175,-8.7929506302,4.2736783028,-20.5342998505
        0.5066549778,       -0.0006128550,0.0129702687,-0.0170511175,-8.7929506302,4.2736783028,-20.5342998505
        0.5092470646,       -0.0006128550,0.0129702687,-0.0170511175,-8.7929506302,4.2431607246,-19.5729961395
        0.5118110180,       -0.0006128550,0.0129702687,-0.0170511175,-8.7471742630,4.2431607246,-19.5729961395
        0.5143759251,       -0.0006128550,0.0056460500,-0.0273050237,-8.7471742630,4.2431607246,-18.8863506317
        0.5169360638,       -0.0020776987,0.0056460500,-0.0273050237,-8.8845033646,4.0600552559,-18.8863506317
        0.5195081234,       -0.0020776987,0.0056460500,-0.0273050237,-8.8845033646,4.0600552559,-18.3980693817
        0.5220739841,       -0.0020776987,0.0056460500,-0.0273050237,-9.7847719193,3.8159146309,-18.3980693817
        0.5246360302,       -0.0181909800,-0.0070492625,-0.0292581487,-9.7847719193,3.8159146309,-14.4918193817
        0.5271990299,       -0.0181909800,-0.0070492625,-0.0292581487,-11.5242738724,3.8159146309,-17.4520244598
        0.5298070908,       -0.0181909800,-0.0070492625,-0.0292581487,-11.5242738724,3.8159146309,-17.4520244598
        0.5323739052,       -0.0181909800,-0.0070492625,-0.0292581487,-14.1487855911,3.8006558418,-16.4754619598
        0.5349419117,       -0.0465112925,-0.0138852000,-0.0526956469,-14.1487855911,3.8006558418,-16.4754619598
        0.5375149250,       -0.0465112925,-0.0138852000,-0.0526956469,-17.5514945984,4.7009243965,-15.1632061005
        0.5401599407,       -0.0465112925,-0.0138852000,-0.0526956469,-17.5514945984,4.7009243965,-15.1632061005
        0.5427279472,       -0.0465112925,-0.0138852000,-0.0526956469,-20.2828178406,5.7537808418,-13.9882793427
        0.5452950001,       -0.0733667612,-0.0192562938,-0.0595315844,-20.2828178406,5.7537808418,-13.9882793427
        0.5480039120,       -0.0733667612,-0.0192562938,-0.0595315844,-21.0762748718,6.3641324043,-12.2487773895
        0.5505731106,       -0.0733667612,-0.0192562938,-0.0595315844,-21.0762748718,6.3641324043,-12.2487773895
        0.5531361103,       -0.0733667612,-0.0192562938,-0.0595315844,-19.5046195984,6.6235318184,-10.7076396942
        0.5556979179,       -0.0831323862,0.0105288625,-0.0663675219,-19.5046195984,6.6235318184,-10.7076396942
        0.5582981110,       -0.0831323862,0.0105288625,-0.0663675219,-16.9258842468,6.5167202950,-9.0902080536
        0.5608639717,       -0.0831323862,0.0105288625,-0.0663675219,-16.9258842468,6.5167202950,-9.0902080536
        0.5634360313,       -0.0831323862,0.0105288625,-0.0663675219,-16.9258842468,7.1423306465,-6.7403545380
        0.5661139488,       -0.0743433237,0.0046694875,-0.1029886156,-14.4844789505,7.1423306465,-6.7403545380
        0.5686991215,       -0.0743433237,0.0046694875,-0.1029886156,-14.4844789505,7.1423306465,-4.2073955536
        0.5712740421,       -0.0743433237,0.0046694875,-0.1029886156,-13.7367982864,7.0202603340,-4.2073955536
        0.5738449097,       -0.0743433237,0.0046694875,-0.1029886156,-13.7367982864,7.0202603340,-1.5371074677
        0.5764179230,       -0.0865503550,-0.0387875438,-0.1142190844,-15.5983705521,7.2796597481,-1.5371074677
        0.5792119503,       -0.0865503550,-0.0387875438,-0.1142190844,-15.5983705521,7.2796597481,-1.5371074677
        0.5817890167,       -0.0865503550,-0.0387875438,-0.1142190844,-19.6572074890,8.6376914978,1.7740497589
        0.5846700668,       -0.0865503550,-0.0363461375,-0.1405862719,-19.6572074890,8.6376914978,5.6802997589
        0.5872459412,       -0.0860620737,-0.0363461375,-0.1405862719,-24.5552787781,9.2785606384,5.6192646027
        0.5898740292,       -0.0860620737,-0.0363461375,-0.1405862719,-24.5552787781,9.2785606384,5.6192646027
        0.5924479961,       -0.0860620737,-0.0363461375,-0.1405862719,-28.7972221375,10.1025352478,9.4797382355
        0.5950191021,       -0.0860620737,0.0198062062,-0.1693948656,-28.7972221375,10.1025352478,9.4797382355
        0.5976190567,       -0.0655542612,0.0198062062,-0.1693948656,-33.0086479187,10.9417686462,12.8519306183
        0.6001899242,       -0.0655542612,0.0198062062,-0.1693948656,-33.0086479187,10.9417686462,12.8519306183
        0.6027629375,       -0.0655542612,0.0198062062,-0.1693948656,-37.9677543640,12.4371299744,15.9799823761
        0.6053280830,       -0.0489526987,0.0325015187,-0.2211526781,-37.9677543640,12.4371299744,15.9799823761
        0.6079170704,       -0.0489526987,0.0325015187,-0.2211526781,-42.2249565125,13.5205039978,18.6807880402
        0.6104941368,       -0.0489526987,0.0325015187,-0.2211526781,-42.2249565125,13.5205039978,18.6807880402
        0.6130630970,       -0.0489526987,0.0325015187,-0.2211526781,-46.3295707703,14.8937950134,19.9320087433
        0.6156380177,       -0.0401636362,0.0202944875,-0.3066019118,-46.3295707703,14.8937950134,19.9320087433
        0.6182789803,       -0.0401636362,0.0202944875,-0.3066019118,-51.2276420593,16.9689903259,20.7254657745
        0.6208510399,       -0.0401636362,0.0202944875,-0.3066019118,-51.2276420593,16.9689903259,20.7254657745
        0.6234250069,       -0.0401636362,0.0202944875,-0.3066019118,-55.1338920593,17.9608116150,22.8769550323
        0.6259970665,       -0.0377222300,-0.0216977000,-0.3183206618,-55.0881156921,17.9608116150,22.8769550323
        0.6287200451,       -0.0377222300,-0.0216977000,-0.3183206618,-55.0881156921,18.4643516541,24.8758563995
        0.6312940121,       -0.0377222300,-0.0216977000,-0.3183206618,-57.0259819031,18.4643516541,24.8758563995
        0.6338679790,       -0.0377222300,-0.0216977000,-0.3183206618,-57.0259819031,18.4643516541,26.3407001495
        0.6364440918,       -0.0557886362,-0.0651547313,-0.2426370531,-58.1093559265,18.9068565369,26.3407001495
        0.6392071247,       -0.0557886362,-0.0651547313,-0.2426370531,-58.1093559265,18.9068565369,28.0802021027
        0.6417829990,       -0.0557886362,-0.0651547313,-0.2426370531,-54.9660453796,19.2120323181,28.0802021027
        0.6443591118,       -0.0557886362,-0.0651547313,-0.2426370531,-54.9660453796,19.2120323181,28.0802021027
        0.6469309330,       -0.1319605112,0.0520327687,-0.2040628344,-43.1404838562,20.0970420837,32.4747314453
        0.6498119831,       -0.1319605112,0.0520327687,-0.2040628344,-43.1404838562,20.0970420837,32.4747314453
        0.6523900032,       -0.1319605112,0.0520327687,-0.2040628344,-26.9661674500,21.1956748962,32.7341308594
        0.6549680233,       -0.1319605112,0.0520327687,-0.2514261305,-26.9661674500,21.1956748962,32.7341308594
        0.6575319767,       -0.0831323862,-0.0221859813,-0.2514261305,-11.6616029739,22.5384483337,29.3466815948
        0.6603069305,       -0.0831323862,-0.0221859813,-0.2514261305,-11.6616029739,22.5384483337,29.3466815948
        0.6630170345,       -0.0831323862,-0.0221859813,-0.2514261305,3.8565857410,22.9351768494,25.5319843292
        0.6657180786,       -0.0831323862,-0.1291195750,-0.2953714430,3.8565857410,22.9351768494,25.5319843292
        0.6684639454,       -0.0596948862,-0.1291195750,-0.2953714430,19.9698677063,22.8131065369,21.5646991730
        0.6711759567,       -0.0596948862,-0.1291195750,-0.2953714430,19.9698677063,22.8131065369,21.5646991730
        0.6738901138,       -0.0596948862,-0.1291195750,-0.2953714430,33.0313911438,23.2250938416,17.1854267120
        0.6766009331,       -0.0123316050,-0.1403500438,-0.3095315993,33.0313911438,23.2250938416,17.1854267120
        0.6792430878,       -0.0123316050,-0.1403500438,-0.3095315993,44.3228950500,24.5220909119,11.5549335480
        0.6819019318,       -0.0123316050,-0.1403500438,-0.3095315993,44.3228950500,24.5220909119,11.5549335480
        0.6844730377,       -0.0123316050,-0.1403500438,-0.3095315993,56.0111274719,25.6207237244,5.4514179230
        0.6870529652,        0.0135473013,-0.2023617625,-0.2992776930,56.0111274719,25.6207237244,5.4514179230
        0.6896340847,        0.0135473013,-0.2023617625,-0.2992776930,66.3565826416,26.3378868103,-0.5605449677
        0.6923251152,        0.0135473013,-0.2023617625,-0.2992776930,66.3565826416,26.3378868103,-0.5605449677
        0.6950280666,        0.0135473013,-0.2023617625,-0.2992776930,73.5892486572,26.6888389587,-6.2368144989
        0.6985769272,        0.0311254263,-0.3092953563,-0.2733987868,73.5892486572,26.6888389587,-6.2368144989
        0.7011561394,        0.0311254263,-0.3092953563,-0.2733987868,77.2360992432,26.8872032166,-11.3332500458
        0.7037260532,        0.0311254263,-0.3092953563,-0.2733987868,77.2360992432,26.8872032166,-11.3332500458
        0.7062981129,        0.0677465200,-0.3464047313,-0.2709573805,77.7396392822,27.3602256775,-15.6514873505
        0.7089669704,        0.0677465200,-0.3464047313,-0.2709573805,77.7396392822,27.3602256775,-15.6514873505
        0.7115371227,        0.0677465200,-0.3464047313,-0.2709573805,76.3663482666,28.2604942322,-19.4967021942
        0.7141079903,        0.0677465200,-0.3464047313,-0.2709573805,76.3663482666,28.2604942322,-19.4967021942
        0.7166731358,        0.0648168325,-0.3088070750,-0.2563089430,74.4895172119,28.9776573181,-24.9288311005
        0.7192540169,        0.0648168325,-0.3088070750,-0.2563089430,74.4895172119,28.9776573181,-24.9288311005
        0.7218270302,        0.0648168325,-0.3088070750,-0.2563089430,71.2851715088,29.3896446228,-30.2694072723
        0.7244000435,        0.0648168325,-0.3088070750,-0.2563089430,71.2851715088,29.3896446228,-30.2694072723
        0.7269749641,        0.0526098013,-0.2868344188,-0.2318948656,67.7451324463,29.8474082947,-35.4879150391
        0.7295980453,        0.0526098013,-0.2868344188,-0.2318948656,67.7451324463,29.8474082947,-35.4879150391
        0.7321720123,        0.0526098013,-0.2868344188,-0.2318948656,67.7451324463,30.5493125916,-40.2639160156
        0.7347481251,        0.0526098013,-0.2868344188,-0.2318948656,63.4268989563,30.5493125916,-40.2639160156
        0.7373249531,        0.0242894888,-0.2497250438,-0.2245706469,63.4268989563,30.5493125916,-44.5516357422
        0.7399060726,        0.0242894888,-0.2497250438,-0.2245706469,58.3304634094,31.6326866150,-44.5516357422
        0.7424809933,        0.0242894888,-0.2497250438,-0.2245706469,58.3304634094,31.6326866150,-52.3641357422
        0.7450549603,        0.0242894888,-0.2497250438,-0.2245706469,52.6236763000,32.3498497009,-49.0682373047
        0.7477219105,        0.0086644888,-0.2365414500,-0.1982034594,52.6236763000,32.3498497009,-49.0682373047
        0.7502970695,        0.0086644888,-0.2365414500,-0.1982034594,46.9321479797,33.6468467712,-53.5848388672
        0.7528700829,        0.0086644888,-0.2365414500,-0.1982034594,46.9321479797,33.6468467712,-53.5848388672
        0.7555539608,        0.0086644888,-0.2365414500,-0.1982034594,40.0809516907,35.1727256775,-57.6131591797
        0.7582130432,       -0.0006128550,-0.2380062938,-0.1654886156,40.0809516907,35.1727256775,-57.6131591797
        0.7607901096,       -0.0006128550,-0.2380062938,-0.1654886156,31.7191352844,36.0577354431,-60.5123291016
        0.7633659840,       -0.0006128550,-0.2380062938,-0.1654886156,31.7191352844,36.0577354431,-60.5123291016
        0.7659361362,       -0.0006128550,-0.2380062938,-0.0404886156,22.8537788391,37.2784385681,-63.0910644531
        0.7685160637,       -0.0069605112,-0.2287289500,-0.1352151781,22.8537788391,37.2784385681,-63.0910644531
        0.7710900307,       -0.0069605112,-0.2287289500,-0.1352151781,14.9192075729,38.0566368103,-65.3188476562
        0.7736599445,       -0.0069605112,-0.2287289500,-0.1352151781,14.9192075729,38.0566368103,-65.3188476562
        0.7762300968,       -0.0069605112,-0.2287289500,-0.1225198656,7.4576597214,38.5449180603,-66.7531738281
        0.7788550854,        0.0081762075,-0.2028500438,-0.1225198656,7.4576597214,38.5449180603,-66.7531738281
        0.7814331055,        0.0081762075,-0.2028500438,-0.1225198656,-0.3548400402,39.2010459900,-68.5537109375
        0.7840120792,        0.0081762075,-0.2028500438,-0.1225198656,0.8658630848,39.2010459900,-68.5537109375
        0.7865841389,        0.0081762075,-0.2028500438,-0.0829690844,0.8658630848,39.3231163025,-69.5150146484
        0.7892849445,        0.0013402700,-0.1716000438,-0.0829690844,-4.7341127396,39.3231163025,-69.5150146484
        0.7919900417,        0.0013402700,-0.1716000438,-0.0829690844,-4.7341127396,38.7432823181,-70.5526123047
        0.7946970463,        0.0013402700,-0.1716000438,-0.0829690844,-10.5934877396,38.7432823181,-70.5526123047
        0.7974100113,       -0.0054956675,-0.1471859813,-0.0536722094,-10.5934877396,39.0331993103,-71.9716796875
        0.8001320362,       -0.0054956675,-0.1471859813,-0.0536722094,-16.2087211609,39.0331993103,-71.9716796875
        0.8028349876,       -0.0054956675,-0.1471859813,-0.0536722094,-16.2087211609,39.3994102478,-73.0550537109
        0.8055489063,       -0.0054956675,-0.1471859813,-0.0536722094,-21.7629203796,39.3994102478,-73.0550537109
        0.8083059788,       -0.0177026987,-0.1125180125,-0.0346292406,-21.7629203796,40.1165733337,-73.3907470703
        0.8110120296,       -0.0177026987,-0.1125180125,-0.0346292406,-28.5225639343,40.1165733337,-73.3907470703
        0.8137741089,       -0.0177026987,-0.1125180125,-0.0346292406,-28.5225639343,41.2457237244,-73.1923828125
        0.8164920807,       -0.0177026987,-0.1125180125,-0.0199808050,-35.2516899109,41.2457237244,-73.1923828125
        0.8196210861,       -0.0006128550,-0.0680844188,-0.0199808050,-41.7214164734,42.1154747009,-72.9635009766
        0.8223340511,       -0.0006128550,-0.0680844188,-0.0199808050,-41.7214164734,42.1154747009,-72.9635009766
        0.8250410557,       -0.0006128550,-0.0680844188,-0.0199808050,-46.2532768250,43.2904014587,-72.0174560547
        0.8277399540,       -0.0059839487,-0.0251156688,0.0156637263,-46.2532768250,43.2904014587,-72.0174560547
        0.8303151131,       -0.0059839487,-0.0251156688,0.0156637263,-50.1595268250,44.0991172791,-71.8648681641
        0.8328931332,       -0.0059839487,-0.0251156688,0.0156637263,-49.8848686218,44.0991172791,-71.8648681641
        0.8354730606,       -0.0059839487,-0.0251156688,0.0156637263,-49.8848686218,44.0991172791,-72.3836669922
        0.8381130695,        0.0081762075,0.0095523000,0.0410543531,-53.5317192078,44.6789512634,-72.3836669922
        0.8408241272,        0.0081762075,0.0095523000,0.0410543531,-53.5317192078,44.6789512634,-71.8496093750
        0.8435339928,        0.0081762075,0.0095523000,0.0410543531,-56.7360649109,45.1214561462,-71.8496093750
        0.8462460041,        0.0081762075,0.0095523000,0.0410543531,-56.7360649109,45.1214561462,-70.8883056641
        0.8489091396,        0.0106176138,0.0495913625,0.0742574781,-58.3840141296,45.0299034119,-70.8883056641
        0.8514900208,        0.0106176138,0.0495913625,0.0742574781,-58.3840141296,45.0299034119,-70.2779541016
        0.8540680408,        0.0106176138,0.0495913625,0.0742574781,-58.8417778015,44.9383506775,-70.2779541016
        0.8566410542,        0.0106176138,0.0495913625,0.0742574781,-58.8417778015,44.9383506775,-70.2779541016
        0.8592789173,        0.0091527700,0.0647280812,0.1016012281,-58.1246147156,44.5416221619,-70.1253662109
        0.8618590832,        0.0091527700,0.0647280812,0.1016012281,-58.1246147156,44.5416221619,-70.1253662109
        0.8644390106,        0.0091527700,0.0647280812,0.1016012281,-57.6973686218,43.8397178650,-70.0643310547
        0.8670151234,        0.0091527700,0.0647280812,0.1352926344,-57.6973686218,43.8397178650,-70.0643310547
        0.8697659969,       -0.0011011362,0.0486148000,0.1352926344,-58.1703910828,43.2751426697,-69.6981201172
        0.8723390102,       -0.0011011362,0.0486148000,0.1352926344,-58.1703910828,43.2751426697,-69.6981201172
        0.8749101162,       -0.0011011362,0.0486148000,0.1352926344,-58.8265190125,41.7492637634,-68.8588867188
        0.8774881363,       -0.0011011362,0.0583804250,0.1401754469,-58.8265190125,41.7492637634,-68.8588867188
        0.8801639080,        0.0184301138,0.0583804250,0.1401754469,-59.1316947937,40.1776084900,-67.7144775391
        0.8828520775,        0.0184301138,0.0583804250,0.1401754469,-59.1316947937,40.1776084900,-67.7144775391
        0.8854300976,        0.0184301138,0.0583804250,0.1401754469,-59.1164360046,38.6059532166,-66.7226562500
        0.8880710602,        0.0399144888,0.0862124562,0.1597066969,-59.1164360046,38.6059532166,-66.7226562500
        0.8907771111,        0.0399144888,0.0862124562,0.1597066969,-59.1469535828,36.2713584900,-65.1967773438
        0.8934900761,        0.0399144888,0.0862124562,0.1597066969,-59.1469535828,36.2713584900,-65.1967773438
        0.8961961269,        0.0399144888,0.0862124562,0.1597066969,-59.1164360046,34.6081504822,-63.8845214844
        0.8989889622,        0.0574926138,0.1033023000,0.1689840406,-59.1164360046,34.6081504822,-63.8845214844
        0.9017000198,        0.0574926138,0.1033023000,0.1689840406,-58.5518608093,32.8686485291,-62.7553710938
        0.9044089317,        0.0574926138,0.1033023000,0.1689840406,-58.5518608093,32.8686485291,-62.7553710938
        0.9071130753,        0.0574926138,0.1033023000,0.1689840406,-57.7584037781,30.5645713806,-61.9008789062
        0.9098279476,        0.0643285513,0.1042788625,0.1904684156,-57.7584037781,30.5645713806,-61.9008789062
        0.9125390053,        0.0643285513,0.1042788625,0.1904684156,-58.3687553406,28.0621299744,-60.6496582031
        0.9152460098,        0.0643285513,0.1042788625,0.1904684156,-58.3687553406,28.0621299744,-60.6496582031
        0.9180719852,        0.0643285513,0.1145327687,0.1963277906,-59.7267875671,25.8801231384,-59.2000732422
        0.9206540585,        0.0775121450,0.1145327687,0.1963277906,-59.7267875671,25.8801231384,-59.2000732422
        0.9232280254,        0.0775121450,0.1145327687,0.1963277906,-61.1153373718,23.2098350525,-57.7352294922
        0.9258050919,        0.0775121450,0.1145327687,0.1963277906,-61.1153373718,23.2098350525,-57.7352294922
        0.9283900261,        0.0775121450,0.1272280812,0.2114645094,-61.1153373718,20.7836875916,-56.3161621094
        0.9309649467,        0.0828832388,0.1272280812,0.2114645094,-63.0074272156,20.7836875916,-56.3161621094
        0.9335451126,        0.0828832388,0.1272280812,0.2114645094,-63.0074272156,18.4338340759,-55.5227050781
        0.9363350868,        0.0828832388,0.1272280812,0.2114645094,-64.6248626709,18.4338340759,-55.5227050781
        0.9393329620,        0.0823949575,0.1775210500,0.2461324781,-63.2363090515,15.8550987244,-55.0496826172
        0.9420509338,        0.0823949575,0.1775210500,0.2461324781,-63.2363090515,15.8550987244,-55.0496826172
        0.9447610378,        0.0823949575,0.1775210500,0.2461324781,-62.0766410828,13.7036094666,-52.6693115234
        0.9475951195,        0.0823949575,0.1775210500,0.2461324781,-62.0766410828,13.7036094666,-52.6693115234
        0.9502980709,        0.0794652700,0.2497866750,0.2978902757,-61.3289604187,9.9957237244,-49.4344482422
        0.9530050755,        0.0794652700,0.2497866750,0.2978902757,-61.3289604187,9.9957237244,-49.4344482422
        0.9557111263,        0.0794652700,0.2497866750,0.2978902757,-59.6962699890,6.4404263496,-47.1608886719
        0.9584181309,        0.0794652700,0.2517398000,0.3027730882,-59.6962699890,6.4404263496,-47.1608886719
        0.9611270428,        0.0789769888,0.2517398000,0.3027730882,-57.1327934265,3.7548794746,-45.2230224609
        0.9638309479,        0.0789769888,0.2517398000,0.3027730882,-57.1327934265,3.7548794746,-45.2230224609
        0.9665410519,        0.0789769888,0.2517398000,0.3027730882,-51.8990287781,2.2595181465,-42.8273925781
        0.9692161083,        0.0311254263,0.2683413625,0.2139059156,-51.8990287781,2.2595181465,-42.8273925781
        0.9717879295,        0.0311254263,0.2683413625,0.2139059156,-51.8990287781,-0.1513705254,-39.4704589844
        0.9743630886,        0.0311254263,0.2683413625,0.2139059156,-49.7933158875,-0.1513705254,-39.4704589844
        0.9769380093,        0.0311254263,0.2683413625,0.2139059156,-49.7933158875,-4.0576205254,-35.9151611328
        0.9795169830,        0.0682348013,0.3015444875,0.1948629469,-51.0445365906,-4.3017611504,-35.9151611328
        0.9820909500,        0.0682348013,0.3015444875,0.1948629469,-51.0445365906,-4.3017611504,-31.9173564911
        0.9846630096,        0.0682348013,0.3015444875,0.1948629469,-54.4625053406,-6.6058382988,-31.9173564911
        0.9872429371,        0.0682348013,0.3015444875,0.1948629469,-54.4625053406,-6.6058382988,-28.0111064911
        0.9899230003,        0.0482152700,0.3537905812,0.1421285719,-57.6973686218,-8.1012001038,-26.7446269989
        0.9925000668,        0.0482152700,0.3537905812,0.1421285719,-57.6973686218,-8.1012001038,-26.7446269989
        0.9950740337,        0.0482152700,0.3537905812,0.1421285719,-62.6412162781,-8.8488807678,-19.7561016083
        0.9979319572,        0.0482152700,0.3537905812,0.1421285719,-62.6412162781,-8.8488807678,-19.7561016083
        1.0006411076,        0.0340551138,0.4563296437,0.0571676344,-67.9817962646,-8.5131874084,-11.3027324677
        1.0033459663,        0.0340551138,0.4563296437,0.0571676344,-67.9817962646,-8.5131874084,-11.3027324677
        1.0060501099,        0.0340551138,0.4563296437,0.0571676344,-71.0793304443,-8.0554237366,0.3092060089
        1.0087709427,        0.0340551138,0.5813296437,0.0249410700,-71.0793304443,-8.0554237366,0.3092060089
        1.0115909576,        0.0091527700,0.6340640187,0.0249410700,-66.7763519287,-7.1704134941,12.2720966339
        1.0143001080,        0.0091527700,0.6340640187,0.0249410700,-66.7763519287,-7.1704134941,12.2720966339
        1.0170130730,        0.0091527700,0.6340640187,0.0249410700,-53.1960258484,-6.8499789238,20.0083026886
        1.0197360516,        0.0623754263,0.5261538625,-0.0810159594,-53.1960258484,-6.8499789238,20.0083026886
        1.0224499702,        0.0623754263,0.5261538625,-0.0810159594,-30.6893119812,-6.6363558769,23.3042011261
        1.0251591206,        0.0623754263,0.5261538625,-0.0810159594,-30.6893119812,-6.6363558769,23.3042011261
        1.0278720856,        0.0623754263,0.5261538625,-0.0810159594,-5.8937807083,-5.3088412285,18.1772480011
        1.0304439068,        0.1287816763,0.0910952687,-0.3017190993,-5.8937807083,-5.3088412285,18.1772480011
        1.0330109596,        0.1287816763,0.0910952687,-0.3017190993,11.6538267136,-4.2712435722,6.2143573761
        1.0355799198,        0.1287816763,0.0910952687,-0.3017190993,11.6538267136,-4.2712435722,6.2143573761
        1.0382449627,        0.1287816763,0.0910952687,-0.3017190993,15.5753355026,-4.0881381035,-2.5594463348
        1.0408210754,        0.0994848013,-0.1579281688,-0.3861917555,15.5753355026,-4.0881381035,-2.5594463348
        1.0433959961,        0.0994848013,-0.1579281688,-0.3861917555,7.4271421432,-7.1093783379,-6.3741436005
        1.0459749699,        0.0994848013,-0.1579281688,-0.3861917555,7.4271421432,-7.1093783379,-6.3741436005
        1.0486679077,        0.0994848013,-0.1579281688,-0.1361917406,-5.3749818802,-14.5861854553,-9.8226299286
        1.0513370037,        0.0511449575,-0.1759945750,-0.0722268969,-5.3749818802,-14.5861854553,-9.8226299286
        1.0541820526,        0.0511449575,-0.1759945750,-0.0722268969,-13.0959291458,-22.8869667053,-13.9730205536
        1.0572710037,        0.0511449575,-0.1759945750,-0.0722268969,-13.0959291458,-22.8869667053,-13.9730205536
        1.0599770546,       -0.0416284800,0.0110171437,0.0835348219,-12.7297182083,-25.4351844788,-13.9119853973
        1.0626699924,       -0.0416284800,0.0110171437,0.0835348219,-12.7297182083,-25.4351844788,-13.9119853973
        1.0653591156,       -0.0416284800,0.0110171437,0.0835348219,-8.1063051224,-24.0161170959,-11.0128154755
        1.0680830479,       -0.0416284800,0.0110171437,0.0835348219,-8.1063051224,-24.0161170959,-11.0128154755
        1.0707669258,       -0.1768823862,0.0359194875,-0.0556253344,-8.7013978958,-23.4820594788,-8.8613262177
        1.0734560490,       -0.1768823862,0.0359194875,-0.0556253344,-8.7013978958,-23.4820594788,-8.8613262177
        1.0762450695,       -0.1768823862,0.0359194875,-0.0556253344,-14.8964662552,-25.1300086975,-7.6101055145
        1.0789511204,       -0.1768823862,0.0359194875,-0.0556253344,-14.8964662552,-25.1300086975,-7.6101055145
        1.0816431046,       -0.1431909800,-0.1628109813,-0.0907815844,-23.9601860046,-26.1676063538,-6.5419902802
        1.0843360424,       -0.1431909800,-0.1628109813,-0.0907815844,-23.9601860046,-26.1676063538,-6.5419902802
        1.0870270729,       -0.1431909800,-0.1628109813,-0.0907815844,-31.6200981140,-26.5490760803,-4.8024883270
        1.0914759636,       -0.0308862925,-0.1379086375,-0.1650003344,-34.9465141296,-26.3812294006,-3.3986797333
        1.0944850445,       -0.0308862925,-0.1379086375,-0.1650003344,-34.9465141296,-26.3812294006,-3.3986797333
        1.0970621109,       -0.0308862925,-0.1379086375,-0.1650003344,-35.9688529968,-26.2286415100,-2.7730693817
        1.0998439789,       -0.0308862925,0.0310366750,-0.1464456469,-35.9688529968,-26.2286415100,-2.7730693817
        1.1024160385,        0.0345433950,0.0310366750,-0.1464456469,-35.9688529968,-25.4504432678,-3.5360088348
        1.1049880981,        0.0345433950,0.0310366750,-0.1464456469,-34.4429740906,-25.4504432678,-3.5360088348
        1.1076009274,        0.0345433950,0.0310366750,-0.1464456469,-34.4429740906,-25.4504432678,-5.7332744598
        1.1101739407,        0.0345433950,0.0950015187,-0.0033792425,-30.7656059265,-24.5043983459,-5.7332744598
        1.1127460003,        0.0863012075,0.0950015187,-0.0033792425,-30.7656059265,-24.5043983459,-8.9833965302
        1.1153180599,        0.0863012075,0.0950015187,-0.0033792425,-26.5999565125,-23.9398231506,-8.9833965302
        1.1179220676,        0.0863012075,0.0950015187,-0.0033792425,-26.5999565125,-23.9398231506,-8.9833965302
        1.1204941273,        0.0526098013,0.0378726125,0.0820699781,-23.1819877625,-23.1463661194,-11.5926494598
        1.1230649948,        0.0526098013,0.0378726125,0.0820699781,-23.1819877625,-23.1463661194,-11.5926494598
        1.1256370544,        0.0526098013,0.0378726125,0.0820699781,-20.7253227234,-21.3610877991,-12.8896465302
        1.1282570362,        0.0526098013,0.0378726125,0.0820699781,-20.7253227234,-21.3610877991,-12.8896465302
        1.1308231354,       -0.0054956675,-0.0456234813,0.0737691969,-19.0468559265,-19.5758094788,-13.2558574677
        1.1333920956,       -0.0054956675,-0.0456234813,0.0737691969,-19.0468559265,-19.5758094788,-13.2558574677
        1.1359610558,       -0.0054956675,-0.0456234813,0.0737691969,-17.5820121765,-17.8210487366,-12.7828350067
        1.1387550831,       -0.0054956675,-0.0456234813,0.0737691969,-17.5820121765,-17.8210487366,-12.7828350067
        1.1413300037,       -0.0748316050,-0.0509945750,0.0469137281,-16.3460502625,-15.5932655334,-11.9130840302
        1.1440179348,       -0.0748316050,-0.0509945750,0.0469137281,-16.3460502625,-15.5932655334,-11.9130840302
        1.1465909481,       -0.0748316050,-0.0509945750,0.0469137281,-16.2697563171,-13.2586708069,-10.9975566864
        1.1494009495,       -0.0748316050,-0.0509945750,0.0469137281,-16.2697563171,-13.2586708069,-10.9975566864
        1.1521100998,       -0.1060816050,-0.0671078563,0.0181051325,-16.4223442078,-11.5649452209,-10.1735820770
        1.1548171043,       -0.1060816050,-0.0671078563,0.0181051325,-16.4223442078,-11.5649452209,-10.1735820770
        1.1575269699,       -0.1060816050,-0.0671078563,0.0181051325,-15.8882875443,-10.0238075256,-9.2427959442
        1.1602380276,       -0.1060816050,-0.0671078563,0.0083395075,-15.8882875443,-10.0238075256,-9.2427959442
        1.1629469395,       -0.0850855112,-0.0671078563,0.0083395075,-15.4305238724,-8.6657752991,-8.3577861786
        1.1656529903,       -0.0850855112,-0.0671078563,0.0083395075,-15.4305238724,-8.6657752991,-8.3577861786
        1.1683719158,       -0.0850855112,-0.0671078563,0.0083395075,-15.7662172318,-7.2467074394,-7.9152812958
        1.1710789204,       -0.0440698862,-0.0231625438,-0.0194925237,-15.7662172318,-7.2467074394,-7.9152812958
        1.1737780571,       -0.0440698862,-0.0231625438,-0.0194925237,-16.1171684265,-6.5753207207,-7.7169170380
        1.1764891148,       -0.0440698862,-0.0231625438,-0.0194925237,-16.1171684265,-6.5753207207,-7.7169170380
        1.1791260242,       -0.0440698862,-0.0231625438,-0.0194925237,-15.9645814896,-5.6750521660,-7.7169170380
        1.1817021370,       -0.0347925425,-0.0280453563,-0.0414651781,-15.9645814896,-5.6750521660,-7.7169170380
        1.1842811108,       -0.0347925425,-0.0280453563,-0.0414651781,-15.4000062943,-4.7137484550,-7.0302715302
        1.1868600845,       -0.0347925425,-0.0280453563,-0.0414651781,-15.4000062943,-4.7137484550,-7.0302715302
        1.1895229816,       -0.0347925425,-0.0280453563,-0.0414651781,-15.4000062943,-4.0881381035,-6.6335430145
        1.1921911240,       -0.0430933237,-0.0607602000,-0.0658792406,-14.2098207474,-4.0881381035,-6.6335430145
        1.1948540211,       -0.0430933237,-0.0607602000,-0.0658792406,-14.2098207474,-3.4014925957,-5.9468975067
        1.1975929737,       -0.0430933237,-0.0607602000,-0.0658792406,-13.4621400833,-3.4014925957,-5.9468975067
        1.2002990246,       -0.0430933237,-0.0607602000,-0.0727151781,-13.4621400833,-3.1115756035,-4.4210186005
        1.2030019760,       -0.0548120737,-0.0685727000,-0.0727151781,-13.2942934036,-3.1115756035,-4.4210186005
        1.2058589458,       -0.0548120737,-0.0685727000,-0.0727151781,-13.2942934036,-2.2570834160,-2.4678936005
        1.2089929581,       -0.0548120737,-0.0685727000,-0.0727151781,-13.1874818802,-2.2570834160,-2.4678936005
        1.2117040157,       -0.0391870737,-0.0822445750,-0.0600198656,-12.9433412552,-2.3638949394,-0.9877910614
        1.2144050598,       -0.0391870737,-0.0822445750,-0.0600198656,-12.9433412552,-2.3638949394,-0.9877910614
        1.2171061039,       -0.0391870737,-0.0822445750,-0.0600198656,-12.7297182083,-1.7535433769,0.1718769073
        1.2198181152,       -0.0391870737,-0.0822445750,-0.0600198656,-12.7297182083,-1.7535433769,0.1718769073
        1.2225229740,       -0.0181909800,-0.0534359813,-0.0287698675,-14.0724916458,-0.8990511894,1.2094745636
        1.2252271175,       -0.0181909800,-0.0534359813,-0.0287698675,-14.0724916458,-0.8990511894,1.2094745636
        1.2279369831,       -0.0181909800,-0.0534359813,-0.0287698675,-14.6523256302,-0.7006869316,2.2165546417
        1.2305109501,       -0.0181909800,-0.0534359813,0.0962301344,-14.6523256302,-0.7006869316,2.2165546417
        1.2330861092,        0.0071996450,0.0002749562,-0.0180276800,-14.6523256302,-0.2734408379,2.3081073761
        1.2356619835,        0.0071996450,0.0002749562,-0.0180276800,-14.5149965286,-0.2734408379,2.3081073761
        1.2382841110,        0.0071996450,0.0002749562,-0.0180276800,-14.5149965286,-0.2734408379,2.2470722198
        1.2408571243,        0.0071996450,0.0002749562,0.0019918513,-13.3858461380,0.4742398262,2.2470722198
        1.2434310913,       -0.0001245737,0.0163882375,0.0019918513,-13.3858461380,0.4742398262,1.8656024933
        1.2460010052,       -0.0001245737,0.0163882375,0.0019918513,-12.3329896927,1.4965786934,1.8656024933
        1.2485749722,       -0.0001245737,0.0163882375,0.0019918513,-12.3329896927,1.4965786934,-2.0406475067
        1.2511451244,       -0.0001245737,0.0163882375,0.0034566950,-10.7918519974,2.2137417793,1.0111103058
        1.2537109852,        0.0067113638,0.0232241750,0.0034566950,-10.7918519974,2.2137417793,1.0111103058
        1.2562830448,        0.0067113638,0.0232241750,0.0034566950,-9.3270082474,2.9003872871,-0.0722637177
        1.2589750290,        0.0067113638,0.0232241750,0.0034566950,-9.3270082474,2.9003872871,-0.0722637177
        1.2615420818,        0.0067113638,0.0124819875,-0.0048440862,-7.4654359818,3.5107388496,-0.9572734833
        1.2641110420,        0.0047582388,0.0124819875,-0.0048440862,-7.4654359818,3.5107388496,-0.9572734833
        1.2666749954,        0.0047582388,0.0124819875,-0.0048440862,-6.2905092239,3.5717740059,-2.2847881317
        1.2694280148,        0.0047582388,0.0124819875,-0.0048440862,-6.2905092239,3.5717740059,-2.2847881317
        1.2722299099,        0.0223363638,0.0295718312,-0.0155862737,-4.0627260208,4.1058316231,-3.7801494598
        1.2749350071,        0.0223363638,0.0295718312,-0.0155862737,-4.0627260208,4.1058316231,-3.7801494598
        1.2776429653,        0.0223363638,0.0295718312,-0.0155862737,-2.4452941418,4.1821255684,-4.9855937958
        1.2802150249,        0.0223363638,0.0295718312,-0.0155862737,-2.4452941418,4.1821255684,-4.9855937958
        1.2827780247,        0.0286840200,0.0613101125,-0.0414651781,-1.4687316418,4.0447964668,-6.1147441864
        1.2853469849,        0.0286840200,0.0613101125,-0.0414651781,-1.4687316418,4.0447964668,-6.1147441864
        1.2879500389,        0.0286840200,0.0613101125,-0.0414651781,-0.6294982433,3.7243618965,-8.5714092255
        1.2906420231,        0.0286840200,0.0613101125,-0.0414651781,-0.6294982433,3.7243618965,-8.5714092255
        1.2933390141,        0.0394262075,0.0373843312,-0.0473245531,-0.0344054699,3.6633267403,-10.4940166473
        1.2960379124,        0.0394262075,0.0373843312,-0.0473245531,-0.0344054699,3.6633267403,-10.4940166473
        1.2987439632,        0.0394262075,0.0373843312,-0.0473245531,0.0571472645,3.2513394356,-11.2722148895
        1.3014380932,        0.0394262075,0.0373843312,-0.0673440844,0.0571472645,3.2513394356,-11.2722148895
        1.3041350842,        0.0374730825,0.0251773000,-0.0673440844,-0.7210509777,2.7783169746,-12.4318828583
        1.3068330288,        0.0374730825,0.0251773000,-0.0673440844,-0.7210509777,2.7783169746,-12.4318828583
        1.3095419407,        0.0374730825,0.0251773000,-0.0673440844,-1.7586486340,2.1984829903,-13.5152568817
        1.3122420311,        0.0374730825,0.0002749562,-0.0551370531,-1.7586486340,2.1984829903,-13.5152568817
        1.3149349689,        0.0296605825,0.0002749562,-0.0551370531,-2.0180480480,2.0153775215,-14.2781963348
        1.3176400661,        0.0296605825,0.0002749562,-0.0551370531,-2.0180480480,2.0153775215,-14.2781963348
        1.3203380108,        0.0296605825,0.0002749562,-0.0551370531,-2.0790832043,2.0153775215,-14.7969951630
        1.3230381012,        0.0321019888,0.0193179250,-0.0605081469,-2.0790832043,2.0153775215,-14.7969951630
        1.3258299828,        0.0321019888,0.0193179250,-0.0605081469,-2.3079650402,1.5881314278,-15.2852764130
        1.3285019398,        0.0321019888,0.0193179250,-0.0605081469,-2.3079650402,1.5881314278,-15.2852764130
        1.3310611248,        0.0321019888,0.0193179250,-0.0605081469,-2.3079650402,0.0622525215,-15.9719219208
        1.3336291313,        0.0330785513,0.0320132375,-0.0658792406,-1.9417541027,0.0622525215,-15.9719219208
        1.3362989426,        0.0330785513,0.0320132375,-0.0658792406,-1.9417541027,0.0622525215,-16.4144268036
        1.3389430046,        0.0330785513,0.0320132375,-0.0658792406,-0.9041564465,-0.8685336113,-16.4144268036
        1.3416481018,        0.0330785513,0.0320132375,-0.0453714281,-0.9041564465,-0.8685336113,-17.2384014130
        1.3443400860,        0.0228246450,0.0183413625,-0.0453714281,-0.0954406261,-1.1279330254,-17.2384014130
        1.3470430374,        0.0228246450,0.0183413625,-0.0453714281,-0.0954406261,-1.1279330254,-17.1315898895
        1.3497529030,        0.0228246450,0.0183413625,-0.0453714281,0.6980164051,-1.6009554863,-17.1315898895
        1.3524520397,        0.0228246450,-0.0114437938,-0.0424417406,0.6980164051,-1.6009554863,-16.8569316864
        1.3551509380,        0.0125707388,-0.0114437938,-0.0424417406,0.4996521473,-2.1044955254,-16.8569316864
        1.3578839302,        0.0125707388,-0.0114437938,-0.0424417406,0.4996521473,-2.1044955254,-16.2618389130
        1.3604481220,        0.0125707388,-0.0114437938,-0.0424417406,-0.2632873058,-2.4096713066,-16.2618389130
        1.3630161285,        0.0096410513,0.0051577687,-0.0297464300,-0.2632873058,-2.4096713066,-16.2618389130
        1.3655779362,        0.0096410513,0.0051577687,-0.0297464300,-0.1717345715,-2.6232943535,-15.8345928192
        1.3682279587,        0.0096410513,0.0051577687,-0.0297464300,-0.1717345715,-2.6232943535,-15.8345928192
        1.3707900047,        0.0096410513,0.0051577687,-0.0297464300,0.6522400379,-2.7453646660,-15.1479473114
        1.3733570576,        0.0228246450,0.0124819875,-0.0360940844,0.6522400379,-2.7453646660,-15.1479473114
        1.3759291172,        0.0228246450,0.0124819875,-0.0360940844,1.1252624989,-2.6385531425,-15.3615703583
        1.3786730766,        0.0228246450,0.0124819875,-0.0360940844,1.1252624989,-2.6385531425,-15.3615703583
        1.3812429905,        0.0228246450,0.0124819875,-0.0360940844,1.0184509754,-2.4554476738,-15.7888164520
        1.3838150501,       -0.0006128550,0.0022280812,-0.0312112737,1.0184509754,-2.4554476738,-15.7888164520
        1.3863871098,       -0.0006128550,0.0022280812,-0.0312112737,1.3999207020,-3.0657992363,-15.6057109833
        1.3890829086,       -0.0006128550,0.0022280812,-0.0312112737,1.3999207020,-3.0657992363,-15.6057109833
        1.3917839527,       -0.0006128550,0.0022280812,-0.0312112737,1.8882019520,-2.9589877129,-15.2852764130
        1.3944790363,       -0.0025659800,-0.0011898875,-0.0312112737,1.8882019520,-2.9589877129,-15.2852764130
        1.3972549438,       -0.0025659800,-0.0011898875,-0.0312112737,2.4527771473,-2.6690707207,-15.3463115692
        1.4000430107,       -0.0025659800,-0.0011898875,-0.0312112737,2.4527771473,-2.6690707207,-15.3463115692
        1.4027011395,       -0.0025659800,0.0149233937,-0.0360940844,2.9257996082,-3.1268343925,-15.4073467255
        1.4054610729,        0.0101293325,0.0149233937,-0.0360940844,2.9257996082,-3.1268343925,-15.4073467255
        1.4089190960,        0.0101293325,0.0149233937,-0.0360940844,3.0173523426,-3.4625277519,-15.3920879364
        1.4114849567,        0.0101293325,0.0149233937,-0.0360940844,3.0173523426,-3.4625277519,-15.3920879364
        1.4140419960,        0.0281957388,0.0144351125,-0.0478128344,3.0326111317,-3.7829623222,-15.0106182098
        1.4166021347,        0.0281957388,0.0144351125,-0.0478128344,3.0326111317,-3.7829623222,-15.0106182098
        1.4192340374,        0.0281957388,0.0144351125,-0.0478128344,2.9410583973,-4.2102084160,-15.3157939911
        1.4217960835,        0.0281957388,0.0144351125,-0.0478128344,2.9410583973,-4.2102084160,-15.3157939911
        1.4243531227,        0.0286840200,0.0212710500,-0.0380472094,3.4445984364,-4.4085726738,-15.5599346161
        1.4269130230,        0.0286840200,0.0212710500,-0.0380472094,3.4445984364,-4.4085726738,-15.5599346161
        1.4294850826,        0.0286840200,0.0212710500,-0.0380472094,4.5127134323,-4.5306429863,-15.1021709442
        1.4320499897,        0.0286840200,0.0212710500,-0.0380472094,4.5127134323,-4.5306429863,-15.1021709442
        1.4346139431,        0.0213598013,0.0105288625,-0.0424417406,4.5127134323,-4.9426302910,-14.5528545380
        1.4371759892,        0.0213598013,0.0105288625,-0.0424417406,5.0772886276,-4.9426302910,-14.5528545380
        1.4397859573,        0.0213598013,0.0105288625,-0.0424417406,5.0772886276,-5.1867709160,-14.4002666473
        1.4423439503,        0.0213598013,0.0105288625,-0.0424417406,5.8707456589,-5.1867709160,-14.4002666473
        1.4449019432,       -0.0025659800,-0.0094906688,-0.0180276800,5.8707456589,-5.1867709160,-13.5457744598
        1.4474670887,       -0.0025659800,-0.0094906688,-0.0180276800,6.6489439011,-4.4696078300,-13.5457744598
        1.4500360489,       -0.0025659800,-0.0094906688,-0.0180276800,6.6489439011,-4.4696078300,-13.5457744598
        1.4526050091,       -0.0025659800,-0.0094906688,-0.0180276800,7.1830015182,-4.2865023613,-12.0504131317
        1.4551649094,       -0.0118433237,-0.0129086375,-0.0038675237,7.1830015182,-4.2865023613,-12.0504131317
        1.4578421116,       -0.0118433237,-0.0129086375,-0.0038675237,8.3579282761,-4.0271029472,-10.5703105927
        1.4604279995,       -0.0118433237,-0.0129086375,-0.0038675237,8.3579282761,-4.0271029472,-10.5703105927
        1.4631059170,       -0.0118433237,-0.0129086375,0.0161520075,9.7922544479,-3.1268343925,-8.9986553192
        1.4656789303,       -0.0206323862,-0.0021664500,0.0161520075,9.7922544479,-3.1268343925,-8.9986553192
        1.4684209824,       -0.0206323862,-0.0021664500,0.0161520075,12.0505552292,-2.3486361504,-7.7932109833
        1.4711239338,       -0.0206323862,-0.0021664500,0.0161520075,12.0505552292,-2.3486361504,-7.7932109833
        1.4738259315,       -0.1456323862,-0.0158383250,0.0278707575,14.1257505417,-1.9519076347,-6.6030254364
        1.4765319824,       -0.0367456675,-0.0158383250,0.0278707575,14.1257505417,-1.9519076347,-6.6030254364
        1.4792039394,       -0.0367456675,-0.0158383250,0.0278707575,15.7126646042,-0.6854281425,-5.5043926239
        1.4817790985,       -0.0367456675,-0.0158383250,0.0278707575,15.7126646042,-0.6854281425,-5.5043926239
        1.4843590260,       -0.0762964487,-0.0402523875,0.0503316969,16.5976753235,0.8709683418,-3.7648906708
        1.4869370461,       -0.0762964487,-0.0402523875,0.0503316969,16.5976753235,0.8709683418,-3.7648906708
        1.4896171093,       -0.0762964487,-0.0402523875,0.0503316969,16.2772407532,1.9085659981,-1.8270244598
        1.4923241138,       -0.0762964487,-0.0402523875,0.0503316969,16.2772407532,1.9085659981,-1.8270244598
        1.4950320721,       -0.0640894175,-0.0407406688,0.0405660719,15.7126646042,2.9766812325,0.3549823761
        1.4977290630,       -0.0640894175,-0.0407406688,0.0405660719,15.7126646042,2.9766812325,0.3549823761
        1.5003039837,       -0.0640894175,-0.0407406688,0.0405660719,15.0870542526,3.6938443184,2.3996601105
        1.5028820038,       -0.0640894175,-0.0407406688,0.0405660719,15.0870542526,3.6938443184,2.3996601105
        1.5054540634,       -0.0362573862,-0.0207211375,0.0039449763,14.0799741745,4.4720425606,4.7342548370
        1.5081100464,       -0.0362573862,-0.0207211375,0.0039449763,14.0799741745,4.4720425606,4.7342548370
        1.5108129978,       -0.0362573862,-0.0207211375,0.0039449763,12.9508237839,5.6469693184,6.8247089386
        1.5135130882,       -0.0362573862,-0.0207211375,-0.0248636175,12.9508237839,5.6469693184,6.8247089386
        1.5162310600,       -0.0357691050,-0.0270687938,-0.0248636175,12.9203062057,6.5014615059,8.3505878448
        1.5189499855,       -0.0357691050,-0.0270687938,-0.0248636175,12.9203062057,6.5014615059,8.3505878448
        1.5216510296,       -0.0357691050,-0.0270687938,-0.0248636175,12.9203062057,7.1118130684,9.8306903839
        1.5244390965,       -0.0240503550,-0.0324398875,-0.0253518987,12.5846128464,7.1118130684,9.8306903839
        1.5272591114,       -0.0240503550,-0.0324398875,-0.0253518987,12.6914243698,7.1423306465,11.5091571808
        1.5298781395,       -0.0240503550,-0.0324398875,-0.0253518987,12.6914243698,7.1423306465,11.5091571808
        1.5324549675,       -0.0240503550,-0.0324398875,-0.0253518987,12.6914243698,7.6611294746,13.1265888214
        1.5350320339,       -0.0250269175,-0.0070492625,-0.0536722094,12.7677183151,7.6611294746,13.1265888214
        1.5376191139,       -0.0250269175,-0.0070492625,-0.0536722094,12.7677183151,7.6611294746,15.0186786652
        1.5403239727,       -0.0250269175,-0.0070492625,-0.0536722094,13.6069517136,8.2104454041,15.0186786652
        1.5430359840,       -0.0250269175,-0.0070492625,-0.0536722094,13.6069517136,12.1166954041,16.3004169464
        1.5457460880,       -0.0294214487,-0.0080258250,-0.0536722094,14.4919614792,8.6529502869,16.3004169464
        1.5484960079,       -0.0294214487,-0.0080258250,-0.0536722094,14.4919614792,8.6529502869,17.2617206573
        1.5511999130,       -0.0294214487,-0.0080258250,-0.0536722094,14.5377378464,8.7902793884,17.2617206573
        1.5539109707,       -0.0294214487,-0.0080258250,-0.0385354906,14.5377378464,8.7902793884,18.4824237823
        1.5566139221,       -0.0328394175,0.0046694875,-0.0385354906,14.2783384323,9.1259727478,18.4824237823
        1.5592601299,       -0.0328394175,0.0046694875,-0.0385354906,14.2783384323,9.1259727478,19.4895038605
        1.5618340969,       -0.0328394175,0.0046694875,-0.0385354906,12.5998716354,10.0109825134,19.4895038605
        1.5644130707,       -0.0328394175,0.0188296437,-0.0478128344,12.5998716354,10.0109825134,19.4895038605
        1.5669929981,       -0.0313745737,0.0188296437,-0.0478128344,11.1045103073,10.2551231384,20.5423603058
        1.5697069168,       -0.0313745737,0.0188296437,-0.0478128344,11.1045103073,10.2551231384,20.5423603058
        1.5722861290,       -0.0313745737,0.0188296437,-0.0478128344,8.6783628464,10.2246055603,21.7935810089
        1.5748569965,       -0.0162378550,0.0364077687,-0.0585550219,8.6783628464,10.2246055603,21.7935810089
        1.5774290562,       -0.0162378550,0.0364077687,-0.0585550219,5.9012632370,9.7210655212,22.8464374542
        1.5802509785,       -0.0162378550,0.0364077687,-0.0585550219,5.9012632370,9.7210655212,22.8464374542
        1.5829529762,       -0.0162378550,0.0364077687,-0.0585550219,3.5361511707,9.0191612244,23.3499774933
        1.5856580734,       -0.0225855112,0.0593569875,-0.0751565844,3.5361511707,9.0191612244,23.3499774933
        1.5883760452,       -0.0225855112,0.0593569875,-0.0751565844,2.7884705067,8.8665733337,24.4180927277
        1.5911870003,       -0.0225855112,0.0593569875,-0.0751565844,2.7884705067,8.8665733337,24.4180927277
        1.5938930511,       -0.0225855112,0.0593569875,-0.0751565844,2.5748474598,8.0273399353,25.4709491730
        1.5965940952,       -0.0279566050,0.0354312062,-0.0688089281,2.5748474598,8.0273399353,25.4709491730
        1.5993080139,       -0.0279566050,0.0354312062,-0.0688089281,3.6429626942,7.1881070137,26.1575946808
        1.6021590233,       -0.0279566050,0.0354312062,-0.0688089281,3.6429626942,7.1881070137,26.1575946808
        1.6047310829,       -0.0279566050,0.0295718312,-0.0639261156,4.5737485886,6.6693081856,27.4393329620
        1.6073000431,       -0.0396753550,0.0295718312,-0.0639261156,4.5737485886,6.6693081856,27.4393329620
        1.6100409031,       -0.0396753550,0.0295718312,-0.0639261156,4.8484067917,5.6011929512,28.5990009308
        1.6127009392,       -0.0396753550,0.0295718312,-0.0639261156,4.8484067917,5.6011929512,28.5990009308
        1.6154890060,       -0.0596948862,0.0368960500,-0.0551370531,5.6571226120,4.6551480293,29.3771991730
        1.6187930107,       -0.0596948862,0.0368960500,-0.0551370531,5.6571226120,4.6551480293,29.3771991730
        1.6213660240,       -0.0596948862,0.0368960500,-0.0551370531,7.2287778854,4.1058316231,30.0333271027
        1.6239299774,       -0.0596948862,0.0368960500,-0.0551370531,7.2287778854,4.1058316231,30.0333271027
        1.6264901161,       -0.0743433237,0.0398257375,-0.0658792406,7.6102476120,3.3276333809,30.1096210480
        1.6292169094,       -0.0743433237,0.0398257375,-0.0658792406,7.6102476120,3.3276333809,30.1096210480
        1.6317880154,       -0.0743433237,0.0398257375,-0.0658792406,7.6102476120,2.6562466621,30.4300556183
        1.6343610287,       -0.0743433237,0.0398257375,-0.0658792406,7.6102476120,2.6562466621,30.4300556183
        1.6369349957,       -0.0762964487,0.0398257375,-0.0658792406,8.2663755417,2.1221890450,31.3608417511
        1.6396570206,       -0.0762964487,0.0398257375,-0.0658792406,8.2663755417,2.1221890450,31.3608417511
        1.6422250271,       -0.0762964487,0.0398257375,-0.0658792406,8.1290464401,1.7559781075,32.1390380859
        1.6447949409,       -0.0762964487,0.0398257375,-0.0697854906,8.1290464401,1.7559781075,32.1390380859
        1.6473650932,       -0.0792261362,0.0539858937,-0.0697854906,7.6560239792,1.0845913887,32.4899902344
        1.6501789093,       -0.0792261362,0.0539858937,-0.0697854906,7.6560239792,1.0845913887,32.4899902344
        1.6527531147,       -0.0792261362,0.0539858937,-0.0697854906,7.7018003464,0.9167447090,32.4899902344
        1.6554360390,       -0.0792261362,0.0290835500,-0.0898050219,7.7018003464,0.9167447090,32.4899902344
        1.6580090523,       -0.0719019175,0.0290835500,-0.0898050219,7.3813657761,1.9390835762,32.9782714844
        1.6606779099,       -0.0719019175,0.0290835500,-0.0898050219,7.3813657761,1.9390835762,32.9782714844
        1.6632449627,       -0.0719019175,0.0290835500,-0.0898050219,7.3813657761,2.4578824043,34.1226806641
        1.6658110619,       -0.0606714487,0.0349429250,-0.0917581469,6.8015317917,2.4578824043,34.1226806641
        1.6684219837,       -0.0606714487,0.0349429250,-0.0917581469,6.8015317917,3.1140103340,34.2752685547
        1.6710739136,       -0.0606714487,0.0349429250,-0.0917581469,5.7944517136,3.1140103340,34.2752685547
        1.6736431122,       -0.0606714487,0.0349429250,-0.0917581469,5.7944517136,3.1140103340,34.5957031250
        1.6762170792,       -0.0499292612,0.0661929250,-0.0839456469,4.5127134323,3.8159146309,34.5957031250
        1.6789829731,       -0.0499292612,0.0661929250,-0.0839456469,4.5127134323,3.8159146309,35.1602783203
        1.6815531254,       -0.0499292612,0.0661929250,-0.0839456469,3.0020935535,4.0142788887,35.1602783203
        1.6841230392,       -0.0499292612,0.0661929250,-0.0839456469,3.0020935535,4.0142788887,35.1602783203
        1.6866819859,       -0.0377222300,0.1037905812,-0.0492776781,1.6135437489,4.1210904121,35.2518310547
        1.6892600060,       -0.0377222300,0.1037905812,-0.0492776781,1.6135437489,4.1210904121,35.2518310547
        1.6918289661,       -0.0377222300,0.1037905812,-0.0492776781,-0.0649230480,4.3194546700,35.1450195312
        1.6943910122,       -0.0377222300,0.1037905812,-0.0492776781,-0.0649230480,4.3194546700,35.1450195312
        1.6969590187,       -0.0357691050,0.1164858937,-0.0341409594,-2.7809875011,4.6551480293,33.9090576172
        1.6996901035,       -0.0357691050,0.1164858937,-0.0341409594,-2.7809875011,4.6551480293,33.9090576172
        1.7023930550,       -0.0357691050,0.1164858937,-0.0341409594,-4.9324769974,4.7772183418,33.0240478516
        1.7051420212,       -0.0357691050,0.1164858937,-0.0341409594,-4.9324769974,4.7772183418,33.0240478516
        1.7078189850,       -0.0386987925,0.1120913625,-0.0297464300,-7.1450014114,4.5941128731,32.8867187500
        1.7104020119,       -0.0386987925,0.1120913625,-0.0297464300,-7.1450014114,4.5941128731,32.8867187500
        1.7135450840,       -0.0386987925,0.1120913625,-0.0297464300,-8.1673402786,3.9532437325,32.6120605469
        1.7161159515,        0.0863012075,0.1262515187,-0.0229104925,-8.1673402786,3.9532437325,32.6120605469
        1.7188990116,       -0.0201441050,0.1262515187,-0.0229104925,-7.5112123489,3.8616909981,31.8948993683
        1.7214710712,       -0.0201441050,0.1262515187,-0.0229104925,-7.5112123489,3.8616909981,31.8948993683
        1.7240390778,       -0.0201441050,0.1262515187,-0.0229104925,-6.1684389114,4.4720425606,31.9864521027
        1.7266149521,       -0.0054956675,0.1081851125,-0.0033792425,-6.1684389114,4.4720425606,31.9864521027
        1.7292389870,       -0.0054956675,0.1081851125,-0.0033792425,-4.8104066849,5.3723111153,31.4981708527
        1.7318019867,       -0.0054956675,0.1081851125,-0.0033792425,-4.8104066849,5.3723111153,31.4981708527
        1.7343769073,       -0.0054956675,0.1081851125,-0.0033792425,-2.6436583996,5.6774868965,31.2540302277
        1.7369470596,        0.0115941763,0.1321108937,-0.0063089300,-2.6436583996,5.6774868965,31.2540302277
        1.7395200729,        0.0115941763,0.1321108937,-0.0063089300,0.0418884754,5.5248990059,31.2998065948
        1.7420880795,        0.0115941763,0.1321108937,-0.0063089300,0.0418884754,5.5248990059,31.2998065948
        1.7446589470,        0.0115941763,0.1321108937,-0.0063089300,0.0418884754,5.5554165840,31.0861835480
        1.7472310066,        0.0159887075,0.1321108937,0.0166402888,1.8729431629,5.5554165840,31.0861835480
        1.7498259544,        0.0159887075,0.1321108937,0.0166402888,1.8729431629,5.5554165840,31.1472187042
        1.7523920536,        0.0159887075,0.1321108937,0.0166402888,3.3225281239,5.8758511543,31.1472187042
        1.7549569607,        0.0159887075,0.1321108937,0.0166402888,3.3225281239,5.8758511543,31.1472187042
        1.7575199604,        0.0052465200,0.1286929250,0.0410543531,4.0549497604,6.0589566231,30.9946308136
        1.7601261139,        0.0052465200,0.1286929250,0.0410543531,4.0549497604,6.0589566231,30.9946308136
        1.7626919746,        0.0052465200,0.1286929250,0.0410543531,3.7802917957,5.9368863106,30.0791034698
        1.7652590275,        0.0052465200,0.1286929250,0.0410543531,3.7802917957,5.9368863106,30.0791034698
        1.7679800987,        0.0052465200,0.0652163625,0.0688863844,3.5056335926,5.4791226387,28.9346942902
        1.7705459595,        0.0052465200,0.0652163625,0.0688863844,3.5056335926,5.4791226387,28.9346942902
        1.7731130123,        0.0052465200,0.0652163625,0.0688863844,4.8941831589,5.1281704903,26.4780292511
        1.7756841183,        0.0052465200,0.0652163625,0.0688863844,4.8941831589,5.1281704903,26.4780292511
        1.7783000469,        0.0399144888,-0.0793148875,0.0674215406,7.1219663620,5.0061001778,23.9145526886
        1.7808659077,        0.0399144888,-0.0793148875,0.0674215406,7.1219663620,5.0061001778,23.9145526886
        1.7835350037,        0.0399144888,-0.0793148875,0.0674215406,10.1279478073,4.6856656075,20.6033954620
        1.7861020565,        0.0399144888,-0.0793148875,0.0449606031,10.1279478073,4.6856656075,20.6033954620
        1.7887439728,        0.0623754263,-0.1803891063,0.0449606031,13.3170347214,4.1210904121,17.7347431183
        1.7914509773,        0.0623754263,-0.1803891063,0.0449606031,13.3170347214,4.1210904121,17.7347431183
        1.7941589355,        0.0623754263,-0.1803891063,0.0449606031,16.5824165344,3.1292691231,13.9505634308
        1.7968730927,        0.0623754263,-0.1994320750,0.0474020094,16.5824165344,3.1292691231,13.9505634308
        1.7995910645,        0.0721410513,-0.1994320750,0.0474020094,20.6259956360,2.2747769356,10.3189716339
        1.8023071289,        0.0721410513,-0.1994320750,0.0474020094,20.6259956360,2.2747769356,10.3189716339
        1.8050150871,        0.0721410513,-0.1994320750,0.0474020094,26.4090766907,2.3205533028,8.3811054230
        1.8079869747,        0.0662816763,-0.1452328563,0.0210348200,26.4090766907,2.3205533028,8.3811054230
        1.8106520176,        0.0662816763,-0.1452328563,0.0210348200,32.3142280579,1.5881314278,4.5358905792
        1.8133671284,        0.0662816763,-0.1452328563,0.0210348200,32.3142280579,1.5881314278,4.5358905792
        1.8161549568,        0.0662816763,-0.1452328563,0.0210348200,36.1594429016,0.4589810371,-2.0101299286
        1.8188090324,        0.0511449575,-0.2057797313,0.0093160700,36.1594429016,0.4589810371,-2.0101299286
        1.8213770390,        0.0511449575,-0.2057797313,0.0093160700,38.0362739563,0.1080288887,-7.7169170380
        1.8239469528,        0.0511449575,-0.2057797313,0.0093160700,38.0362739563,0.1080288887,-7.7169170380
        1.8265199661,        0.0511449575,-0.2057797313,-0.0136331487,38.0362739563,-0.3802523613,-13.1643047333
        1.8291001320,        0.0604223013,-0.2580258250,-0.0136331487,37.8226509094,-0.3802523613,-13.1643047333
        1.8316681385,        0.0604223013,-0.2580258250,-0.0136331487,37.8226509094,-0.3802523613,-17.9555644989
        1.8342370987,        0.0604223013,-0.2580258250,-0.0136331487,35.8390083313,-1.7382845879,-17.9555644989
        1.8368000984,        0.0604223013,-0.2580258250,-0.0209573675,35.8390083313,-1.7382845879,-22.3806133270
        1.8394069672,        0.0799535513,-0.2741391063,-0.0209573675,33.1534614563,-2.6080355644,-22.3806133270
        1.8419759274,        0.0799535513,-0.2741391063,-0.0209573675,33.1534614563,-2.6080355644,-26.2868633270
        1.8445470333,        0.0799535513,-0.2741391063,-0.0209573675,29.7049751282,-3.1268343925,-26.7751445770
        1.8472290039,        0.0799535513,-0.2702328563,-0.0331643969,29.7049751282,-3.1268343925,-26.7751445770
        1.8498280048,        0.1014379263,-0.2702328563,-0.0331643969,26.0276069641,-3.2336459160,-31.5206279755
        1.8523991108,        0.1014379263,-0.2702328563,-0.0331643969,26.0276069641,-3.2336459160,-31.5206279755
        1.8549659252,        0.1014379263,-0.2702328563,-0.0331643969,21.4652290344,-3.8134799004,-36.2203369141
        1.8575351238,        0.1102269888,-0.2834164500,-0.0463479906,21.4652290344,-3.8134799004,-36.2203369141
        1.8602700233,        0.1102269888,-0.2834164500,-0.0463479906,16.6129341125,-4.1644320488,-41.0878906250
        1.8628380299,        0.1102269888,-0.2834164500,-0.0463479906,16.6129341125,-4.1644320488,-41.0878906250
        1.8654091358,        0.1102269888,-0.2834164500,-0.0463479906,11.0739927292,-4.3475375175,-45.4213867188
        1.8681309223,        0.1033910513,-0.2868344188,-0.0531839281,11.0739927292,-4.3475375175,-45.4213867188
        1.8707060814,        0.1033910513,-0.2868344188,-0.0531839281,4.7415952682,-4.3322787285,-49.9990234375
        1.8732759953,        0.1033910513,-0.2868344188,-0.0531839281,4.7415952682,-4.3322787285,-49.9990234375
        1.8758389950,        0.1033910513,-0.2868344188,-0.0531839281,-1.6976134777,-4.1949496269,-54.4698486328
        1.8784670830,        0.0877660513,-0.2756039500,-0.0600198656,-1.6976134777,-4.1949496269,-54.4698486328
        1.8810279369,        0.0877660513,-0.2756039500,-0.0600198656,-7.6943178177,-3.9660677910,-58.7728271484
        1.8835899830,        0.0877660513,-0.2756039500,-0.0600198656,-7.6943178177,-3.9660677910,-58.7728271484
        1.8861589432,        0.0877660513,-0.2756039500,-0.0600198656,-7.6943178177,-3.8134799004,-63.2741699219
        1.8888490200,        0.0804418325,-0.2394711375,-0.0546487719,-14.1487855911,-3.8134799004,-63.2741699219
        1.8914229870,        0.0804418325,-0.2394711375,-0.0546487719,-14.1487855911,-3.8134799004,-67.0430908203
        1.8939931393,        0.0804418325,-0.2394711375,-0.0546487719,-19.8708305359,-3.3709750175,-67.0430908203
        1.8965630531,        0.0804418325,-0.2394711375,-0.0546487719,-19.8708305359,-3.3709750175,-70.9951171875
        1.8991429806,        0.0750707388,-0.2077328563,-0.0561136156,-24.2348442078,-3.3557162285,-70.9951171875
        1.9017150402,        0.0750707388,-0.2077328563,-0.0561136156,-24.2348442078,-3.3557162285,-70.9951171875
        1.9042799473,        0.0750707388,-0.2077328563,-0.0561136156,-28.4310112000,-3.4320101738,-74.8555908203
        1.9068529606,        0.0750707388,-0.2077328563,-0.0561136156,-28.4310112000,-3.4320101738,-74.8555908203
        1.9096200466,        0.0657933950,-0.1867367625,-0.0561136156,-31.6200981140,-3.2489047050,-78.9754638672
        1.9121940136,        0.0657933950,-0.1867367625,-0.0561136156,-31.6200981140,-3.2489047050,-78.9754638672
        1.9147739410,        0.0657933950,-0.1867367625,-0.0561136156,-33.5884819031,-2.4401888847,-83.1563720703
        1.9173450470,        0.0657933950,-0.1867367625,-0.0683206469,-33.5884819031,-2.4401888847,-83.1563720703
        1.9200940132,        0.0550512075,-0.1740414500,-0.0683206469,-36.1214408875,-1.9519076347,-87.7187500000
        1.9226651192,        0.0550512075,-0.1740414500,-0.0683206469,-36.1214408875,-1.9519076347,-87.7187500000
        1.9254131317,        0.0550512075,-0.1740414500,-0.0683206469,-37.9524955750,-1.8603549004,-91.6707763672
        1.9290471077,        0.0311254263,-0.1657406688,-0.0575784594,-37.9524955750,-1.8603549004,-95.5770263672
        1.9316179752,        0.0311254263,-0.1657406688,-0.0575784594,-39.2952690125,-1.5704379082,-95.4702148438
        1.9341919422,        0.0311254263,-0.1657406688,-0.0575784594,-39.2952690125,-1.5704379082,-95.4702148438
        1.9367599487,        0.0311254263,-0.1657406688,-0.0575784594,-40.7295951843,-1.2805209160,-99.0560302734
        1.9393310547,        0.0155004263,-0.1452328563,-0.0614847094,-40.7295951843,-1.2805209160,-99.0560302734
        1.9419090748,        0.0155004263,-0.1452328563,-0.0614847094,-41.1873588562,-1.0363802910,-102.5655517578
        1.9444859028,        0.0155004263,-0.1452328563,-0.0614847094,-41.1873588562,-1.0363802910,-102.5655517578
        1.9470579624,        0.0155004263,-0.1452328563,-0.0614847094,-41.6451225281,-0.9143099785,-106.0903320312
        1.9496381283,        0.0067113638,-0.1305844188,-0.0522073656,-41.6451225281,-0.9143099785,-106.0903320312
        1.9522039890,        0.0067113638,-0.1305844188,-0.0522073656,-41.5688285828,-0.3802523613,-109.3099365234
        1.9547760487,        0.0067113638,-0.1305844188,-0.0522073656,-41.5688285828,-0.3802523613,-109.3099365234
        1.9573469162,        0.0067113638,-0.1305844188,-0.0522073656,-41.2636528015,0.1080288887,-112.0107421875
        1.9599609375,       -0.0079370737,-0.1198422313,-0.0536722094,-41.2636528015,0.1080288887,-112.0107421875
        1.9625320435,       -0.0079370737,-0.1198422313,-0.0536722094,-41.2636528015,0.5810513496,-115.1387939453
        1.9651000500,       -0.0079370737,-0.1198422313,-0.0536722094,-40.6380424500,0.5810513496,-115.1387939453
        1.9676871300,       -0.0079370737,-0.1198422313,-0.0536722094,-40.6380424500,4.4873013496,-117.7175292969
        1.9702579975,       -0.0152612925,-0.0905453563,-0.0536722094,-39.9513969421,0.7488980293,-117.7175292969
        1.9729421139,       -0.0152612925,-0.0905453563,-0.0536722094,-39.9513969421,0.7488980293,-120.6472167969
        1.9755179882,       -0.0152612925,-0.0905453563,-0.0536722094,-38.8069877625,1.5576138496,-120.6472167969
        1.9782309532,       -0.0152612925,0.0344546437,-0.0551370531,-38.8069877625,1.5576138496,-122.4019775391
        1.9807999134,       -0.0196558237,-0.0632016063,-0.0551370531,-37.2963676453,2.3358120918,-122.4019775391
        1.9833769798,       -0.0196558237,-0.0632016063,-0.0551370531,-37.2963676453,2.3358120918,-122.4019775391
        1.9859440327,       -0.0196558237,-0.0632016063,-0.0551370531,-36.2282524109,3.5412564278,-124.7365722656
        1.9887139797,       -0.1446558237,-0.0446469188,-0.0424417406,-36.2282524109,3.5412564278,-124.7365722656
        1.9912841320,       -0.0362573862,-0.0446469188,-0.0424417406,-35.9993705750,4.6704068184,-126.0183105469
        1.9938480854,       -0.0362573862,-0.0446469188,-0.0424417406,-35.9993705750,4.6704068184,-126.0183105469
        1.9964189529,       -0.0362573862,-0.0446469188,-0.0424417406,-34.5955619812,5.4943814278,-127.8035888672
        1.9990510941,       -0.0445581675,-0.0280453563,-0.0522073656,-34.5955619812,5.4943814278,-127.8035888672
        2.0016260147,       -0.0445581675,-0.0280453563,-0.0522073656,-32.5203666687,6.2420620918,-130.3518066406
        2.0042040348,       -0.0445581675,-0.0280453563,-0.0522073656,-32.5203666687,6.2420620918,-130.3518066406
        2.0067739487,       -0.0445581675,-0.0280453563,-0.0522073656,-30.9639701843,6.6082730293,-132.2591552734
        2.0094089508,       -0.0665308237,-0.0256039500,-0.0439065844,-30.9639701843,6.6082730293,-132.2591552734
        2.0119750500,       -0.0665308237,-0.0256039500,-0.0439065844,-30.5519828796,7.4169888496,-133.5714111328
        2.0146760941,       -0.0665308237,-0.0256039500,-0.0439065844,-30.5519828796,7.4169888496,-133.5714111328
        2.0172469616,       -0.0665308237,-0.0256039500,-0.0439065844,-29.9416313171,7.4627652168,-134.7158203125
        2.0199649334,       -0.0797144175,-0.0226742625,-0.0502542406,-29.9416313171,7.4627652168,-134.7158203125
        2.0225369930,       -0.0797144175,-0.0226742625,-0.0502542406,-28.8887748718,7.6916470528,-135.8602294922
        2.0254929066,       -0.0797144175,-0.0226742625,-0.0502542406,-28.8887748718,7.6916470528,-135.8602294922
        2.0281131268,       -0.0797144175,-0.0226742625,-0.0502542406,-27.5917778015,7.9052700996,-136.8825683594
        2.0306859016,       -0.0865503550,-0.0109555125,-0.0522073656,-27.5917778015,7.9052700996,-136.8825683594
        2.0332589149,       -0.0865503550,-0.0109555125,-0.0522073656,-27.5917778015,8.2714805603,-138.1948242188
        2.0359370708,       -0.0865503550,-0.0109555125,-0.0522073656,-26.2947807312,8.2714805603,-138.1948242188
        2.0385990143,       -0.0865503550,-0.0109555125,-0.0605081469,-26.2947807312,8.2257041931,-139.2476806641
        2.0411760807,       -0.0909448862,-0.0309750438,-0.0605081469,-24.7231254578,8.2257041931,-139.2476806641
        2.0437500477,       -0.0909448862,-0.0309750438,-0.0605081469,-24.7231254578,8.2257041931,-139.8580322266
        2.0463180542,       -0.0909448862,-0.0309750438,-0.0605081469,-24.5552787781,8.2409629822,-139.8580322266
        2.0488939285,       -0.0909448862,-0.0309750438,-0.0580667406,-24.5552787781,8.2409629822,-139.8580322266
        2.0514750481,       -0.0963159800,-0.0339047313,-0.0580667406,-24.7078666687,8.1799278259,-140.8193359375
        2.0540480614,       -0.0963159800,-0.0339047313,-0.0580667406,-24.7078666687,8.1799278259,-140.8193359375
        2.0566201210,       -0.0963159800,-0.0339047313,-0.0580667406,-24.6315727234,7.9968228340,-141.8569335938
        2.0592410564,       -0.0963159800,-0.0539242625,-0.0507425219,-24.6315727234,7.9968228340,-141.8569335938
        2.0618119240,       -0.0992456675,-0.0539242625,-0.0507425219,-24.9062309265,7.9663052559,-142.2536621094
        2.0643920898,       -0.0992456675,-0.0539242625,-0.0507425219,-24.9062309265,7.9663052559,-142.2536621094
        2.0669600964,       -0.0992456675,-0.0539242625,-0.0507425219,-25.0130424500,8.0731163025,-142.9708251953
        2.0697269440,       -0.1075464487,-0.0524594188,-0.0551370531,-25.0130424500,8.0731163025,-142.9708251953
        2.0723030567,       -0.1075464487,-0.0524594188,-0.0551370531,-25.8064994812,8.7139854431,-143.5048828125
        2.0748720169,       -0.1075464487,-0.0524594188,-0.0551370531,-25.8064994812,8.7139854431,-143.5048828125
        2.0774400234,       -0.1075464487,-0.0524594188,-0.0551370531,-28.2631645203,9.0496788025,-143.6116943359
        2.0815539360,       -0.1055933237,-0.0431820750,-0.0546487719,-28.2631645203,9.0496788025,-143.3675537109
        2.0845429897,       -0.1055933237,-0.0431820750,-0.0546487719,-31.5438041687,9.5379600525,-143.3675537109
        2.0872459412,       -0.1055933237,-0.0431820750,-0.0546487719,-31.5438041687,9.5379600525,-142.6046142578
        2.0899491310,       -0.0889917612,-0.0094906688,-0.0507425219,-35.7704887390,10.3314170837,-142.6046142578
        2.0926439762,       -0.0889917612,-0.0094906688,-0.0507425219,-35.7704887390,10.3314170837,-141.7806396484
        2.0953450203,       -0.0889917612,-0.0094906688,-0.0507425219,-41.2636528015,11.5673789978,-141.7806396484
        2.0980870724,       -0.0889917612,-0.0094906688,-0.0507425219,-41.2636528015,11.5673789978,-140.5446777344
        2.1009290218,       -0.0972925425,0.0442202687,-0.0468362719,-44.6358451843,12.3150596619,-140.5446777344
        2.1036250591,       -0.0972925425,0.0442202687,-0.0468362719,-44.6358451843,16.2213096619,-138.3474121094
        2.1063210964,       -0.0972925425,0.0442202687,-0.0468362719,-45.7192192078,12.6507530212,-138.3474121094
        2.1090250015,       -0.0972925425,0.0442202687,-0.0468362719,-45.7192192078,12.6507530212,-137.0961914062
        2.1117179394,       -0.1065698862,0.0935366750,-0.0248636175,-46.1922416687,12.6660118103,-137.0961914062
        2.1144421101,       -0.1065698862,0.0935366750,-0.0248636175,-46.1922416687,12.6660118103,-136.5926513672
        2.1170220375,       -0.1065698862,0.0935366750,-0.0248636175,-45.3530082703,12.1166954041,-136.5926513672
        2.1198370457,       -0.1065698862,0.0764468312,-0.0180276800,-45.3530082703,12.1166954041,-136.0128173828
        2.1225080490,       -0.1202417612,0.0764468312,-0.0180276800,-44.5442924500,12.3913536072,-136.0128173828
        2.1253490448,       -0.1202417612,0.0764468312,-0.0180276800,-44.5442924500,12.3913536072,-135.7381591797
        2.1281089783,       -0.1202417612,0.0764468312,-0.0180276800,-44.0712699890,12.2845420837,-135.7381591797
        2.1306951046,       -0.1339136362,0.0149233937,-0.0326761156,-44.0712699890,12.2845420837,-135.3566894531
        2.1332669258,       -0.1339136362,0.0149233937,-0.0326761156,-44.4069633484,12.2998008728,-135.3566894531
        2.1358349323,       -0.1339136362,0.0149233937,-0.0326761156,-44.4069633484,12.2998008728,-131.4504394531
        2.1384589672,       -0.1339136362,0.0149233937,-0.0326761156,-45.4598197937,12.2540245056,-134.0596923828
        2.1410291195,       -0.1373316050,-0.0212094188,-0.0321878344,-45.4598197937,12.2540245056,-134.0596923828
        2.1436090469,       -0.1373316050,-0.0212094188,-0.0321878344,-46.2990531921,12.8643760681,-132.6558837891
        2.1461811066,       -0.1373316050,-0.0212094188,-0.0321878344,-46.2990531921,12.8643760681,-132.6558837891
        2.1487591267,       -0.1373316050,-0.0212094188,-0.0321878344,-46.6500053406,13.2000694275,-130.4738769531
        2.1513340473,       -0.1300073862,-0.0329281688,-0.0385354906,-46.6500053406,13.2000694275,-130.4738769531
        2.1539030075,       -0.1300073862,-0.0329281688,-0.0385354906,-46.9399223328,13.9935264587,-128.1850585938
        2.1564750671,       -0.1300073862,-0.0329281688,-0.0385354906,-46.9399223328,13.9935264587,-128.1850585938
        2.1590759754,       -0.1300073862,-0.0329281688,-0.0385354906,-47.4739799500,14.8785362244,-126.0183105469
        2.1616430283,       -0.1412378550,-0.0212094188,-0.0360940844,-47.4739799500,14.8785362244,-126.0183105469
        2.1643280983,       -0.1412378550,-0.0212094188,-0.0360940844,-46.6042289734,15.2142295837,-123.6837158203
        2.1669011116,       -0.1412378550,-0.0212094188,-0.0360940844,-46.6042289734,15.2142295837,-123.6837158203
        2.1695599556,       -0.1412378550,-0.0212094188,-0.0360940844,-44.1475639343,15.4431114197,-121.1965332031
        2.1721401215,       -0.1300073862,0.0129702687,-0.0302347112,-44.1475639343,15.4431114197,-121.1965332031
        2.1747119427,       -0.1300073862,0.0129702687,-0.0302347112,-44.1475639343,15.8398399353,-118.3278808594
        2.1772820950,       -0.1300073862,0.0129702687,-0.0302347112,-41.3857231140,15.8398399353,-118.3278808594
        2.1800000668,       -0.1300073862,0.0129702687,-0.0033792425,-41.3857231140,19.7460899353,-116.2526855469
        2.1825721264,       -0.1114526987,0.0412905812,-0.0033792425,-39.0358695984,16.3128623962,-116.2526855469
        2.1851499081,       -0.1114526987,0.0412905812,-0.0033792425,-39.0358695984,16.3128623962,-113.7044677734
        2.1877279282,       -0.1114526987,0.0412905812,-0.0033792425,-36.7165336609,16.7706260681,-113.7044677734
        2.1904249191,       -0.1114526987,0.0432437062,-0.0087503362,-36.7165336609,16.7706260681,-110.4543457031
        2.1931250095,       -0.0797144175,0.0432437062,-0.0087503362,-34.7023735046,17.1063194275,-110.4543457031
        2.1958160400,       -0.0797144175,0.0432437062,-0.0087503362,-34.7023735046,17.1063194275,-107.6925048828
        2.1985259056,       -0.0797144175,0.0432437062,-0.0087503362,-32.7187309265,16.8164024353,-107.6925048828
        2.2012269497,       -0.0518823862,0.0432437062,-0.0048440862,-32.7187309265,16.8164024353,-103.7862548828
        2.2039170265,       -0.0518823862,0.0432437062,-0.0048440862,-30.8266410828,16.7858848572,-104.5491943359
        2.2066140175,       -0.0518823862,0.0432437062,-0.0048440862,-30.8266410828,16.7858848572,-100.6429443359
        2.2093179226,       -0.0518823862,0.0432437062,-0.0048440862,-29.3617973328,16.7858848572,-101.2990722656
        2.2120139599,       -0.0391870737,0.0281069875,0.0093160700,-29.3617973328,16.7858848572,-97.3928222656
        2.2147190571,       -0.0391870737,0.0281069875,0.0093160700,-27.5460014343,16.2213096619,-97.9573974609
        2.2174179554,       -0.0391870737,0.0281069875,0.0093160700,-27.5460014343,16.2213096619,-94.0511474609
        2.2201299667,       -0.0391870737,0.0281069875,0.0093160700,-25.9590873718,15.2600059509,-95.1650390625
        2.2228269577,       -0.0157495737,0.0281069875,0.0049215388,-25.9590873718,15.2600059509,-95.1650390625
        2.2255239487,       -0.0157495737,0.0281069875,0.0049215388,-24.4484672546,14.4818077087,-92.1132812500
        2.2283499241,       -0.0157495737,0.0281069875,0.0049215388,-24.4484672546,14.4818077087,-88.2070312500
        2.2310559750,       -0.0157495737,0.0295718312,0.0093160700,-22.6631889343,13.4899864197,-88.6037597656
        2.2337770462,       -0.0074487925,0.0295718312,0.0093160700,-22.6631889343,13.4899864197,-84.6975097656
        2.2365269661,       -0.0074487925,0.0295718312,0.0093160700,-21.1067924500,13.1390342712,-85.4909667969
        2.2395241261,       -0.0074487925,0.0295718312,0.0093160700,-21.1067924500,13.1390342712,-81.8593750000
        2.2422399521,       -0.0050073862,0.0183413625,0.0068746638,-20.2217826843,12.1624717712,-81.8593750000
        2.2449450493,       -0.0050073862,0.0183413625,0.0068746638,-20.2217826843,12.1624717712,-78.5634765625
        2.2476649284,       -0.0050073862,0.0183413625,0.0068746638,-20.2523002625,11.0333213806,-78.5634765625
        2.2503781319,       -0.0050073862,0.0183413625,0.0068746638,-20.2523002625,11.0333213806,-74.9776611328
        2.2530851364,       -0.0015894175,-0.0021664500,-0.0024026800,-20.1607475281,10.2246055603,-74.9776611328
        2.2557899952,       -0.0015894175,-0.0021664500,-0.0024026800,-20.1607475281,10.2246055603,-70.9340820312
        2.2585179806,       -0.0015894175,-0.0021664500,-0.0024026800,-21.1220512390,9.1259727478,-70.9340820312
        2.2612209320,       -0.0015894175,-0.0133969188,-0.0087503362,-21.1220512390,9.1259727478,-67.1499023438
        2.2639319897,        0.0218480825,-0.0133969188,-0.0087503362,-22.4953422546,8.3172569275,-67.1499023438
        2.2666430473,        0.0218480825,-0.0133969188,-0.0087503362,-22.4953422546,8.3172569275,-63.1978759766
        2.2692849636,        0.0218480825,-0.0133969188,-0.0087503362,-22.7700004578,7.4017300606,-63.1978759766
        2.2718610764,        0.0345433950,0.0056460500,-0.0185159612,-22.7700004578,7.4017300606,-63.1978759766
        2.2744340897,        0.0345433950,0.0056460500,-0.0185159612,-23.0599174500,6.8524136543,-58.9254150391
        2.2770090103,        0.0345433950,0.0056460500,-0.0185159612,-23.0599174500,6.8524136543,-58.9254150391
        2.2796380520,        0.0345433950,0.0056460500,-0.0185159612,-23.3803520203,6.5014615059,-54.6834716797
        2.2822151184,        0.0369848013,0.0393374562,-0.0121683050,-23.3803520203,6.5014615059,-54.6834716797
        2.2847979069,        0.0369848013,0.0393374562,-0.0121683050,-23.2430229187,6.4251675606,-49.6938476562
        2.2873799801,        0.0369848013,0.0393374562,-0.0121683050,-23.2430229187,6.4251675606,-49.6938476562
        2.2901110649,        0.0369848013,0.0393374562,-0.0121683050,-21.4730033875,5.9674038887,-44.6431884766
        2.2928040028,        0.0526098013,0.0642398000,-0.0190042425,-21.4730033875,5.9674038887,-44.6431884766
        2.2953779697,        0.0526098013,0.0642398000,-0.0190042425,-19.3367729187,5.4638638496,-39.8519287109
        2.2980349064,        0.0526098013,0.0642398000,-0.0190042425,-19.3367729187,5.4638638496,-39.8519287109
        2.3007540703,        0.0526098013,0.0642398000,-0.0190042425,-17.6430473328,4.6551480293,-35.4726562500
        2.3034629822,        0.0511449575,0.0647280812,-0.0131448675,-17.6430473328,4.6551480293,-35.4726562500
        2.3061790466,        0.0511449575,0.0647280812,-0.0131448675,-16.0256156921,4.2736783028,-31.2154521942
        2.3088989258,        0.0511449575,0.0647280812,-0.0131448675,-16.0256156921,4.2736783028,-31.2154521942
        2.3116049767,        0.0511449575,0.0486148000,-0.0087503362,-14.5912904739,3.6022915840,-27.2023906708
        2.3143119812,        0.0574926138,0.0486148000,-0.0087503362,-14.5912904739,3.6022915840,-27.2023906708
        2.3170170784,        0.0574926138,0.0486148000,-0.0087503362,-14.2403383255,3.1597867012,-22.8688945770
        2.3196339607,        0.0574926138,0.0486148000,-0.0087503362,-14.2403383255,3.1597867012,-22.8688945770
        2.3222069740,        0.0487035513,0.0422671437,0.0088277888,-13.6452455521,2.7020230293,-18.0318584442
        2.3247771263,        0.0487035513,0.0422671437,0.0088277888,-13.6452455521,2.7020230293,-18.0318584442
        2.3273539543,        0.0487035513,0.0422671437,0.0088277888,-12.9280824661,2.5494351387,-13.3016338348
        2.3300950527,        0.0487035513,0.0422671437,0.0088277888,-12.9280824661,2.5494351387,-13.3016338348
        2.3327970505,        0.0443090200,0.0398257375,-0.0014261175,-11.2648744583,1.7712368965,-8.7239971161
        2.3355031013,        0.0443090200,0.0398257375,-0.0014261175,-11.2648744583,1.7712368965,-8.7239971161
        2.3382089138,        0.0443090200,0.0398257375,-0.0014261175,-9.5711488724,1.5423550606,-4.1158428192
        2.3409121037,        0.0443090200,0.0398257375,-0.0014261175,-9.5711488724,1.5423550606,-4.1158428192
        2.3436219692,        0.0418676138,0.0373843312,0.0010152888,-8.1673402786,1.1456265450,0.5838642120
        2.3463261127,        0.0418676138,0.0373843312,0.0010152888,-8.1673402786,1.1456265450,0.5838642120
        2.3490750790,        0.0418676138,0.0373843312,0.0010152888,-6.6262025833,0.8709683418,4.9478778839
        2.3517780304,        0.0418676138,0.0373843312,-0.0028909612,-6.6262025833,0.8709683418,4.9478778839
        2.3547489643,        0.0501683950,0.0237124562,-0.0028909612,-4.9477357864,1.0845913887,8.4726581573
        2.3579559326,        0.0501683950,0.0237124562,-0.0028909612,-4.9477357864,1.0845913887,8.4726581573
        2.3606729507,        0.0501683950,0.0237124562,-0.0028909612,-3.4828917980,0.9167447090,11.8295917511
        2.3633821011,        0.0550512075,0.0129702687,0.0034566950,-3.4828917980,0.9167447090,11.8295917511
        2.3660869598,        0.0550512075,0.0129702687,0.0034566950,-2.3537414074,0.0622525215,15.0186786652
        2.3687379360,        0.0550512075,0.0129702687,0.0034566950,-2.3537414074,0.0622525215,15.0186786652
        2.3713150024,        0.0550512075,0.0129702687,0.0034566950,-0.9651916027,-0.3955111504,17.7957782745
        2.3738870621,        0.0433324575,-0.0050961375,0.0185934138,-0.9651916027,-0.3955111504,17.7957782745
        2.3764560223,        0.0433324575,-0.0050961375,0.0185934138,0.3775818348,-1.2042269707,21.0153827667
        2.3791289330,        0.0433324575,-0.0050961375,0.0185934138,0.3775818348,-1.2042269707,21.0153827667
        2.3818349838,        0.0433324575,-0.0050961375,0.0151754450,2.1933777332,-1.9366488457,23.3957538605
        2.3845410347,        0.0408910513,-0.0138852000,0.0151754450,2.1933777332,-1.9366488457,23.3957538605
        2.3872480392,        0.0408910513,-0.0138852000,0.0151754450,3.3835632801,-2.3181185722,25.1199970245
        2.3898489475,        0.0408910513,-0.0138852000,0.0151754450,3.3835632801,-2.3181185722,25.1199970245
        2.3924250603,        0.0408910513,-0.0251156688,0.0156637263,3.3835632801,-2.8369174004,27.1799335480
        2.3949990273,        0.0399144888,-0.0251156688,0.0156637263,4.8178892136,-2.8369174004,27.1799335480
        2.3976049423,        0.0399144888,-0.0251156688,0.0156637263,4.8178892136,-6.7431674004,29.3619403839
        2.4001789093,        0.0399144888,-0.0251156688,0.0156637263,6.2064390182,-3.5388216972,29.3619403839
        2.4027581215,        0.0399144888,-0.0978695750,0.0122457575,6.2064390182,-3.5388216972,29.4229755402
        2.4053359032,        0.0428441763,-0.0978695750,0.0122457575,6.7862730026,-5.2172884941,29.4229755402
        2.4080190659,        0.0428441763,-0.0978695750,0.0122457575,6.7862730026,-5.2172884941,17.7042255402
        2.4105920792,        0.0428441763,-0.0978695750,0.0122457575,9.9601011276,-5.5224642754,18.6960468292
        2.4131810665,       -0.0924097300,-0.4250180125,-0.1171487719,9.9601011276,-5.5224642754,18.6960468292
        2.4157629013,       -0.0924097300,-0.4250180125,-0.1171487719,10.0363950729,1.0693325996,14.6982440948
        2.4184291363,       -0.0924097300,-0.4250180125,-0.1171487719,10.0363950729,1.0693325996,14.6982440948
        2.4211049080,       -0.0924097300,-0.4250180125,-0.1171487719,8.0374937057,4.5330777168,13.9963397980
        2.4236791134,       -0.0474878550,-0.7253109813,-0.1410745531,8.0374937057,4.5330777168,13.9963397980
        2.4262580872,       -0.0474878550,-0.7253109813,-0.1410745531,4.0091733932,3.9074673653,8.8388690948
        2.4289410114,       -0.0474878550,-0.7253109813,-0.1410745531,4.0091733932,3.9074673653,8.8388690948
        2.4316439629,       -0.0474878550,-0.7253109813,-0.1410745531,-4.6883363724,0.8709683418,6.1990985870
        2.4343509674,       -0.0762964487,-0.7931820750,-0.0292581487,-4.6883363724,0.8709683418,6.1990985870
        2.4370510578,       -0.0762964487,-0.7931820750,-0.0292581487,-11.9820375443,-3.1726107597,7.4503192902
        2.4397749901,       -0.0762964487,-0.7931820750,-0.0292581487,-11.9820375443,-3.1726107597,7.4503192902
        2.4424769878,       -0.0762964487,-0.7931820750,-0.0439065844,-13.1874818802,-4.5611605644,10.2884540558
        2.4451839924,       -0.0928980112,-0.5402523875,-0.0439065844,-13.1874818802,-4.5611605644,10.2884540558
        2.4479060173,       -0.0928980112,-0.5402523875,-0.0439065844,-14.9117250443,-4.2559847832,13.7369403839
        2.4506130219,       -0.0928980112,-0.5402523875,-0.0439065844,-14.9117250443,-4.2559847832,13.7369403839
        2.4533190727,       -0.0928980112,-0.2380062938,-0.0761331469,-18.3907279968,-2.8674349785,17.2464618683
        2.4560289383,       -0.1065698862,-0.2380062938,-0.0761331469,-18.3907279968,-2.8674349785,17.2464618683
        2.4587409496,       -0.1065698862,-0.2380062938,-0.0761331469,-20.5727348328,-2.2265658379,20.9238300323
        2.4614510536,       -0.1065698862,-0.2380062938,-0.0761331469,-20.5727348328,-2.2265658379,20.9238300323
        2.4641559124,       -0.1036401987,-0.0924984813,-0.0590433031,-22.4037895203,-2.7148470879,24.5706806183
        2.4668600559,       -0.1036401987,-0.0924984813,-0.0590433031,-22.4037895203,-2.7148470879,24.5706806183
        2.4694900513,       -0.1036401987,-0.0924984813,-0.0590433031,-24.5552787781,-4.1491732597,28.4311542511
        2.4720649719,       -0.1036401987,-0.0924984813,-0.0590433031,-24.5552787781,-4.1491732597,28.4311542511
        2.4747159481,       -0.1387964487,-0.1408383250,-0.0160745550,-26.2490043640,-5.8886752129,31.9711933136
        2.4772949219,       -0.1387964487,-0.1408383250,-0.0160745550,-26.2490043640,-5.8886752129,31.9711933136
        2.4801731110,       -0.1387964487,-0.1408383250,-0.0160745550,-26.5694389343,-7.8265414238,35.1602783203
        2.4828720093,       -0.1387964487,-0.1408383250,-0.0243753362,-26.5694389343,-7.8265414238,35.1602783203
        2.4855611324,       -0.1593042612,-0.2091977000,-0.0243753362,-25.4555473328,-9.0167274475,37.5253906250
        2.4884159565,       -0.1593042612,-0.2091977000,-0.0243753362,-25.4555473328,-9.0167274475,37.5253906250
        2.4911139011,       -0.1593042612,-0.2091977000,-0.0243753362,-23.4261283875,-9.2608680725,40.1651611328
        2.4938049316,       -0.1475855112,-0.2140805125,-0.0663675219,-23.4261283875,-9.2608680725,40.1651611328
        2.4965031147,       -0.1475855112,-0.2140805125,-0.0663675219,-20.3133354187,-8.9099159241,42.4387207031
        2.4991829395,       -0.1475855112,-0.2140805125,-0.0663675219,-20.3133354187,-8.9099159241,42.4387207031
        2.5019009113,       -0.1475855112,-0.2140805125,-0.0663675219,-18.0092582703,-9.5660438538,44.3308105469
        2.5046160221,       -0.0948511362,-0.1867367625,-0.1117776781,-18.0092582703,-9.5660438538,44.3308105469
        2.5073280334,       -0.0948511362,-0.1867367625,-0.1117776781,-18.1008110046,-9.8864784241,45.3226318359
        2.5099611282,       -0.0948511362,-0.1867367625,-0.1117776781,-18.1008110046,-9.8864784241,45.3226318359
        2.5125389099,       -0.0948511362,-0.1867367625,-0.1117776781,-17.9177055359,-10.7562294006,46.3144531250
        2.5151159763,       -0.0274683237,-0.1632992625,-0.0697854906,-17.9177055359,-10.7562294006,46.3144531250
        2.5176959038,       -0.0274683237,-0.1632992625,-0.0697854906,-17.9177055359,-11.9769325256,46.7874755859
        2.5202789307,       -0.0274683237,-0.1632992625,-0.0697854906,-17.5820121765,-11.9769325256,46.7874755859
        2.5228579044,       -0.0274683237,-0.1632992625,-0.0697854906,-17.5820121765,-11.9769325256,46.0397949219
        2.5254380703,        0.0164769888,-0.1618344188,-0.0287698675,-17.4294242859,-13.7469520569,46.0397949219
        2.5281901360,        0.0164769888,-0.1618344188,-0.0287698675,-17.4294242859,-13.7469520569,44.6970214844
        2.5307700634,        0.0164769888,-0.1618344188,-0.0287698675,-16.5901908875,-14.4335975647,44.6970214844
        2.5333590508,        0.0164769888,-0.1618344188,-0.0312112737,-16.5901908875,-14.4335975647,43.8883056641
        2.5359380245,        0.0111058950,-0.1608578563,-0.0312112737,-14.2861146927,-14.3267860413,43.8883056641
        2.5386509895,        0.0111058950,-0.1608578563,-0.0312112737,-14.2861146927,-14.3267860413,43.8883056641
        2.5413599014,        0.0111058950,-0.1608578563,-0.0312112737,-13.1264467239,-14.3420448303,42.3776855469
        2.5440621376,        0.0111058950,-0.1525570750,-0.0341409594,-13.1264467239,-14.3420448303,42.3776855469
        2.5467729568,       -0.0011011362,-0.1525570750,-0.0341409594,-12.8060121536,-13.9300575256,41.7825927734
        2.5494959354,       -0.0011011362,-0.1525570750,-0.0341409594,-12.8060121536,-13.9300575256,41.7825927734
        2.5523099899,       -0.0011011362,-0.1525570750,-0.0341409594,-12.3177309036,-14.0979042053,41.5689697266
        2.5550251007,       -0.0084253550,-0.1310727000,-0.0497659594,-12.3177309036,-14.0979042053,41.5689697266
        2.5577259064,       -0.0084253550,-0.1310727000,-0.0497659594,-11.9515199661,-14.5404090881,41.3858642578
        2.5604419708,       -0.0084253550,-0.1310727000,-0.0497659594,-11.9515199661,-14.5404090881,37.4796142578
        2.5631470680,       -0.0084253550,-0.1310727000,-0.0497659594,-11.8752260208,-15.0134315491,40.7144775391
        2.5658519268,       -0.0157495737,-0.1007992625,-0.0165628362,-11.8752260208,-15.0134315491,40.7144775391
        2.5685341358,       -0.0157495737,-0.1007992625,-0.0165628362,-11.1428041458,-15.5169715881,40.7907714844
        2.5711100101,       -0.0157495737,-0.1007992625,-0.0165628362,-11.1428041458,-15.5169715881,40.7907714844
        2.5736830235,       -0.0157495737,-0.1007992625,0.0088277888,-8.5488100052,-16.6918983459,42.1335449219
        2.5762629509,       -0.0518823862,0.0608218312,0.0088277888,-8.5488100052,-16.6918983459,42.1335449219
        2.5789339542,       -0.0518823862,0.0608218312,0.0088277888,-3.7422912121,-17.3022499084,46.0550537109
        2.5816469193,       -0.0518823862,0.0608218312,0.0088277888,-3.7422912121,-17.3022499084,46.0550537109
        2.5843460560,       -0.0518823862,0.0403140187,0.0010152888,-0.7210509777,-17.8515663147,46.9553222656
        2.5870530605,       -0.0621362925,0.0403140187,0.0010152888,-0.7210509777,-17.8515663147,46.9553222656
        2.5897750854,       -0.0621362925,0.0403140187,0.0010152888,1.9187195301,-17.7142372131,42.4997558594
        2.5924761295,       -0.0621362925,0.0403140187,0.0010152888,1.9187195301,-17.7142372131,42.4997558594
        2.5953030586,       -0.0030542612,-0.1125180125,-0.0277933050,3.0783874989,-17.2717323303,38.4256591797
        2.5981280804,       -0.0030542612,-0.1125180125,-0.0277933050,3.0783874989,-17.2717323303,38.4256591797
        2.6008510590,       -0.0030542612,-0.1125180125,-0.0277933050,1.7356140614,-16.8444862366,36.7166748047
        2.6035659313,       -0.0030542612,-0.1125180125,-0.0277933050,1.7356140614,-16.8444862366,36.7166748047
        2.6062691212,        0.0023168325,-0.1486508250,-0.0600198656,-5.1918764114,-16.6308631897,36.4572753906
        2.6089849472,        0.0023168325,-0.1486508250,-0.0600198656,-5.1918764114,-16.6308631897,36.4572753906
        2.6116960049,        0.0023168325,-0.1486508250,-0.0600198656,-10.7918519974,-16.9207801819,35.7095947266
        2.6144020557,        0.0023168325,-0.1486508250,-0.0307229925,-10.7918519974,-16.9207801819,35.7095947266
        2.6172139645,        0.0071996450,-0.1042172313,-0.0307229925,-9.7237367630,-16.1883583069,35.2365722656
        2.6198220253,        0.0071996450,-0.1042172313,-0.0307229925,-9.7237367630,-16.1883583069,35.2365722656
        2.6224040985,        0.0071996450,-0.1042172313,-0.0307229925,-7.6332826614,-14.7998085022,34.0311279297
        2.6261649132,       -0.0079370737,-0.0563656688,0.0024801325,-7.6332826614,-14.7998085022,32.2305908203
        2.6287560463,       -0.0079370737,-0.0563656688,0.0024801325,-6.7940492630,-14.4641151428,32.2305908203
        2.6313309669,       -0.0079370737,-0.0563656688,0.0024801325,-6.7940492630,-14.4641151428,32.2305908203
        2.6338999271,       -0.0079370737,-0.0563656688,0.0024801325,-4.1542787552,-14.5861854553,31.0404071808
        2.6364679337,       -0.0074487925,-0.0651547313,0.0434957594,-4.1542787552,-14.5861854553,31.0404071808
        2.6391110420,       -0.0074487925,-0.0651547313,0.0434957594,0.5759460926,-15.3949012756,29.2703876495
        2.6416809559,       -0.0074487925,-0.0651547313,0.0434957594,0.5759460926,-15.3949012756,29.2703876495
        2.6442589760,       -0.0074487925,-0.0651547313,0.0434957594,5.8554868698,-15.4406776428,27.1494159698
        2.6468300819,       -0.0113550425,-0.0939633250,0.0132223200,5.8554868698,-15.4406776428,27.1494159698
        2.6494491100,       -0.0113550425,-0.0939633250,0.0132223200,9.2581968307,-14.5098915100,25.2725849152
        2.6520259380,       -0.0113550425,-0.0939633250,0.0132223200,9.2581968307,-14.5098915100,25.2725849152
        2.6546010971,       -0.0113550425,-0.0939633250,-0.0053323675,10.3568296432,-13.9758338928,23.3804950714
        2.6571779251,       -0.0103784800,-0.0749203563,-0.0053323675,10.3568296432,-13.9758338928,23.3804950714
        2.6598141193,       -0.0103784800,-0.0749203563,-0.0053323675,9.5023374557,-12.8466835022,21.0916767120
        2.6623890400,       -0.0103784800,-0.0749203563,-0.0053323675,9.5023374557,-12.8466835022,21.0916767120
        2.6649661064,       -0.0103784800,-0.0798031688,-0.0204690862,6.3590269089,-12.4499549866,19.4284687042
        2.6675391197,        0.0057348013,-0.0798031688,-0.0204690862,6.3590269089,-12.4499549866,19.4284687042
        2.6702809334,        0.0057348013,-0.0798031688,-0.0204690862,2.5290710926,-11.5496864319,17.6584491730
        2.6728589535,        0.0057348013,-0.0798031688,-0.0204690862,2.5290710926,-11.5496864319,17.6584491730
        2.6754269600,        0.0057348013,-0.0744320750,0.0054098200,2.5290710926,-10.2221717834,16.6055927277
        2.6781909466,        0.0047582388,-0.0744320750,0.0054098200,-0.6905333996,-10.2221717834,16.6055927277
        2.6808869839,        0.0047582388,-0.0744320750,0.0054098200,-0.6905333996,-9.1235389709,15.6442890167
        2.6834619045,        0.0047582388,-0.0744320750,0.0054098200,-1.6670958996,-9.1235389709,15.6442890167
        2.6860370636,        0.0096410513,-0.0793148875,0.0132223200,-1.6670958996,-9.1235389709,13.7369403839
        2.6886579990,        0.0096410513,-0.0793148875,0.0132223200,-2.1096007824,-8.0249061584,13.7369403839
        2.6912291050,        0.0096410513,-0.0793148875,0.0132223200,-2.1096007824,-8.0249061584,12.5925312042
        2.6938021183,        0.0096410513,-0.0793148875,0.0132223200,-3.5134093761,-6.9110140800,12.5925312042
        2.6963710785,        0.0130590200,-0.0710141063,0.0132223200,-3.5134093761,-6.9110140800,12.5925312042
        2.6990199089,        0.0130590200,-0.0710141063,0.0132223200,-6.1684389114,-7.2619662285,11.4481220245
        2.7017340660,        0.0130590200,-0.0710141063,0.0132223200,-6.1684389114,-7.2619662285,11.4481220245
        2.7044420242,        0.0130590200,-0.0710141063,0.0132223200,-8.2131166458,-8.0249061584,10.0137958527
        2.7071530819,        0.0067113638,-0.0568539500,0.0107809138,-8.2131166458,-8.0249061584,10.0137958527
        2.7099020481,        0.0067113638,-0.0568539500,0.0107809138,-7.9689760208,-8.7420692444,8.7320575714
        2.7126100063,        0.0067113638,-0.0568539500,0.0107809138,-7.9689760208,-8.7420692444,8.7320575714
        2.7153189182,        0.0067113638,-0.0568539500,0.0000387263,-6.9771547318,-9.0319862366,7.4503192902
        2.7180271149,        0.0042699575,-0.0636898875,0.0000387263,-6.9771547318,-9.0319862366,7.4503192902
        2.7207369804,        0.0042699575,-0.0636898875,0.0000387263,-6.3210268021,-8.9556922913,6.1838397980
        2.7234511375,        0.0042699575,-0.0636898875,0.0000387263,-6.3210268021,-8.9556922913,6.1838397980
        2.7261550426,       -0.0040308237,-0.0827328563,-0.0072854925,-6.6109437943,-8.6962928772,5.3751239777
        2.7289450169,       -0.0040308237,-0.0827328563,-0.0072854925,-6.6109437943,-8.6962928772,5.3751239777
        2.7316529751,       -0.0040308237,-0.0827328563,-0.0072854925,-7.0076723099,-8.4368934631,4.3527851105
        2.7345130444,       -0.0040308237,-0.0827328563,-0.0072854925,-7.0076723099,-8.4368934631,4.3527851105
        2.7380211353,       -0.0084253550,-0.0690609813,0.0010152888,-7.2823305130,-8.0554237366,3.2236347198
        2.7405989170,       -0.0084253550,-0.0690609813,0.0010152888,-7.2823305130,-8.0554237366,1.9418964386
        2.7431809902,       -0.0084253550,-0.0690609813,0.0010152888,-7.4501771927,-7.5671420097,1.9418964386
        2.7458689213,       -0.0084253550,-0.0812680125,-0.0058206487,-7.4501771927,-7.5671420097,1.5909442902
        2.7485160828,       -0.0069605112,-0.0812680125,-0.0058206487,-7.2823305130,-7.1551547050,1.5909442902
        2.7510900497,       -0.0069605112,-0.0812680125,-0.0058206487,-7.2823305130,-7.1551547050,0.8127460480
        2.7536599636,       -0.0069605112,-0.0812680125,-0.0058206487,-6.5956850052,-5.7513461113,0.8127460480
        2.7562320232,       -0.0069605112,-0.1081234813,0.0132223200,-6.5956850052,-5.7513461113,0.8127460480
        2.7588500977,       -0.0103784800,-0.1081234813,0.0132223200,-5.5123109818,-5.3241000175,0.7822284698
        2.7614140511,       -0.0103784800,-0.1081234813,0.0132223200,-5.5123109818,-5.3241000175,0.7822284698
        2.7639839649,       -0.0103784800,-0.1081234813,0.0132223200,-4.8409242630,-4.9884066582,0.9195575714
        2.7665500641,       -0.0084253550,-0.0783383250,0.0278707575,-4.8409242630,-4.9884066582,0.9195575714
        2.7691280842,       -0.0084253550,-0.0783383250,0.0278707575,-3.8491027355,-4.5611605644,0.9042987823
        2.7716989517,       -0.0084253550,-0.0783383250,0.0278707575,-3.8491027355,-4.5611605644,0.9042987823
        2.7742640972,       -0.0084253550,-0.0783383250,0.0278707575,-2.4147765636,-4.5001254082,0.5686054230
        2.7768371105,       -0.0035425425,-0.0710141063,0.0293356013,-2.4147765636,-4.5001254082,0.5686054230
        2.7794449329,       -0.0035425425,-0.0710141063,0.0293356013,-2.4147765636,-4.2865023613,-0.4079570770
        2.7820129395,       -0.0035425425,-0.0710141063,0.0293356013,-2.4147765636,-4.2865023613,-0.4079570770
        2.7845830917,       -0.0035425425,-0.0710141063,0.0293356013,-1.6365783215,-3.7677035332,-0.6978740692
        2.7871489525,       -0.0094019175,-0.0729672313,0.0425191969,-1.6365783215,-3.7677035332,-0.6978740692
        2.7899041176,       -0.0094019175,-0.0729672313,0.0425191969,-1.6365783215,-3.4320101738,-0.7589092255
        2.7924821377,       -0.0094019175,-0.0729672313,0.0425191969,-1.3008849621,-3.4320101738,-0.7589092255
        2.7950510979,       -0.0094019175,-0.0729672313,0.0425191969,-1.3008849621,0.4742398262,-1.4455547333
        2.7977089882,        0.0081762075,-0.0490414500,0.0391012281,-2.5368468761,-3.0810580254,-1.4455547333
        2.8004119396,        0.0081762075,-0.0490414500,0.0391012281,-2.5368468761,-3.0810580254,-2.1932353973
        2.8031151295,        0.0081762075,-0.0490414500,0.0391012281,-3.2540099621,-2.2570834160,-2.1932353973
        2.8058240414,        0.0081762075,-0.0490414500,0.0410543531,-3.2540099621,-2.2570834160,-2.7272930145
        2.8086459637,        0.0057348013,-0.0509945750,0.0410543531,-2.5215880871,-1.9824252129,-2.7272930145
        2.8113479614,        0.0057348013,-0.0509945750,0.0410543531,-2.5215880871,-1.9824252129,-3.5970439911
        2.8140571117,        0.0057348013,-0.0509945750,0.0410543531,-1.0872619152,-2.0739779472,-3.5970439911
        2.8167619705,        0.0057348013,-0.0529477000,0.0278707575,-1.0872619152,-2.0739779472,-4.0548076630
        2.8194189072,        0.0081762075,-0.0529477000,0.0278707575,0.4386169910,-1.8756136894,-4.0548076630
        2.8219900131,        0.0081762075,-0.0529477000,0.0278707575,0.4386169910,-1.8756136894,-4.5888652802
        2.8245620728,        0.0081762075,-0.0529477000,0.0278707575,1.5525085926,-1.9213900566,-4.5888652802
        2.8271319866,       -0.0015894175,-0.0661312938,0.0176168513,1.5525085926,-1.9213900566,-4.5888652802
        2.8298850060,       -0.0015894175,-0.0661312938,0.0176168513,2.5595886707,-2.1044955254,-5.2144756317
        2.8324630260,       -0.0015894175,-0.0661312938,0.0176168513,2.5595886707,-2.1044955254,-5.2144756317
        2.8350350857,       -0.0015894175,-0.0661312938,0.0176168513,2.4985535145,-1.6772494316,-4.9245586395
        2.8377521038,        0.0067113638,-0.0617367625,-0.0033792425,2.4985535145,-1.6772494316,-4.9245586395
        2.8404130936,        0.0067113638,-0.0617367625,-0.0033792425,2.1628601551,-1.7688021660,-4.8024883270
        2.8440871239,        0.0067113638,-0.0617367625,-0.0033792425,2.1628601551,-1.7688021660,-4.9398174286
        2.8466620445,        0.0067113638,-0.0617367625,0.0146871638,1.0947449207,-1.5856966972,-4.9398174286
        2.8492739201,        0.0023168325,-0.0675961375,0.0146871638,1.0947449207,-1.5856966972,-4.8024883270
        2.8518400192,        0.0023168325,-0.0675961375,0.0146871638,-0.1564757824,-0.8990511894,-4.8024883270
        2.8544111252,        0.0023168325,-0.0675961375,0.0146871638,-0.1564757824,-0.8990511894,-4.8024883270
        2.8569710255,        0.0023168325,-0.0568539500,0.0254293513,-0.1412169933,-0.9143099785,-4.5430889130
