time, acceleration x, acceleration y, acceleration z, gyro x gyro y, gyro z
        0.0000000000,        0.0029321313,0.0552668273,-0.1256655157,5.9736251831,7.2391796112,-13.5725879669
        0.0026881695,        0.0029321313,0.0552668273,-0.1256655157,5.2717208862,7.2391796112,-13.5725879669
        0.0053701401,       -0.1220678687,0.0508722961,-0.1080873981,5.2717208862,8.2157421112,-12.8249073029
        0.0081961155,       -0.0248999000,0.0508722961,-0.1080873981,2.1741867065,8.2157421112,-12.8249073029
        0.0108561516,       -0.0248999000,0.0508722961,-0.1080873981,2.1741867065,9.4059276581,-12.1687793732
        0.0136539936,       -0.0248999000,0.0508722961,-0.1080873981,-1.8999099731,9.4059276581,-12.1687793732
        0.0163409710,       -0.0380834937,0.0655207336,-0.0856264606,-1.8999099731,10.1536083221,-10.6734180450
        0.0190701485,       -0.0380834937,0.0655207336,-0.0856264606,-3.8835525513,10.1536083221,-10.6734180450
        0.0217449665,       -0.0380834937,0.0655207336,-0.0856264606,-3.8835525513,10.7181835175,-8.7508106232
        0.0244240761,       -0.0380834937,0.0655207336,-0.0856264606,-5.5315017700,10.7181835175,-8.7508106232
        0.0271010399,       -0.0185522437,0.0752863586,-0.0734194294,-5.5315017700,14.6244335175,-6.6145801544
        0.0296661854,       -0.0185522437,0.0752863586,-0.0734194294,-6.3402175903,12.2135448456,-6.6145801544
        0.0322680473,       -0.0185522437,0.0752863586,-0.0734194294,-6.3402175903,12.2135448456,-4.3715381622
        0.0348351002,       -0.0185522437,0.0752863586,-0.0734194294,-7.4235916138,12.8391551971,-4.3715381622
        0.0375220776,       -0.0336889625,0.0591730773,-0.0450991169,-7.4235916138,12.8391551971,-2.6320362091
        0.0401921272,       -0.0336889625,0.0591730773,-0.0450991169,-8.9342117310,12.5797557831,-2.6320362091
        0.0428631306,       -0.0336889625,0.0591730773,-0.0450991169,-8.9342117310,12.5797557831,1.2742137909
        0.0455341339,       -0.0336889625,0.0689387023,-0.0192202106,-9.1783523560,12.6102733612,-0.7857227325
        0.0482151508,       -0.0444311500,0.0689387023,-0.0192202106,-9.1783523560,12.6102733612,-0.7857227325
        0.0507860184,       -0.0444311500,0.0689387023,-0.0192202106,-8.5832595825,12.3356151581,1.3962841034
        0.0535221100,       -0.0444311500,0.0689387023,-0.0192202106,-8.5832595825,12.3356151581,1.3962841034
        0.0560960770,       -0.0429663062,0.0777277648,-0.0118959919,-7.4846267700,11.9846630096,3.2273387909
        0.0587840080,       -0.0429663062,0.0777277648,-0.0118959919,-7.4846267700,11.9846630096,3.2273387909
        0.0614840984,       -0.0429663062,0.0777277648,-0.0118959919,-5.6993484497,10.9775829315,4.8142528534
        0.0640661716,       -0.0429663062,0.0777277648,-0.0118959919,-5.6993484497,10.9775829315,4.8142528534
        0.0666379929,       -0.0400366187,0.0806574523,-0.0001772419,-3.9140701294,9.8179149628,5.8365917206
        0.0693030357,       -0.0400366187,0.0806574523,-0.0001772419,-3.9140701294,9.8179149628,5.8365917206
        0.0718781948,       -0.0400366187,0.0806574523,-0.0001772419,-1.4574050903,9.1465282440,6.7368602753
        0.0744481087,       -0.0400366187,0.0806574523,-0.0001772419,-1.4574050903,9.1465282440,6.7368602753
        0.0771131516,       -0.0468725562,0.0713801086,0.0120297894,1.5027999878,8.1699657440,7.7134227753
        0.0796930790,       -0.0468725562,0.0713801086,0.0120297894,1.5027999878,8.1699657440,7.7134227753
        0.0823571682,       -0.0468725562,0.0713801086,0.0120297894,4.0815353394,6.9645214081,8.2322216034
        0.0849320889,       -0.0468725562,0.0713801086,0.0120297894,4.0815353394,6.9645214081,8.2322216034
        0.0883300304,       -0.0610327125,0.0655207336,0.0149594769,6.1567306519,6.1405467987,8.2169628143
        0.0910470486,       -0.0610327125,0.0655207336,0.0149594769,6.1567306519,6.1405467987,8.2169628143
        0.0937561989,       -0.0610327125,0.0655207336,0.0149594769,9.0406417847,4.7977733612,8.7815380096
        0.0964641571,       -0.0463842750,0.0557551086,0.0037290081,9.0406417847,4.7977733612,8.7815380096
        0.0991821289,       -0.0463842750,0.0557551086,0.0037290081,11.3294601440,3.1650829315,8.7052440643
        0.1018881798,       -0.0463842750,0.0557551086,0.0037290081,11.3294601440,3.1650829315,8.7052440643
        0.1045951843,       -0.0463842750,0.0557551086,0.0037290081,13.2062911987,1.6849803925,8.3390331268
        0.1073181629,       -0.0082983375,0.0362238586,-0.0309389606,13.2062911987,1.6849803925,8.3390331268
        0.1100289822,       -0.0082983375,0.0362238586,-0.0309389606,15.3882980347,-0.1002979279,7.6066112518
        0.1127321720,       -0.0082983375,0.0362238586,-0.0309389606,15.3882980347,-0.1002979279,7.6066112518
        0.1154391766,       -0.0082983375,0.0362238586,-0.0309389606,18.2874679565,-1.2294483185,4.5090770721
        0.1182241440,        0.0376001000,-0.0726628602,-0.0367983356,18.2874679565,-1.2294483185,4.5090770721
        0.1207990646,        0.0376001000,-0.0726628602,-0.0367983356,20.5610275269,-2.5722217560,0.1450634003
        0.1233761311,        0.0376001000,-0.0726628602,-0.0367983356,20.5610275269,-2.5722217560,0.1450634003
        0.1259551048,        0.0376001000,-0.0726628602,-0.0299623981,20.0727462769,-4.7084522247,-4.8140430450
        0.1285791397,        0.0659204125,-0.2235417664,-0.0299623981,20.0727462769,-4.7084522247,-4.8140430450
        0.1311550140,        0.0659204125,-0.2235417664,-0.0299623981,17.6923751831,-7.2108936310,-9.8189258575
        0.1337301731,        0.0659204125,-0.2235417664,-0.0299623981,17.6923751831,-7.2108936310,-9.8189258575
        0.1363160610,        0.0659204125,-0.2396550477,-0.0397280231,13.7861251831,-9.0572071075,-13.3894824982
        0.1389219761,        0.0839868188,-0.2396550477,-0.0397280231,13.4962081909,-9.0572071075,-13.3894824982
        0.1415061951,        0.0839868188,-0.2396550477,-0.0397280231,13.4962081909,-10.5373096466,-16.2123584747
        0.1440789700,        0.0839868188,-0.2396550477,-0.0397280231,7.2858810425,-10.5373096466,-16.2123584747
        0.1466519833,        0.0839868188,-0.2147527039,-0.0162905231,7.2858810425,-14.4435596466,-19.3251514435
        0.1494641304,        0.0864282250,-0.2147527039,-0.0162905231,0.4652023315,-12.3073291779,-19.3251514435
        0.1521520615,        0.0864282250,-0.2147527039,-0.0162905231,0.4652023315,-12.3073291779,-22.6210498810
        0.1548371315,        0.0864282250,-0.2147527039,-0.0162905231,-5.2110671997,-14.0315723419,-22.6210498810
        0.1575679779,        0.0708032250,-0.2460027039,-0.0109194294,-5.2110671997,-17.9378223419,-25.6270313263
        0.1602721214,        0.0708032250,-0.2460027039,-0.0109194294,-10.1243972778,-15.7405567169,-25.6270313263
        0.1629760265,        0.0708032250,-0.2460027039,-0.0109194294,-10.1243972778,-15.7405567169,-28.5872364044
        0.1655859947,        0.0708032250,-0.2460027039,-0.0109194294,-14.0459060669,-16.7934131622,-28.5872364044
        0.1684081554,        0.0532251000,-0.2289128602,-0.0211733356,-14.0459060669,-16.7934131622,-31.1201953888
        0.1710791588,        0.0532251000,-0.2289128602,-0.0211733356,-16.7467117310,-17.4953174591,-31.1201953888
        0.1740641594,        0.0532251000,-0.2289128602,-0.0211733356,-16.7467117310,-17.4953174591,-34.0956573486
        0.1766381264,        0.0532251000,-0.1986394227,-0.0455873981,-17.7080154419,-18.3955860138,-34.0956573486
        0.1792969704,        0.0605493188,-0.1986394227,-0.0455873981,-17.7080154419,-18.3955860138,-37.3305206299
        0.1819860935,        0.0605493188,-0.1986394227,-0.0455873981,-16.5941238403,-19.4484424591,-37.3305206299
        0.1845591068,        0.0605493188,-0.1986394227,-0.0455873981,-16.5941238403,-19.4484424591,-40.3365020752
        0.1871900558,        0.0605493188,-0.1854558289,-0.0656069294,-14.1527175903,-19.9519824982,-40.3365020752
        0.1897580624,        0.0693383813,-0.1854558289,-0.0656069294,-14.1527175903,-19.9519824982,-40.3365020752
        0.1923251152,        0.0693383813,-0.1854558289,-0.0656069294,-10.8873367310,-19.8909473419,-44.1054229736
        0.1948940754,        0.0693383813,-0.1854558289,-0.0656069294,-10.8873367310,-19.8909473419,-44.1054229736
        0.1974840164,        0.0600610375,-0.1825261414,-0.0802553669,-7.5761795044,-19.2348194122,-48.1184844971
        0.2000551224,        0.0600610375,-0.1825261414,-0.0802553669,-7.5761795044,-19.2348194122,-48.1184844971
        0.2026281357,        0.0600610375,-0.1825261414,-0.0802553669,-5.1347732544,-19.4179248810,-51.9331817627
        0.2052011490,        0.0600610375,-0.1825261414,-0.0802553669,-5.1347732544,-19.4179248810,-51.9331817627
        0.2078311443,        0.0551782250,-0.1673894227,-0.1002748981,-2.9527664185,-19.8756885529,-55.8241729736
        0.2104029655,        0.0551782250,-0.1673894227,-0.1002748981,-2.9527664185,-19.8756885529,-55.8241729736
        0.2129771709,        0.0551782250,-0.1673894227,-0.1002748981,0.0226974487,-19.6468067169,-59.6083526611
        0.2155480385,        0.0551782250,-0.1673894227,-0.1002748981,0.0226974487,-19.6468067169,-59.6083526611
        0.2181711197,        0.0537133813,-0.1820378602,-0.1071108356,2.1894454956,-19.2348194122,-62.7058868408
        0.2207441330,        0.0537133813,-0.1820378602,-0.1071108356,2.1894454956,-19.2348194122,-62.7058868408
        0.2233161926,        0.0537133813,-0.1820378602,-0.1071108356,6.0956954956,-19.0669727325,-66.3374786377
        0.2258861065,        0.0537133813,-0.1820378602,-0.1071108356,3.5017013550,-19.0669727325,-66.3374786377
        0.2285990715,        0.0468774438,-0.1913152039,-0.1163881794,3.5017013550,-18.9601612091,-70.0606231689
        0.2311670780,        0.0468774438,-0.1913152039,-0.1163881794,4.3256759644,-18.9601612091,-70.0606231689
        0.2337369919,        0.0468774438,-0.1913152039,-0.1163881794,4.3256759644,-18.9601612091,-73.6769561768
        0.2363080978,        0.0468774438,-0.1913152039,-0.1163881794,5.3174972534,-18.9449024200,-73.6769561768
        0.2389881611,        0.0429711938,-0.1922917664,-0.1295717657,5.3174972534,-18.9449024200,-77.0949249268
        0.2416961193,        0.0429711938,-0.1922917664,-0.1295717657,5.7752609253,-19.3111133575,-77.0949249268
        0.2445139885,        0.0429711938,-0.1922917664,-0.1295717657,5.7752609253,-19.3111133575,-80.5281524658
        0.2472691536,        0.0429711938,-0.1922917664,-0.1408022344,5.9736251831,-19.2348194122,-80.5281524658
        0.2499799728,        0.0395532250,-0.1957097352,-0.1408022344,5.9736251831,-19.2348194122,-83.9156036377
        0.2526881695,        0.0395532250,-0.1957097352,-0.1408022344,6.4466476440,-18.8991260529,-83.9156036377
        0.2553961277,        0.0395532250,-0.1957097352,-0.1408022344,6.4466476440,-18.8991260529,-87.0436553955
        0.2581191063,        0.0239282250,-0.1849675477,-0.1417787969,5.4700851440,-18.6549854279,-87.0436553955
        0.2608320713,        0.0239282250,-0.1849675477,-0.1417787969,5.4700851440,-18.6549854279,-89.9123077393
        0.2635431290,        0.0239282250,-0.1849675477,-0.1417787969,4.6918869019,-18.9143848419,-89.9123077393
        0.2663681507,        0.0239282250,-0.1849675477,-0.1417787969,4.6918869019,-18.9143848419,-92.8572540283
        0.2691860199,        0.0048852563,-0.1615300477,-0.1505678594,4.2646408081,-18.5939502716,-92.8572540283
        0.2718591690,        0.0048852563,-0.1615300477,-0.1505678594,4.2646408081,-18.3955860138,-95.0850372314
        0.2747430801,        0.0048852563,-0.1615300477,-0.1505678594,3.6542892456,-18.3955860138,-95.0850372314
        0.2774381638,        0.0048852563,-0.1615300477,-0.1476381719,3.6542892456,-18.3955860138,-97.7705841064
        0.2800180912,       -0.0151342750,-0.1542058289,-0.1476381719,2.8913497925,-18.3955860138,-97.7705841064
        0.2825970650,       -0.0151342750,-0.1542058289,-0.1476381719,2.8913497925,-18.3955860138,-100.5019073486
        0.2851719856,       -0.0151342750,-0.1542058289,-0.1476381719,1.7927169800,-18.1972217560,-100.5019073486
        0.2877511978,       -0.0151342750,-0.1649480164,-0.1447084844,1.7927169800,-18.1972217560,-100.5019073486
        0.2903320789,       -0.0263647437,-0.1649480164,-0.1447084844,-0.2824783325,-18.1361865997,-103.1111602783
        0.2929010391,       -0.0263647437,-0.1649480164,-0.1447084844,-0.2824783325,-18.1361865997,-103.1111602783
        0.2954771519,       -0.0263647437,-0.1649480164,-0.1447084844,-1.2590408325,-17.6479053497,-105.0948028564
        0.2980580330,       -0.0263647437,-0.1566472352,-0.1530092657,-1.2590408325,-17.6479053497,-105.0948028564
        0.3006291389,       -0.0444311500,-0.1566472352,-0.1530092657,-2.5255203247,-17.4037647247,-106.8037872314
        0.3032109737,       -0.0444311500,-0.1566472352,-0.1530092657,-2.5255203247,-17.4037647247,-106.8037872314
        0.3057820797,       -0.0444311500,-0.1566472352,-0.1530092657,-5.1958084106,-16.7628955841,-108.6806182861
        0.3085319996,       -0.0600561500,-0.1468816102,-0.1520327032,-5.1958084106,-16.7628955841,-108.6806182861
        0.3111081123,       -0.0600561500,-0.1468816102,-0.1520327032,-7.3625564575,-15.9999561310,-110.0691680908
        0.3136820793,       -0.0600561500,-0.1468816102,-0.1520327032,-7.3625564575,-15.9999561310,-110.0691680908
        0.3162570000,       -0.0600561500,-0.1468816102,-0.1520327032,-9.4530105591,-15.4506397247,-111.2288360596
        0.3189411163,       -0.0771459937,-0.1268620789,-0.1583803594,-9.4530105591,-15.4506397247,-111.2288360596
        0.3215081692,       -0.0771459937,-0.1268620789,-0.1583803594,-11.5587234497,-15.7863330841,-112.8767852783
        0.3240849972,       -0.0771459937,-0.1268620789,-0.1583803594,-11.5587234497,-15.7863330841,-112.8767852783
        0.3266520500,       -0.0771459937,-0.1268620789,-0.1583803594,-15.4649734497,-15.1912403107,-114.1432647705
        0.3293650150,       -0.0747045875,-0.1239323914,-0.1505678594,-14.1832351685,-15.1912403107,-114.1432647705
        0.3319439888,       -0.0747045875,-0.1239323914,-0.1505678594,-14.1832351685,-15.1912403107,-114.5094757080
        0.3345119953,       -0.0747045875,-0.1239323914,-0.1505678594,-17.4333572388,-14.2146778107,-114.5094757080
        0.3370921612,       -0.0747045875,-0.1239323914,-0.1505678594,-17.4333572388,-14.2146778107,-114.9214630127
        0.3398041725,       -0.0805639625,-0.1073308289,-0.1661928594,-21.3701248169,-13.3754444122,-114.9214630127
        0.3425180912,       -0.0805639625,-0.1073308289,-0.1661928594,-21.3701248169,-13.3754444122,-115.4860382080
        0.3452291489,       -0.0805639625,-0.1073308289,-0.1661928594,-24.1930007935,-12.1852588654,-115.4860382080
        0.3479499817,       -0.0805639625,-0.1073308289,-0.1539858282,-24.1930007935,-12.1852588654,-116.2337188721
        0.3506569862,       -0.0703100562,-0.0765691102,-0.1539858282,-25.8867263794,-11.4833545685,-116.2337188721
        0.3533701897,       -0.0703100562,-0.0765691102,-0.1539858282,-25.8867263794,-11.4833545685,-116.8593292236
        0.3560841084,       -0.0703100562,-0.0765691102,-0.1539858282,-26.8480300903,-10.4762744904,-116.8593292236
        0.3588011265,       -0.0703100562,-0.1000066102,-0.1534975469,-26.8480300903,-10.4762744904,-117.3476104736
        0.3615081310,       -0.0678686500,-0.1000066102,-0.1534975469,-28.6180496216,-9.9422168732,-117.3476104736
        0.3642141819,       -0.0678686500,-0.1000066102,-0.1534975469,-28.6180496216,-9.9422168732,-118.2021026611
        0.3669819832,       -0.0678686500,-0.1000066102,-0.1534975469,-31.5172195435,-8.9656543732,-118.2021026611
        0.3698201180,       -0.0600561500,-0.1234441102,-0.1617983282,-31.5172195435,-5.0594043732,-118.8582305908
        0.3726310730,       -0.0600561500,-0.1234441102,-0.1617983282,-34.2180252075,-7.8517627716,-118.8582305908
        0.3753449917,       -0.0600561500,-0.1234441102,-0.1617983282,-34.2180252075,-7.8517627716,-119.3312530518
        0.3780701160,       -0.0600561500,-0.1234441102,-0.1603334844,-36.3542556763,-6.3716602325,-119.3312530518
        0.3807780743,       -0.0639624000,-0.1258855164,-0.1603334844,-36.3542556763,-6.3716602325,-120.3993682861
        0.3835639954,       -0.0639624000,-0.1258855164,-0.1603334844,-37.9716873169,-5.4561328888,-120.3993682861
        0.3862681389,       -0.0639624000,-0.1258855164,-0.1603334844,-40.1079177856,-4.7847461700,-121.6048126221
        0.3897609711,       -0.0678686500,-0.1136784852,-0.1574037969,-40.1079177856,-4.7847461700,-121.6048126221
        0.3923339844,       -0.0678686500,-0.1136784852,-0.1574037969,-40.9471511841,-3.6708545685,-122.4440460205
        0.3949100971,       -0.0678686500,-0.1136784852,-0.1574037969,-40.9471511841,-3.6708545685,-122.4440460205
        0.3975200653,       -0.0678686500,-0.1136784852,-0.1574037969,-40.9471511841,-2.6485157013,-123.3290557861
        0.4000880718,       -0.0698217750,-0.1039128602,-0.1544741094,-41.5422439575,-2.6485157013,-123.3290557861
        0.4026670456,       -0.0698217750,-0.1039128602,-0.1544741094,-41.5422439575,-2.6485157013,-124.0157012939
        0.4052410126,       -0.0698217750,-0.1039128602,-0.1544741094,-42.1525955200,-1.9160938263,-124.0157012939
        0.4078609943,       -0.0698217750,-0.1039128602,-0.1544741094,-42.1525955200,-1.9160938263,-125.0532989502
        0.4104280472,       -0.0849584937,-0.1004948914,-0.1349428594,-43.2359695435,-0.5275440216,-125.0532989502
        0.4130020142,       -0.0849584937,-0.1004948914,-0.1349428594,-43.2359695435,-0.5275440216,-125.0532989502
        0.4155759811,       -0.0849584937,-0.1004948914,-0.1349428594,-45.1585769653,0.6931591034,-125.5415802002
        0.4181971550,       -0.0849584937,-0.1004948914,-0.1349428594,-45.1585769653,0.6931591034,-125.5415802002
        0.4207639694,       -0.0888647437,-0.0975652039,-0.1315248907,-47.3405838013,1.9748973846,-126.0756378174
        0.4233419895,       -0.0888647437,-0.0975652039,-0.1315248907,-47.3405838013,1.9748973846,-126.0756378174
        0.4259111881,       -0.0888647437,-0.0975652039,-0.1315248907,-49.0343093872,3.4549999237,-126.2740020752
        0.4285001755,       -0.0888647437,-0.0975652039,-0.1315248907,-49.0343093872,3.4549999237,-126.2740020752
        0.4310660362,       -0.0844702125,-0.0736394227,-0.1237123981,-51.5062332153,4.9961376190,-125.5110626221
        0.4336380959,       -0.0844702125,-0.0736394227,-0.1237123981,-51.5062332153,4.9961376190,-125.5110626221
        0.4362139702,       -0.0844702125,-0.0736394227,-0.1237123981,-54.2222976685,6.7814159393,-124.4887237549
        0.4390530586,       -0.0844702125,-0.0736394227,-0.1154116169,-54.2222976685,6.7814159393,-124.4887237549
        0.4416320324,       -0.0766577125,-0.0477605164,-0.1154116169,-55.2141189575,7.3917675018,-123.5884552002
        0.4442169666,       -0.0766577125,-0.0477605164,-0.1154116169,-55.2141189575,7.3917675018,-123.5884552002
        0.4467940331,       -0.0766577125,-0.0477605164,-0.1154116169,-55.0920486450,8.2920360565,-122.7949981689
        0.4496181011,       -0.0766577125,-0.0419011414,-0.1056459919,-55.0920486450,8.2920360565,-122.7949981689
        0.4523191452,       -0.0742163062,-0.0419011414,-0.1056459919,-54.6648025513,9.3448925018,-122.4287872314
        0.4550261497,       -0.0742163062,-0.0419011414,-0.1056459919,-54.6648025513,9.3448925018,-122.4287872314
        0.4577519894,       -0.0742163062,-0.0419011414,-0.1056459919,-54.6342849731,10.0925731659,-122.2761993408
        0.4604611397,       -0.0717749000,-0.0467839539,-0.0968569294,-54.6342849731,10.0925731659,-122.2761993408
        0.4631690979,       -0.0717749000,-0.0467839539,-0.0968569294,-53.9781570435,10.9928417206,-121.5285186768
        0.4658770561,       -0.0717749000,-0.0467839539,-0.0968569294,-53.9781570435,10.9928417206,-121.5285186768
        0.4685120583,       -0.0717749000,-0.0467839539,-0.0968569294,-53.3983230591,11.2522411346,-120.6587677002
        0.4710891247,       -0.0664038062,-0.0619206727,-0.0924623981,-53.3983230591,11.2522411346,-120.6587677002
        0.4736661911,       -0.0664038062,-0.0619206727,-0.0924623981,-49.4920730591,12.1830272675,-119.9263458252
        0.4762411118,       -0.0664038062,-0.0619206727,-0.0924623981,-52.3302078247,12.1830272675,-119.9263458252
        0.4789350033,       -0.0664038062,-0.0619206727,-0.0924623981,-52.3302078247,13.0222606659,-119.0108184814
        0.4816381931,       -0.0624975562,-0.0599675477,-0.0900209919,-51.2010574341,13.0222606659,-119.0108184814
        0.4843389988,       -0.0624975562,-0.0599675477,-0.0900209919,-51.2010574341,13.6173534393,-118.0952911377
        0.4870560169,       -0.0624975562,-0.0599675477,-0.0900209919,-50.0108718872,13.6173534393,-118.0952911377
        0.4897630215,       -0.0624975562,-0.0604558289,-0.0934389606,-50.0108718872,14.2124462128,-117.1187286377
        0.4924740791,       -0.0639624000,-0.0604558289,-0.0934389606,-48.3324050903,14.2124462128,-117.1187286377
        0.4951801300,       -0.0639624000,-0.0604558289,-0.0934389606,-48.3324050903,14.2124462128,-116.3100128174
        0.4979000092,       -0.0639624000,-0.0604558289,-0.0934389606,-46.1961746216,15.2195262909,-116.3100128174
        0.5006101131,       -0.0659155250,-0.0628972352,-0.0700014606,-46.1961746216,19.1257762909,-115.1350860596
        0.5034530163,       -0.0659155250,-0.0628972352,-0.0700014606,-44.2583084106,15.5704784393,-115.1350860596
        0.5061721802,       -0.0659155250,-0.0628972352,-0.0700014606,-41.6643142700,15.8756542206,-113.6092071533
        0.5092940331,       -0.0659155250,-0.0628972352,-0.0700014606,-41.6643142700,15.8756542206,-113.6092071533
        0.5120081902,       -0.0605444312,-0.0482487977,-0.0704897419,-38.9329910278,16.2876415253,-112.1291046143
        0.5147140026,       -0.0605444312,-0.0482487977,-0.0704897419,-38.9329910278,16.2876415253,-112.1291046143
        0.5174510479,       -0.0605444312,-0.0482487977,-0.0704897419,-37.2697830200,16.4097118378,-110.3133087158
        0.5200271606,       -0.0605444312,-0.0492253602,-0.0573061481,-37.2697830200,16.4097118378,-110.3133087158
        0.5226039886,       -0.0502905250,-0.0492253602,-0.0573061481,-37.2697830200,16.4097118378,-108.9247589111
        0.5251760483,       -0.0502905250,-0.0492253602,-0.0573061481,-36.3084793091,16.4097118378,-108.9247589111
        0.5277969837,       -0.0502905250,-0.0492253602,-0.0573061481,-36.3084793091,16.4097118378,-106.6054229736
        0.5305051804,       -0.0400366187,-0.0282292664,-0.0519350544,-35.6828689575,16.9742870331,-106.6054229736
        0.5332071781,       -0.0400366187,-0.0282292664,-0.0519350544,-35.6828689575,16.9742870331,-103.7367706299
        0.5359210968,       -0.0400366187,-0.0282292664,-0.0519350544,-33.5618972778,16.9895458221,-103.7367706299
        0.5385921001,       -0.0400366187,-0.0282292664,-0.0519350544,-33.5618972778,16.9895458221,-100.5476837158
        0.5411679745,       -0.0297827125,-0.0062566102,-0.0494936481,-31.8529129028,16.8979930878,-100.5476837158
        0.5437490940,       -0.0297827125,-0.0062566102,-0.0494936481,-31.8529129028,16.8979930878,-96.6414337158
        0.5463230610,       -0.0297827125,-0.0062566102,-0.0494936481,-30.2507400513,17.3404979706,-97.8011016846
        0.5489079952,       -0.0297827125,-0.0062566102,-0.0494936481,-30.2507400513,17.3404979706,-97.8011016846
        0.5514810085,       -0.0126928687,-0.0028386414,-0.0494936481,-29.0147781372,17.3252391815,-94.5204620361
        0.5540549755,       -0.0126928687,-0.0028386414,-0.0494936481,-29.0147781372,17.3252391815,-94.5204620361
        0.5566320419,       -0.0126928687,-0.0028386414,-0.0494936481,-28.3128738403,17.0505809784,-91.5144805908
        0.5592939854,       -0.0126928687,-0.0028386414,-0.0494936481,-28.3128738403,17.0505809784,-91.5144805908
        0.5618660450,        0.0043969750,-0.0165105164,-0.0392397419,-27.1226882935,16.6843700409,-88.2948760986
        0.5644421577,        0.0043969750,-0.0165105164,-0.0392397419,-27.1226882935,16.6843700409,-88.2948760986
        0.5672969818,        0.0043969750,-0.0165105164,-0.0392397419,-25.8104324341,16.7606639862,-85.1515655518
        0.5698800087,        0.0043969750,-0.0165105164,0.0857602581,-25.8104324341,16.7606639862,-85.1515655518
        0.5724539757,        0.0043969750,-0.0086980164,-0.0182436481,-24.0556716919,15.9672069550,-82.0387725830
        0.5750269890,        0.0043969750,-0.0086980164,-0.0182436481,-24.0556716919,15.9672069550,-82.0387725830
        0.5776820183,        0.0043969750,-0.0086980164,-0.0182436481,-22.1483230591,15.6162548065,-79.2311553955
        0.5803880692,        0.0043969750,-0.0086980164,-0.0133608356,-22.1483230591,15.6162548065,-79.2311553955
        0.5830950737,       -0.0068334937,-0.0174870789,-0.0133608356,-20.3935623169,14.6854686737,-76.4540557861
        0.5858051777,       -0.0068334937,-0.0174870789,-0.0133608356,-20.3935623169,14.6854686737,-76.4540557861
        0.5885260105,       -0.0068334937,-0.0174870789,-0.0133608356,-18.8371658325,13.5258007050,-73.2039337158
        0.5912292004,        0.0014672875,-0.0243230164,-0.0255678669,-18.8371658325,13.5258007050,-73.2039337158
        0.5939321518,        0.0014672875,-0.0243230164,-0.0255678669,-17.7537918091,12.8086376190,-69.6944122314
        0.5966370106,        0.0014672875,-0.0243230164,-0.0255678669,-17.7537918091,12.8086376190,-69.6944122314
        0.5992500782,        0.0014672875,-0.0243230164,-0.0255678669,-16.3499832153,12.3203563690,-66.4595489502
        0.6018230915,        0.0239282250,-0.0360417664,-0.0221498981,-16.3499832153,12.3203563690,-66.4595489502
        0.6043970585,        0.0239282250,-0.0360417664,-0.0221498981,-16.3499832153,11.6642284393,-63.1331329346
        0.6070101261,        0.0239282250,-0.0360417664,-0.0221498981,-15.2360916138,11.6642284393,-63.1331329346
        0.6097090244,        0.0239282250,-0.0360417664,-0.0221498981,-15.2360916138,10.7487010956,-60.0355987549
        0.6124210358,        0.0322290063,-0.0336003602,-0.0138491169,-14.5952224731,10.7487010956,-60.0355987549
        0.6151189804,        0.0322290063,-0.0336003602,-0.0138491169,-14.5952224731,10.3214550018,-56.3277130127
        0.6178140640,        0.0322290063,-0.0336003602,-0.0138491169,-13.6034011841,10.3214550018,-56.3277130127
        0.6203861237,        0.0322290063,-0.0336003602,-0.0138491169,-13.6034011841,10.3214550018,-52.9250030518
        0.6230030060,        0.0361352563,-0.0252995789,-0.0167788044,-12.2453689575,9.8942089081,-52.9250030518
        0.6257200241,        0.0361352563,-0.0252995789,-0.0167788044,-12.2453689575,9.9094676971,-48.7288360596
        0.6287021637,        0.0361352563,-0.0252995789,-0.0167788044,-11.0094070435,9.9094676971,-48.7288360596
        0.6315171719,        0.0571313500,0.0054621398,-0.0211733356,-7.1031570435,9.8636913300,-44.0291290283
        0.6342279911,        0.0571313500,0.0054621398,-0.0211733356,-9.3004226685,9.8636913300,-44.0291290283
        0.6369731426,        0.0571313500,0.0054621398,-0.0211733356,-9.3004226685,9.5890331268,-39.4820098877
        0.6396851540,        0.0571313500,0.0054621398,-0.0211733356,-7.9271316528,9.5890331268,-39.4820098877
        0.6423871517,        0.0566430688,0.0137629211,-0.0226381794,-7.9271316528,9.6042919159,-36.0182647705
        0.6450860500,        0.0566430688,0.0137629211,-0.0226381794,-6.5843582153,9.6042919159,-36.0182647705
        0.6477911472,        0.0566430688,0.0137629211,-0.0226381794,-2.6781082153,8.8260936737,-31.8068408966
        0.6504931450,        0.0566430688,0.0137629211,-0.0226381794,-5.4094314575,8.8260936737,-31.8068408966
        0.6531860828,        0.0585961938,0.0132746398,-0.0123842731,-5.4094314575,7.9868602753,-27.8853321075
        0.6558890343,        0.0585961938,0.0132746398,-0.0123842731,-4.2039871216,7.9868602753,-27.8853321075
        0.6585111618,        0.0585961938,0.0132746398,-0.0123842731,-4.2039871216,4.0806102753,-24.9556446075
        0.6610820293,        0.0585961938,0.0132746398,-0.0045717731,-2.5102615356,7.4680614471,-24.9556446075
        0.6636540890,        0.0566430688,0.0132746398,-0.0045717731,-2.5102615356,7.4680614471,-22.4379444122
        0.6662180424,        0.0566430688,0.0132746398,-0.0045717731,0.0379562378,7.0713329315,-22.4379444122
        0.6688179970,        0.0566430688,0.0132746398,-0.0045717731,0.0379562378,7.0713329315,-18.5316944122
        0.6713831425,        0.0566430688,0.0010676086,-0.0011538044,2.2047042847,6.3999462128,-19.6913623810
        0.6739490032,        0.0429711938,0.0010676086,-0.0011538044,2.2047042847,6.3999462128,-19.6913623810
        0.6765191555,        0.0429711938,0.0010676086,-0.0011538044,3.3643722534,6.2168407440,-16.9905567169
        0.6791319847,        0.0429711938,0.0010676086,-0.0011538044,3.3643722534,6.2168407440,-16.9905567169
        0.6817011833,        0.0429711938,-0.0194402039,0.0007993206,4.2798995972,6.4152050018,-14.5491504669
        0.6842701435,        0.0463891625,-0.0194402039,0.0007993206,4.2798995972,6.4152050018,-14.5491504669
        0.6868371964,        0.0463891625,-0.0194402039,0.0007993206,4.6461105347,6.6898632050,-11.8941211700
        0.6896321774,        0.0463891625,-0.0194402039,0.0007993206,4.6461105347,6.6898632050,-11.8941211700
        0.6923379898,        0.0478540063,-0.0267644227,-0.0011538044,5.2869796753,6.7661571503,-9.1475391388
        0.6951470375,        0.0478540063,-0.0267644227,-0.0011538044,5.2869796753,6.7661571503,-9.1475391388
        0.6978671551,        0.0478540063,-0.0267644227,-0.0011538044,5.3937911987,6.7966747284,-5.6227588654
        0.7005670071,        0.0478540063,-0.0267644227,-0.0011538044,5.3937911987,6.7966747284,-5.6227588654
        0.7032730579,        0.0576196313,-0.0340886414,0.0032407269,4.9665451050,6.7051219940,-2.6167774200
        0.7059791088,        0.0576196313,-0.0340886414,0.0032407269,4.9665451050,6.7051219940,-2.6167774200
        0.7086911201,        0.0576196313,-0.0340886414,0.0032407269,3.8831710815,6.3846874237,0.5417919159
        0.7113900185,        0.0576196313,-0.0340886414,0.0247251019,3.8831710815,6.3846874237,0.5417919159
        0.7140879631,        0.0532251000,-0.0545964539,0.0247251019,2.3878097534,5.6217479706,4.3259716034
        0.7167870998,        0.0532251000,-0.0545964539,0.0247251019,2.3878097534,5.6217479706,4.3259716034
        0.7193830013,        0.0532251000,-0.0545964539,0.0247251019,1.3196945190,5.2555370331,4.7837352753
        0.7219440937,        0.0532251000,-0.0550847352,-0.0260561481,1.3196945190,5.2555370331,4.7837352753
        0.7245180607,       -0.0024389625,-0.0550847352,-0.0260561481,-2.8612136841,5.9116649628,8.8730907440
        0.7270960808,       -0.0024389625,-0.0550847352,-0.0260561481,-2.8612136841,5.9116649628,8.8730907440
        0.7297999859,       -0.0024389625,-0.0550847352,-0.0260561481,-7.9423904419,5.6827831268,15.2817821503
        0.7325050831,        0.0478540063,0.0044855773,-0.0407045856,-7.9423904419,5.6827831268,15.2817821503
        0.7352130413,        0.0478540063,0.0044855773,-0.0407045856,-12.3369216919,4.8893260956,19.0659618378
        0.7379260063,        0.0478540063,0.0044855773,-0.0407045856,-12.3369216919,4.8893260956,19.0659618378
        0.7406330109,        0.0478540063,0.0044855773,-0.0407045856,-19.7221755981,4.1874217987,20.4545116425
        0.7434291840,        0.0131860375,-0.1136784852,0.0359555706,-19.7221755981,4.1874217987,20.4545116425
        0.7461361885,        0.0131860375,-0.1136784852,0.0359555706,-23.4300613403,4.4468212128,20.3171825409
        0.7492749691,        0.0131860375,-0.1136784852,0.0359555706,-23.4300613403,4.4468212128,20.3171825409
        0.7519810200,        0.0131860375,-0.3636784852,0.0476743206,-26.1613845825,4.7825145721,20.8664989471
        0.7546911240,       -0.0922827125,-0.3993230164,0.0476743206,-26.1613845825,4.7825145721,20.8664989471
        0.7573881149,       -0.0922827125,-0.3993230164,0.0476743206,-29.9913406372,4.3400096893,21.5836620331
        0.7600810528,       -0.0922827125,-0.3993230164,0.0476743206,-29.9913406372,4.3400096893,21.5836620331
        0.7626531124,       -0.1479467750,-0.5531315804,-0.0016420856,-34.1112136841,3.6838817596,24.1776561737
        0.7652270794,       -0.1479467750,-0.5531315804,-0.0016420856,-34.1112136841,3.6838817596,24.1776561737
        0.7679080963,       -0.1479467750,-0.5531315804,-0.0016420856,-37.0561599731,2.6157665253,27.2294139862
        0.7706160545,       -0.1479467750,-0.5531315804,-0.0016420856,-37.0561599731,2.6157665253,27.2294139862
        0.7733190060,       -0.1665014625,-0.4305730164,-0.0861147419,-37.4834060669,2.8446483612,31.1051464081
        0.7760250568,       -0.1665014625,-0.4305730164,-0.0861147419,-37.4834060669,2.8446483612,31.1051464081
        0.7786600590,       -0.1665014625,-0.4305730164,-0.0861147419,-38.0327224731,3.6686229706,35.9574432373
        0.7812361717,       -0.1665014625,-0.4305730164,-0.0861147419,-38.0327224731,3.6686229706,35.9574432373
        0.7838051319,       -0.1489233375,-0.2342839539,-0.1193178669,-38.0327224731,3.6075878143,40.6418914795
        0.7863810062,       -0.1489233375,-0.2342839539,-0.1193178669,-39.8180007935,3.6075878143,40.6418914795
        0.7890141010,       -0.1489233375,-0.2342839539,-0.1193178669,-39.8180007935,3.6075878143,44.8227996826
        0.7915840149,       -0.1489233375,-0.2342839539,-0.1193178669,-42.6103591919,3.3939647675,44.8227996826
        0.7941529751,       -0.1313452125,-0.1136784852,-0.0992983356,-42.6103591919,3.3939647675,48.7290496826
        0.7967331409,       -0.1313452125,-0.1136784852,-0.0992983356,-44.8686599731,2.4326610565,49.1562957764
        0.7994971275,       -0.1313452125,-0.1136784852,-0.0992983356,-44.8686599731,2.4326610565,53.0625457764
        0.8020701408,       -0.1313452125,-0.1136784852,-0.0992983356,-47.0048904419,0.3422069550,53.1388397217
        0.8046422005,       -0.1103491187,-0.0682683289,-0.0411928669,-47.0048904419,0.3422069550,53.1388397217
        0.8073661327,       -0.1103491187,-0.0682683289,-0.0411928669,-46.5471267700,-1.8092823029,55.9922332764
        0.8099431992,       -0.1103491187,-0.0682683289,-0.0411928669,-46.5471267700,-1.8092823029,55.9922332764
        0.8125171661,       -0.1103491187,-0.0682683289,-0.0563295856,-43.6326980591,-4.4948291779,57.7622528076
        0.8150889874,       -0.0712866187,-0.0648503602,-0.0563295856,-43.6326980591,-4.4948291779,57.7622528076
        0.8176879883,       -0.0712866187,-0.0648503602,-0.0563295856,-38.8261795044,-5.6544971466,57.4265594482
        0.8202660084,       -0.0712866187,-0.0648503602,-0.0563295856,-38.8261795044,-5.6544971466,57.4265594482
        0.8229591846,       -0.0712866187,-0.0721745789,-0.1075991169,-33.7755203247,-5.9291553497,56.3279266357
        0.8255391121,       -0.0288061500,-0.0721745789,-0.1075991169,-33.7755203247,-5.9291553497,56.3279266357
        0.8281240463,       -0.0288061500,-0.0721745789,-0.1075991169,-29.6251296997,-6.8294239044,54.1916961670
        0.8307039738,       -0.0288061500,-0.0721745789,-0.1075991169,-29.6251296997,-6.8294239044,54.1916961670
        0.8332760334,        0.0961938500,-0.0897527039,-0.1227358356,-27.0769119263,-7.5008106232,51.2009735107
        0.8358511925,        0.0151391625,-0.0897527039,-0.1227358356,-27.0769119263,-7.5008106232,51.2009735107
        0.8385200500,        0.0151391625,-0.0897527039,-0.1227358356,-24.7880935669,-8.4926319122,47.9508514404
        0.8412330151,        0.0151391625,-0.0897527039,-0.1227358356,-24.7880935669,-8.4926319122,47.9508514404
        0.8439450264,        0.0371118188,-0.0902409852,-0.0914858356,-22.6366043091,-9.0419483185,45.0059051514
        0.8466570377,        0.0371118188,-0.0902409852,-0.0914858356,-22.6366043091,-9.0419483185,45.0059051514
        0.8493850231,        0.0371118188,-0.0902409852,-0.0914858356,-18.7303543091,-9.6675586700,41.9236297607
        0.8519670963,        0.0371118188,-0.0902409852,-0.0914858356,-20.1189041138,-9.6675586700,41.9236297607
        0.8545470238,        0.0234399438,-0.0355534852,-0.0607241169,-20.1189041138,-10.3999805450,39.8484344482
        0.8571820259,        0.0234399438,-0.0355534852,-0.0607241169,-15.6175613403,-10.3999805450,39.8484344482
        0.8597710133,        0.0234399438,-0.0355534852,-0.0607241169,-15.6175613403,-10.3999805450,42.7323455811
        0.8623480797,        0.0234399438,-0.0355534852,-0.0607241169,-7.9423904419,-10.9187793732,42.7323455811
        0.8650970459,       -0.0468725562,0.2134699523,-0.0407045856,-7.9423904419,-10.9187793732,44.6091766357
        0.8679389954,       -0.0468725562,0.2134699523,-0.0407045856,-3.4868240356,-12.2005176544,44.6091766357
        0.8706459999,       -0.0468725562,0.2134699523,-0.0407045856,-3.4868240356,-12.2005176544,39.8484344482
        0.8733570576,       -0.0468725562,0.0870051086,-0.0172670856,-0.9386062622,-13.3449268341,39.8484344482
        0.8760621548,        0.0112329125,0.0870051086,-0.0172670856,-0.9386062622,-13.3449268341,33.6533660889
        0.8787021637,        0.0112329125,0.0870051086,-0.0172670856,2.2352218628,-14.1841602325,33.6533660889
        0.8825540543,        0.0112329125,0.0870051086,-0.0172670856,5.0123214722,-13.7874317169,30.1438426971
        0.8852901459,       -0.0009741187,-0.0653386414,-0.0304506794,5.0123214722,-13.7874317169,30.1438426971
        0.8879940510,       -0.0009741187,-0.0653386414,-0.0304506794,3.4711837769,-13.3144092560,27.5803661346
        0.8905730247,       -0.0009741187,-0.0653386414,-0.0304506794,3.4711837769,-13.3144092560,27.5803661346
        0.8931441307,       -0.0009741187,-0.0653386414,-0.0817202106,-2.7696609497,-13.2991504669,26.2070751190
        0.8957090378,        0.0097680688,-0.1117253602,-0.0817202106,-2.7696609497,-13.2991504669,26.2070751190
        0.8983690739,        0.0097680688,-0.1117253602,-0.0817202106,-6.6759109497,-13.2381153107,25.4593944550
        0.9009330273,        0.0097680688,-0.1117253602,-0.0817202106,-7.8508377075,-13.2381153107,25.4593944550
        0.9034991264,        0.0097680688,-0.0790105164,-0.0563295856,-7.8508377075,-13.2381153107,24.5896434784
        0.9060680866,        0.0117211938,-0.0790105164,-0.0563295856,-10.3990554810,-13.6806201935,24.5896434784
        0.9086420536,        0.0117211938,-0.0790105164,-0.0563295856,-10.3990554810,-13.6806201935,23.6435985565
        0.9112119675,        0.0117211938,-0.0790105164,-0.0563295856,-13.7559890747,-13.5738086700,23.6435985565
        0.9137811661,        0.0117211938,-0.0697331727,-0.0040834919,-13.7559890747,-13.5738086700,23.6435985565
        0.9163491726,        0.0244165063,-0.0697331727,-0.0040834919,-16.4567947388,-14.1536426544,21.9040966034
        0.9189691544,        0.0244165063,-0.0697331727,-0.0040834919,-16.4567947388,-14.1536426544,21.9040966034
        0.9215409756,        0.0244165063,-0.0697331727,-0.0040834919,-14.8698806763,-14.4130420685,20.1340770721
        0.9241130352,        0.0244165063,-0.0736394227,0.0105649456,-14.8698806763,-14.4130420685,20.1340770721
        0.9266819954,        0.0302758813,-0.0736394227,0.0105649456,-11.0094070435,-14.1536426544,18.2419872284
        0.9293310642,        0.0302758813,-0.0736394227,0.0105649456,-11.0094070435,-14.1536426544,18.2419872284
        0.9319000244,        0.0302758813,-0.0736394227,0.0105649456,-8.4459304810,-13.4517383575,15.6937694550
        0.9344689846,        0.0229516625,-0.0370183289,-0.0255678669,-8.4459304810,-13.4517383575,15.6937694550
        0.9371271133,        0.0229516625,-0.0370183289,-0.0255678669,-5.8214187622,-12.5972461700,14.0763378143
        0.9397170544,        0.0229516625,-0.0370183289,-0.0255678669,-5.8214187622,-12.5972461700,14.0763378143
        0.9422850609,        0.0229516625,-0.0370183289,-0.0255678669,-0.5876541138,-13.1160449982,11.2382030487
        0.9448571205,        0.0258813500,-0.0243230164,-0.0236147419,-0.5876541138,-13.1160449982,11.2382030487
        0.9474680424,        0.0258813500,-0.0243230164,-0.0236147419,6.1719894409,-13.4669971466,7.4235057831
        0.9501500130,        0.0258813500,-0.0243230164,-0.0236147419,6.1719894409,-13.4669971466,7.4235057831
        0.9527201653,        0.0258813500,-0.0243230164,-0.0236147419,10.0782394409,-12.7498340607,3.7613964081
        0.9552900791,       -0.0170874000,-0.0511784852,-0.0485170856,9.2847824097,-12.7498340607,3.7613964081
        0.9578711987,       -0.0170874000,-0.0511784852,-0.0485170856,9.2847824097,-12.7498340607,1.4725780487
        0.9604439735,       -0.0170874000,-0.0511784852,-0.0485170856,8.5981369019,-12.4293994904,1.4725780487
        0.9630150795,       -0.0170874000,-0.0511784852,-0.0485170856,8.5981369019,-12.4293994904,-0.0990772247
        0.9655911922,       -0.0073217750,-0.0775456727,-0.0280092731,7.0569992065,-12.0021533966,-0.0990772247
        0.9682440758,       -0.0073217750,-0.0775456727,-0.0280092731,7.0569992065,-12.0021533966,-0.0990772247
        0.9708220959,       -0.0073217750,-0.0775456727,-0.0280092731,6.8433761597,-11.3612842560,-1.1366748810
        0.9733951092,       -0.0073217750,-0.0775456727,-0.0280092731,6.8433761597,-11.3612842560,-1.1366748810
        0.9759740829,       -0.0073217750,-0.0614323914,-0.0201967731,5.9736251831,-10.9492969513,-1.9759082794
        0.9786930084,       -0.0073217750,-0.0614323914,-0.0201967731,5.9736251831,-10.9492969513,-1.9759082794
        0.9814040661,       -0.0073217750,-0.0614323914,-0.0201967731,4.7071456909,-11.1781787872,-3.2423877716
        0.9841129780,       -0.0073217750,-0.0614323914,-0.0221498981,4.7071456909,-11.1781787872,-3.2423877716
        0.9868211746,        0.0146508813,-0.0462956727,-0.0221498981,2.8303146362,-11.0255908966,-3.4865283966
        0.9895370007,        0.0146508813,-0.0462956727,-0.0221498981,2.8303146362,-11.0255908966,-3.4865283966
        0.9922380447,        0.0146508813,-0.0462956727,-0.0221498981,1.0755538940,-10.6136035919,-3.9900684357
        0.9950649738,        0.0092797875,-0.0780339539,-0.0216616169,1.0755538940,-10.6136035919,-3.9900684357
        0.9981951714,        0.0092797875,-0.0780339539,-0.0216616169,-1.1674880981,-9.8506641388,-4.3410205841
        1.0008990765,        0.0092797875,-0.0780339539,-0.0216616169,-1.1674880981,-9.8506641388,-4.3410205841
        1.0036051273,        0.0092797875,-0.0780339539,-0.0216616169,-2.9527664185,-9.7896289825,-4.6767139435
        1.0063121319,        0.0170922875,-0.0751042664,-0.0143373981,-2.9527664185,-9.7896289825,-4.6767139435
        1.0089612007,        0.0170922875,-0.0751042664,-0.0143373981,-5.7451248169,-9.1945362091,-4.7224903107
        1.0115389824,        0.0170922875,-0.0751042664,-0.0143373981,-5.7451248169,-9.1945362091,-4.7224903107
        1.0142290592,        0.0170922875,-0.0751042664,-0.0035952106,-8.1102371216,-8.4621143341,-5.1344776154
        1.0168051720,        0.0063501000,-0.0707097352,-0.0035952106,-8.1102371216,-8.4621143341,-5.1344776154
        1.0195100307,        0.0063501000,-0.0707097352,-0.0035952106,-9.9260330200,-7.8670215607,-5.1497364044
        1.0222151279,        0.0063501000,-0.0707097352,-0.0035952106,-9.9260330200,-7.8670215607,-5.1497364044
        1.0249161720,        0.0063501000,-0.0741277039,-0.0060366169,-11.0399246216,-7.0888233185,-5.3481006622
        1.0276441574,        0.0112329125,-0.0741277039,-0.0060366169,-11.0399246216,-7.0888233185,-5.3481006622
        1.0302150249,        0.0112329125,-0.0741277039,-0.0060366169,-11.8638992310,-6.2648487091,-5.1344776154
        1.0327901840,        0.0112329125,-0.0741277039,-0.0060366169,-11.8638992310,-6.2648487091,-5.1344776154
        1.0353691578,        0.0039086938,-0.0677800477,0.0037290081,-11.8944168091,-5.7765674591,-5.2412891388
        1.0379581451,        0.0039086938,-0.0677800477,0.0037290081,-11.8944168091,-5.7765674591,-5.2412891388
        1.0405299664,        0.0039086938,-0.0677800477,0.0037290081,-10.4753494263,-5.2425098419,-5.5464649200
        1.0431020260,        0.0039086938,-0.0677800477,0.0037290081,-10.4753494263,-5.2425098419,-5.5464649200
        1.0456771851,        0.0063501000,-0.0653386414,0.0227719769,-8.2323074341,-4.2201709747,-6.3704395294
        1.0483939648,        0.0063501000,-0.0653386414,0.0227719769,-8.2323074341,-4.2201709747,-6.3704395294
        1.0509660244,        0.0063501000,-0.0653386414,0.0227719769,-5.2873611450,-3.8081836700,-6.6756153107
        1.0535380840,        0.0063501000,-0.0653386414,0.0227719769,-5.2873611450,-3.8081836700,-6.6756153107
        1.0561110973,        0.0107446313,-0.0594792664,0.0442563519,-5.2873611450,-3.8844776154,-7.5301074982
        1.0587852001,        0.0107446313,-0.0594792664,0.0442563519,-2.8001785278,-3.8844776154,-7.5301074982
        1.0613570213,        0.0107446313,-0.0594792664,0.0442563519,-2.8001785278,-7.7907276154,-7.9573535919
        1.0639309883,        0.0107446313,-0.0594792664,0.0442563519,-0.2367019653,-4.0065479279,-7.9573535919
        1.0665061474,        0.0078149438,-0.0702214539,0.0281430706,-0.2367019653,-4.0065479279,-8.3083057404
        1.0691990852,        0.0078149438,-0.0702214539,0.0281430706,1.6096115112,-3.7013721466,-8.3083057404
        1.0719001293,        0.0078149438,-0.0702214539,0.0281430706,1.6096115112,-3.7013721466,-8.3998584747
        1.0746071339,        0.0078149438,-0.0702214539,0.0154477581,2.2352218628,-3.3199024200,-8.3998584747
        1.0774221420,        0.0019555688,-0.0638737977,0.0154477581,2.2352218628,-3.3199024200,-8.3235645294
        1.0801219940,        0.0019555688,-0.0638737977,0.0154477581,1.7011642456,-2.8621387482,-8.3235645294
        1.0828220844,        0.0019555688,-0.0638737977,0.0154477581,1.7011642456,-2.8621387482,-7.8658008575
        1.0855281353,        0.0019555688,-0.0663152039,0.0130063519,0.6940841675,-1.5804004669,-7.8658008575
        1.0882310867,        0.0034204125,-0.0663152039,0.0130063519,0.6940841675,-1.5804004669,-6.7519092560
        1.0909011364,        0.0034204125,-0.0663152039,0.0130063519,-1.0759353638,0.0522899628,-6.7519092560
        1.0944540501,        0.0034204125,-0.0663152039,0.0130063519,-1.3963699341,0.9525585175,-6.0500049591
        1.0970211029,        0.0175805688,-0.0614323914,0.0193540081,-1.3963699341,0.9525585175,-6.0500049591
        1.0995891094,        0.0175805688,-0.0614323914,0.0193540081,-1.3963699341,1.3950634003,-5.8211231232
        1.1021561623,        0.0175805688,-0.0614323914,0.0193540081,-1.6099929810,1.3950634003,-5.8211231232
        1.1047191620,        0.0175805688,-0.0614323914,0.0193540081,-1.6099929810,1.3950634003,-5.5006885529
        1.1072959900,        0.0097680688,-0.0448308289,0.0198422894,-1.3200759888,1.3340282440,-5.5006885529
        1.1098601818,        0.0097680688,-0.0448308289,0.0198422894,-1.3200759888,1.3340282440,-5.5006885529
        1.1124310493,        0.0097680688,-0.0448308289,0.0198422894,-0.6181716919,1.5171337128,-5.1955127716
        1.1149961948,        0.0097680688,-0.0448308289,0.0198422894,-0.6181716919,1.5171337128,-5.1955127716
        1.1175661087,        0.0122094750,-0.0599675477,0.0154477581,0.9840011597,1.7460155487,-5.1497364044
        1.1201350689,        0.0122094750,-0.0599675477,0.0154477581,0.9840011597,1.7460155487,-5.1497364044
        1.1227021217,        0.0122094750,-0.0599675477,0.0154477581,1.8384933472,1.7002391815,-4.5393848419
        1.1252641678,        0.0122094750,-0.0599675477,0.0105649456,1.8384933472,1.7002391815,-4.5393848419
        1.1278851032,        0.0063501000,-0.0526433289,0.0105649456,1.7469406128,1.4560985565,-4.2036914825
        1.1304531097,        0.0063501000,-0.0526433289,0.0105649456,1.7469406128,1.4560985565,-4.2036914825
        1.1330161095,        0.0063501000,-0.0526433289,0.0105649456,1.1365890503,1.2577342987,-4.2952442169
        1.1355869770,        0.0063501000,-0.0526433289,0.0169126019,1.1365890503,1.2577342987,-4.2952442169
        1.1383380890,        0.0268579125,-0.0370183289,0.0169126019,1.6706466675,1.0441112518,-4.7377490997
        1.1409091949,        0.0268579125,-0.0370183289,0.0169126019,1.6706466675,1.0441112518,-4.7377490997
        1.1435980797,        0.0268579125,-0.0370183289,0.0169126019,1.7316818237,1.1204051971,-4.5851612091
        1.1461751461,        0.0268579125,-0.0350652039,0.0081235394,1.7316818237,1.1204051971,-4.5851612091
        1.1488859653,        0.0200219750,-0.0350652039,0.0081235394,2.3420333862,1.4255809784,-5.4091358185
        1.1514611244,        0.0200219750,-0.0350652039,0.0081235394,2.3420333862,1.4255809784,-5.4091358185
        1.1540341377,        0.0200219750,-0.0350652039,0.0081235394,2.3420333862,0.9525585175,-6.0042285919
        1.1566061974,        0.0209985375,-0.0228581727,0.0076352581,3.0744552612,0.9525585175,-6.0042285919
        1.1592061520,        0.0209985375,-0.0228581727,0.0076352581,3.0744552612,0.9525585175,-6.2178516388
        1.1617729664,        0.0209985375,-0.0228581727,0.0076352581,3.4406661987,0.1743602753,-6.2178516388
        1.1643409729,        0.0209985375,-0.0228581727,0.0076352581,3.4406661987,0.1743602753,-6.5993213654
        1.1669070721,        0.0141626000,-0.0326237977,-0.0050600544,4.4630050659,0.0522899628,-6.5993213654
        1.1695661545,        0.0141626000,-0.0326237977,-0.0050600544,4.4630050659,0.0522899628,-6.5993213654
        1.1721301079,        0.0141626000,-0.0326237977,-0.0050600544,5.5006027222,-0.4665088654,-6.3856983185
        1.1746950150,        0.0141626000,-0.0326237977,-0.0050600544,5.5006027222,-0.4665088654,-6.3856983185
        1.1773011684,        0.0053735375,-0.0462956727,0.0056821331,5.5463790894,-0.5428028107,-6.6298389435
        1.1798741817,        0.0053735375,-0.0462956727,0.0056821331,5.5463790894,-0.5428028107,-6.6298389435
        1.1824409962,        0.0053735375,-0.0462956727,0.0056821331,5.8362960815,-0.9853076935,-6.1415576935
        1.1850121021,        0.0053735375,-0.0462956727,0.0056821331,5.8362960815,-0.9853076935,-6.1415576935
        1.1877231598,        0.0151391625,-0.0375066102,-0.0128725544,6.3093185425,-0.7869434357,-5.7753467560
        1.1903030872,        0.0151391625,-0.0375066102,-0.0128725544,6.3093185425,-0.7869434357,-5.7753467560
        1.1928679943,        0.0151391625,-0.0375066102,-0.0128725544,5.4853439331,-1.1684131622,-6.0957813263
        1.1954371929,        0.0151391625,-0.0375066102,-0.0128725544,5.4853439331,-1.1684131622,-6.0957813263
        1.1982409954,        0.0170922875,-0.0213933289,-0.0006655231,4.8749923706,-1.1684131622,-5.9431934357
        1.2009110451,        0.0170922875,-0.0213933289,-0.0006655231,4.8749923706,-1.1684131622,-5.9431934357
        1.2042331696,        0.0170922875,-0.0213933289,-0.0006655231,4.9360275269,-1.6719532013,-5.7600879669
        1.2069129944,        0.0229516625,-0.0111394227,0.0076352581,4.9360275269,-1.6719532013,-5.7600879669
        1.2095520496,        0.0229516625,-0.0111394227,0.0076352581,5.3174972534,-1.3362598419,-5.6532764435
        1.2121300697,        0.0229516625,-0.0111394227,0.0076352581,5.3174972534,-1.3362598419,-5.6532764435
        1.2147011757,        0.0229516625,-0.0111394227,0.0076352581,4.7986984253,-0.9547901154,-5.8516407013
        1.2173030376,        0.0302758813,-0.0243230164,0.0232602581,4.7986984253,-0.9547901154,-5.8516407013
        1.2198781967,        0.0302758813,-0.0243230164,0.0232602581,4.7224044800,-0.7106494904,-5.3786182404
        1.2224500179,        0.0302758813,-0.0243230164,0.0232602581,4.7224044800,-0.7106494904,-5.3786182404
        1.2250201702,        0.0302758813,-0.0243230164,0.0232602581,4.7071456909,-0.1918506622,-4.8293018341
        1.2276420593,        0.0317407250,-0.0121159852,0.0305844769,4.7071456909,-0.1918506622,-4.8293018341
        1.2302131653,        0.0317407250,-0.0121159852,0.0305844769,4.7071456909,0.4947948456,-4.8293018341
        1.2327890396,        0.0317407250,-0.0121159852,0.0305844769,4.0662765503,0.4947948456,-4.8293018341
        1.2353560925,        0.0317407250,-0.0121159852,0.0305844769,4.0662765503,0.4947948456,-4.1884326935
        1.2379281521,        0.0268579125,-0.0213933289,0.0340024456,3.6085128784,1.5476512909,-4.1884326935
        1.2405049801,        0.0268579125,-0.0213933289,0.0340024456,3.6085128784,1.5476512909,-4.1884326935
        1.2430710793,        0.0268579125,-0.0213933289,0.0340024456,3.4864425659,2.1122264862,-3.4560108185
        1.2456471920,        0.0268579125,-0.0213933289,0.0340024456,3.4864425659,2.1122264862,-3.4560108185
        1.2483639717,        0.0258813500,-0.0150456727,0.0266782269,2.4030685425,3.2261180878,-2.9372119904
        1.2509331703,        0.0258813500,-0.0150456727,0.0266782269,2.4030685425,3.2261180878,-2.9372119904
        1.2535080910,        0.0258813500,-0.0150456727,0.0266782269,2.0978927612,3.4397411346,-2.3116016388
        1.2560780048,        0.0258813500,-0.0150456727,0.0266782269,2.0978927612,3.4397411346,-2.3116016388
        1.2587530613,        0.0283227563,-0.0165105164,0.0198422894,2.3420333862,3.7449169159,-1.8996143341
        1.2613279819,        0.0283227563,-0.0165105164,0.0198422894,2.3420333862,3.7449169159,-1.8996143341
        1.2638959885,        0.0283227563,-0.0165105164,0.0198422894,1.5180587769,4.1874217987,-1.1977100372
        1.2664639950,        0.0283227563,-0.0165105164,0.0178891644,1.5180587769,4.1874217987,-1.1977100372
        1.2692701817,        0.0195336938,-0.0126042664,0.0178891644,1.5180587769,4.4315624237,-1.0298633575
        1.2719690800,        0.0195336938,-0.0126042664,0.0178891644,1.5180587769,4.4315624237,-1.0298633575
        1.2747449875,        0.0195336938,-0.0126042664,0.0178891644,1.0602951050,4.6146678925,-0.6789112091
        1.2778379917,        0.0209985375,-0.0169987977,0.0120297894,1.0602951050,4.6146678925,-0.6789112091
        1.2805490494,        0.0209985375,-0.0169987977,0.0120297894,0.8008956909,4.4620800018,-0.5415821075
        1.2832510471,        0.0209985375,-0.0169987977,0.0120297894,0.8008956909,4.4620800018,-0.5415821075
        1.2859489918,        0.0209985375,-0.0169987977,0.0120297894,-0.0993728638,4.4773387909,-0.4652881622
        1.2886660099,        0.0273461938,0.0176691711,0.0091001019,-0.0993728638,4.4773387909,-0.4652881622
        1.2913691998,        0.0273461938,0.0176691711,0.0091001019,-0.4808425903,4.3247509003,-0.7246875763
        1.2940700054,        0.0273461938,0.0176691711,0.0091001019,-0.4808425903,4.3247509003,-0.7246875763
        1.2967779636,        0.0273461938,0.0176691711,0.0154477581,-0.1451492310,4.3247509003,-1.3808155060
        1.2994899750,        0.0410180688,0.0347590148,0.0154477581,-0.1451492310,4.3247509003,-1.3808155060
        1.3021969795,        0.0410180688,0.0347590148,0.0154477581,0.0074386597,4.2637157440,-2.0216846466
        1.3048961163,        0.0410180688,0.0347590148,0.0154477581,0.0074386597,4.2637157440,-2.0216846466
        1.3076231480,        0.0410180688,0.0337824523,0.0100766644,0.0684738159,4.0195751190,-2.8609180450
        1.3101921082,        0.0395532250,0.0337824523,0.0100766644,0.0684738159,4.0195751190,-2.8609180450
        1.3127591610,        0.0395532250,0.0337824523,0.0100766644,0.2668380737,3.6228466034,-3.6543750763
        1.3153250217,        0.0395532250,0.0337824523,0.0100766644,0.2668380737,3.6228466034,-3.6543750763
        1.3179121017,        0.0346704125,0.0474543273,0.0125180706,0.9229660034,3.5923290253,-4.7682666779
        1.3204870224,        0.0346704125,0.0474543273,0.0125180706,0.9229660034,3.5923290253,-4.7682666779
        1.3230621815,        0.0346704125,0.0474543273,0.0125180706,1.8079757690,3.8212108612,-5.6075000763
        1.3256311417,        0.0346704125,0.0474543273,0.0125180706,1.8079757690,3.8212108612,-5.6075000763
        1.3283519745,        0.0332055688,0.0328058898,-0.0021303669,1.8079757690,3.8975048065,-6.0957813263
        1.3309290409,        0.0332055688,0.0328058898,-0.0021303669,1.6706466675,3.8975048065,-6.0957813263
        1.3336081505,        0.0332055688,0.0328058898,-0.0021303669,1.6706466675,4.3247509003,-5.8821582794
        1.3361721039,        0.0332055688,0.0328058898,-0.0021303669,0.6940841675,4.3247509003,-5.8821582794
        1.3389811516,        0.0395532250,0.0230402648,0.0105649456,0.6940841675,4.8740673065,-6.1873340607
        1.3416800499,        0.0395532250,0.0230402648,0.0105649456,0.0074386597,4.8740673065,-6.1873340607
        1.3443830013,        0.0395532250,0.0230402648,0.0105649456,0.0074386597,5.7133007050,-6.2788867950
        1.3470900059,        0.0395532250,0.0230402648,0.0105649456,-0.0841140747,5.7133007050,-6.2788867950
        1.3497960567,        0.0410180688,0.0347590148,0.0208188519,-0.0841140747,5.5301952362,-6.5077686310
        1.3525049686,        0.0410180688,0.0347590148,0.0208188519,-0.0535964966,5.5301952362,-6.5077686310
        1.3552031517,        0.0410180688,0.0347590148,0.0208188519,-0.0535964966,5.5301952362,-6.9350147247
        1.3578741550,        0.0410180688,0.0352472961,0.0242368206,0.3431320190,5.6522655487,-6.9350147247
        1.3604490757,        0.0385766625,0.0352472961,0.0242368206,0.3431320190,5.6522655487,-7.1333789825
        1.3630180359,        0.0385766625,0.0352472961,0.0242368206,0.5109786987,5.4539012909,-7.1333789825
        1.3655860424,        0.0385766625,0.0352472961,0.0242368206,0.5109786987,5.4539012909,-7.1333789825
        1.3682780266,        0.0385766625,0.0318293273,0.0266782269,0.6788253784,5.7895946503,-7.2707080841
        1.3709831238,        0.0332055688,0.0318293273,0.0266782269,0.6788253784,5.7895946503,-7.2707080841
        1.3736820221,        0.0332055688,0.0318293273,0.0266782269,1.3044357300,5.7438182831,-7.1944141388
        1.3763849735,        0.0332055688,0.0318293273,0.0266782269,1.3044357300,5.7438182831,-7.1944141388
        1.3790991306,        0.0249047875,0.0245051086,0.0222836956,1.1518478394,5.8964061737,-6.8282032013
        1.3818070889,        0.0249047875,0.0245051086,0.0222836956,1.1518478394,5.8964061737,-6.8282032013
        1.3845081329,        0.0249047875,0.0245051086,0.0222836956,1.3959884644,6.0642528534,-6.4162158966
        1.3872511387,        0.0249047875,0.0245051086,0.0222836956,1.3959884644,6.0642528534,-2.5099658966
        1.3899550438,        0.0302758813,0.0328058898,0.0125180706,1.7316818237,5.5759716034,-6.1110401154
        1.3926541805,        0.0302758813,0.0328058898,0.0125180706,1.7316818237,5.5759716034,-6.1110401154
        1.3954141140,        0.0302758813,0.0328058898,0.0125180706,1.6248703003,5.3928661346,-5.8516407013
        1.3983731270,        0.0302758813,0.0293879211,0.0169126019,1.6248703003,5.3928661346,-5.5922412872
        1.4009621143,        0.0297876000,0.0293879211,0.0169126019,2.2352218628,5.4996776581,-5.5922412872
        1.4035310745,        0.0297876000,0.0293879211,0.0169126019,2.2352218628,5.4996776581,-5.5922412872
        1.4061000347,        0.0297876000,0.0293879211,0.0169126019,2.4030685425,5.8811473846,-5.0581836700
        1.4087700844,        0.0253930688,0.0269465148,0.0134946331,2.4030685425,5.8811473846,-5.0581836700
        1.4114720821,        0.0253930688,0.0269465148,0.0134946331,2.1894454956,6.6288280487,-4.6461963654
        1.4141681194,        0.0253930688,0.0269465148,0.0134946331,2.1894454956,6.6288280487,-4.6461963654
        1.4168751240,        0.0253930688,0.0269465148,0.0134946331,2.0215988159,6.7203807831,-4.5546436310
        1.4195740223,        0.0312524438,0.0391535461,0.0266782269,2.0215988159,6.7203807831,-4.5546436310
        1.4222781658,        0.0312524438,0.0391535461,0.0266782269,2.2962570190,6.7508983612,-4.2494678497
        1.4249801636,        0.0312524438,0.0391535461,0.0266782269,2.2962570190,6.7508983612,-4.2494678497
        1.4276630878,        0.0312524438,0.0391535461,0.0266782269,2.2657394409,6.7203807831,-4.0358448029
        1.4302380085,        0.0341821313,0.0523371398,0.0286313519,2.2657394409,6.7203807831,-4.0358448029
        1.4328031540,        0.0341821313,0.0523371398,0.0286313519,2.9523849487,6.6288280487,-4.3410205841
        1.4353699684,        0.0341821313,0.0523371398,0.0286313519,2.9523849487,6.6288280487,-4.3410205841
        1.4379510880,        0.0341821313,0.0523371398,0.0286313519,3.5627365112,6.9645214081,-4.2799854279
        1.4405171871,        0.0380883813,0.0577082336,0.0193540081,3.5627365112,6.9645214081,-4.2799854279
        1.4430921078,        0.0380883813,0.0577082336,0.0193540081,3.8679122925,7.1476268768,-4.3562793732
        1.4456591606,        0.0380883813,0.0577082336,0.0193540081,3.8679122925,7.1476268768,-4.3562793732
        1.4483551979,        0.0380883813,0.0577082336,0.0237485394,4.5698165894,7.2391796112,-4.4478321075
        1.4509341717,        0.0390649438,0.0674738586,0.0237485394,4.5698165894,7.2391796112,-4.4478321075
        1.4535090923,        0.0390649438,0.0674738586,0.0237485394,4.5698165894,7.2849559784,-4.4173145294
        1.4560811520,        0.0390649438,0.0674738586,0.0237485394,5.4243087769,7.2849559784,-4.4173145294
        1.4588351250,        0.0390649438,0.0699152648,0.0164243206,5.4243087769,7.4375438690,-4.7530078888
        1.4616510868,        0.0478540063,0.0699152648,0.0164243206,5.6684494019,7.4375438690,-4.7530078888
        1.4643590450,        0.0478540063,0.0699152648,0.0164243206,5.6684494019,7.6359081268,-4.9666309357
        1.4670741558,        0.0478540063,0.0699152648,0.0164243206,6.1109542847,7.6359081268,-4.9666309357
        1.4697811604,        0.0376001000,0.0635676086,0.0095883831,10.0172042847,7.9105663300,-4.1121387482
        1.4724960327,        0.0376001000,0.0635676086,0.0095883831,6.2940597534,7.9105663300,-4.1121387482
        1.4752061367,        0.0376001000,0.0635676086,0.0095883831,6.2940597534,8.0478954315,-4.1579151154
        1.4779171944,        0.0376001000,0.0635676086,0.0095883831,6.6297531128,8.0478954315,-4.1579151154
        1.4806220531,        0.0322290063,0.0542902648,0.0022641644,6.6297531128,8.3378124237,-3.9137744904
        1.4833240509,        0.0322290063,0.0542902648,0.0022641644,7.1943283081,8.3378124237,-3.9137744904
        1.4860379696,        0.0322290063,0.0542902648,0.0022641644,7.1943283081,8.3835887909,-3.5323047638
        1.4887540340,        0.0322290063,0.0542902648,0.0193540081,7.1027755737,8.3835887909,-3.5323047638
        1.4914591312,        0.0244165063,0.0542902648,0.0193540081,7.1027755737,8.5056591034,-2.9524707794
        1.4941701889,        0.0244165063,0.0542902648,0.0193540081,6.5992355347,8.5056591034,-2.9524707794
        1.4967989922,        0.0244165063,0.0542902648,0.0193540081,6.5992355347,8.2920360565,-2.2810840607
        1.4996101856,        0.0327172875,0.0552668273,0.0305844769,6.1872482300,8.2920360565,-2.2810840607
        1.5028421879,        0.0327172875,0.0552668273,0.0305844769,6.5534591675,8.3683300018,-1.7317676544
        1.5054111481,        0.0327172875,0.0552668273,0.0305844769,6.5534591675,8.3683300018,-1.7317676544
        1.5080580711,        0.0327172875,0.0552668273,0.0305844769,7.0875167847,8.2310009003,-1.2740039825
        1.5106291771,        0.0400415063,0.0674738586,0.0242368206,7.0875167847,8.2310009003,-1.2740039825
        1.5131959915,        0.0400415063,0.0674738586,0.0242368206,7.0875167847,8.2157421112,-0.8314990997
        1.5157721043,        0.0400415063,0.0674738586,0.0242368206,6.9044113159,8.2157421112,-0.8314990997
        1.5183951855,        0.0400415063,0.0674738586,0.0242368206,6.9044113159,8.2157421112,-1.0451221466
        1.5209670067,        0.0395532250,0.0625910461,0.0100766644,7.6368331909,8.2004833221,-1.0451221466
        1.5235381126,        0.0395532250,0.0625910461,0.0100766644,7.6368331909,8.2004833221,-1.0451221466
        1.5262110233,        0.0395532250,0.0625910461,0.0100766644,8.0945968628,8.7192821503,-1.2587451935
        1.5288240910,        0.0395532250,0.0625910461,0.0100766644,8.0945968628,8.7192821503,-1.2587451935
        1.5313990116,        0.0419946313,0.0723566711,0.0100766644,8.4608078003,8.5361766815,-1.3808155060
        1.5339691639,        0.0419946313,0.0723566711,0.0100766644,8.4608078003,8.5361766815,-1.3808155060
        1.5365431309,        0.0419946313,0.0723566711,0.0100766644,8.0793380737,8.3225536346,-1.3045215607
        1.5391590595,        0.0419946313,0.0723566711,0.0100766644,8.0793380737,8.3225536346,-1.3045215607
        1.5417311192,        0.0332055688,0.0830988586,0.0100766644,8.2777023315,7.8800487518,-1.0756397247
        1.5443010330,        0.0332055688,0.0830988586,0.0100766644,8.2777023315,7.8800487518,-1.0756397247
        1.5468699932,        0.0332055688,0.0830988586,0.0100766644,9.1779708862,7.8953075409,-0.9840869904
        1.5495231152,        0.0332055688,0.0830988586,0.0115415081,9.1779708862,7.8953075409,-0.9840869904
        1.5520970821,        0.0410180688,0.0923762023,0.0115415081,9.4373703003,7.9410839081,-1.6249561310
        1.5546720028,        0.0410180688,0.0923762023,0.0115415081,9.4373703003,7.9410839081,-1.6249561310
        1.5573999882,        0.0410180688,0.0923762023,0.0115415081,9.6357345581,8.0631542206,-1.5944385529
        1.5601069927,        0.0429711938,0.0928644836,-0.0006655231,9.6357345581,8.0631542206,-1.5944385529
        1.5628070831,        0.0429711938,0.0928644836,-0.0006655231,10.2308273315,7.9410839081,-0.3584766388
        1.5655121803,        0.0429711938,0.0928644836,-0.0006655231,10.2308273315,7.9410839081,-0.3584766388
        1.5682771206,        0.0429711938,0.0928644836,-0.0006655231,10.8259201050,8.1089305878,0.4502391815
        1.5709931850,        0.0376001000,0.0865168273,0.0076352581,10.8259201050,8.1089305878,0.4502391815
        1.5737020969,        0.0376001000,0.0865168273,0.0076352581,11.6651535034,8.0021190643,-0.6178760529
        1.5764071941,        0.0376001000,0.0865168273,0.0076352581,11.6651535034,8.0021190643,-0.6178760529
        1.5791239738,        0.0376001000,0.0865168273,0.0076352581,11.7414474487,7.9258251190,-0.9535694122
        1.5818290710,        0.0336938500,0.0923762023,0.0154477581,11.7414474487,7.9258251190,-0.9535694122
        1.5845351219,        0.0336938500,0.0923762023,0.0154477581,12.0313644409,8.0326366425,-1.0908985138
        1.5872809887,        0.0336938500,0.0923762023,0.0154477581,12.0313644409,8.0326366425,-1.0908985138
        1.5900959969,        0.0336938500,0.0997004211,-0.0104311481,12.2602462769,8.1241893768,-1.3502979279
        1.5928041935,        0.0278344750,0.0997004211,-0.0104311481,12.2602462769,8.1241893768,-1.3502979279
        1.5955140591,        0.0278344750,0.0997004211,-0.0104311481,12.3060226440,7.8495311737,-1.4113330841
        1.5983810425,        0.0278344750,0.0997004211,-0.0104311481,12.3060226440,7.8495311737,-1.4113330841
        1.6009621620,        0.0346704125,0.1187433898,-0.0011538044,13.6793136597,7.5748729706,-0.7552051544
        1.6039910316,        0.0346704125,0.1187433898,-0.0011538044,13.6793136597,7.5748729706,-0.7552051544
        1.6065840721,        0.0346704125,0.1187433898,-0.0011538044,15.0526046753,7.0560741425,-0.2364063263
        1.6092250347,        0.0346704125,0.1187433898,-0.0011538044,15.0526046753,7.0560741425,-0.2364063263
        1.6117961407,        0.0405297875,0.1197199523,-0.0045717731,16.1054611206,6.5677928925,-0.5720996857
        1.6143682003,        0.0405297875,0.1197199523,-0.0045717731,16.1054611206,6.5677928925,-0.5720996857
        1.6169791222,        0.0405297875,0.1197199523,-0.0045717731,17.5855636597,6.6440868378,0.2060985565
        1.6195499897,        0.0405297875,0.1197199523,-0.0045717731,17.5855636597,6.6440868378,0.2060985565
        1.6221179962,        0.0195336938,0.1109308898,-0.0221498981,17.5855636597,7.1171092987,1.1826610565
        1.6246831417,        0.0195336938,0.1109308898,-0.0221498981,18.1501388550,7.1171092987,1.1826610565
        1.6273009777,        0.0195336938,0.1109308898,-0.0221498981,18.1501388550,7.1171092987,1.9913768768
        1.6298670769,        0.0195336938,0.1109308898,-0.0338686481,17.1888351440,7.4070262909,1.9913768768
        1.6324341297,        0.0092797875,0.0972590148,-0.0338686481,17.1888351440,7.4070262909,3.2731151581
        1.6350121498,        0.0092797875,0.0972590148,-0.0338686481,16.8836593628,7.9868602753,3.2731151581
        1.6376280785,        0.0092797875,0.0972590148,-0.0338686481,16.8836593628,7.9868602753,3.2731151581
        1.6402029991,        0.0092797875,0.0972590148,-0.0133608356,15.9528732300,8.4141063690,4.7074413300
        1.6427750587,        0.0019555688,0.0904230773,-0.0133608356,15.9528732300,8.4141063690,4.7074413300
        1.6453449726,        0.0019555688,0.0904230773,-0.0133608356,15.6934738159,8.2920360565,5.1957225800
        1.6479880810,        0.0019555688,0.0904230773,-0.0133608356,15.6934738159,8.2920360565,5.1957225800
        1.6505670547,        0.0019555688,0.1080012023,-0.0016420856,16.1664962769,8.4293651581,5.6687450409
        1.6532530785,        0.0190454125,0.1080012023,-0.0016420856,16.1664962769,8.4293651581,5.6687450409
        1.6558301449,        0.0190454125,0.1080012023,-0.0016420856,16.6090011597,8.7040233612,5.8823680878
        1.6586141586,        0.0190454125,0.1080012023,-0.0016420856,16.6090011597,8.7040233612,5.8823680878
        1.6613221169,        0.0268579125,0.1226496398,-0.0035952106,17.6923751831,8.5819530487,7.2404003143
        1.6640310287,        0.0268579125,0.1226496398,-0.0035952106,17.6923751831,8.5819530487,7.2404003143
        1.6667339802,        0.0268579125,0.1226496398,-0.0035952106,17.7381515503,8.3683300018,8.6136913300
        1.6694850922,        0.0268579125,0.1226496398,-0.0035952106,17.7381515503,8.3683300018,8.6136913300
        1.6721920967,        0.0141626000,0.1226496398,-0.0006655231,17.9517745972,8.8871288300,9.7428417206
        1.6748971939,        0.0141626000,0.1226496398,-0.0006655231,17.9517745972,8.8871288300,9.7428417206
        1.6776511669,        0.0141626000,0.1226496398,-0.0006655231,19.7065353394,9.4364452362,9.6207714081
        1.6803531647,        0.0141626000,0.1226496398,-0.0040834919,19.7065353394,9.4364452362,9.6207714081
        1.6830661297,        0.0146508813,0.1206965148,-0.0040834919,20.9119796753,9.6195507050,10.5210399628
        1.6857671738,        0.0146508813,0.1206965148,-0.0040834919,20.9119796753,9.6195507050,10.5210399628
        1.6884841919,        0.0146508813,0.1206965148,-0.0040834919,21.8122482300,10.3824901581,11.5891551971
        1.6911911964,        0.0146508813,0.1221613586,-0.0011538044,21.8122482300,10.3824901581,11.5891551971
        1.6938960552,        0.0092797875,0.1221613586,-0.0011538044,21.9648361206,11.5116405487,12.4436473846
        1.6966021061,        0.0092797875,0.1221613586,-0.0011538044,21.9648361206,11.5116405487,12.4436473846
        1.6992130280,        0.0092797875,0.1221613586,-0.0011538044,21.2934494019,12.5644969940,14.0305614471
        1.7017819881,       -0.0190405250,0.1040949523,-0.0031069294,21.2934494019,12.5644969940,14.0305614471
        1.7043631077,       -0.0190405250,0.1040949523,-0.0031069294,20.8814620972,14.1971874237,15.2512645721
        1.7069690228,       -0.0190405250,0.1040949523,-0.0031069294,20.8814620972,14.1971874237,15.2512645721
        1.7095429897,       -0.0190405250,0.1040949523,-0.0031069294,19.9506759644,15.2195262909,16.4719676971
        1.7121219635,       -0.0405249000,0.0997004211,0.0154477581,19.9506759644,15.2195262909,16.4719676971
        1.7148649693,       -0.0405249000,0.0997004211,0.0154477581,19.9506759644,16.4249706268,18.4861278534
        1.7179911137,       -0.0405249000,0.0997004211,0.0154477581,18.8520431519,16.4249706268,18.4861278534
        1.7207000256,       -0.0405249000,0.0997004211,0.0203305706,17.7839279175,17.3404979706,20.2408885956
        1.7233979702,       -0.0634741187,0.1045832336,0.0203305706,17.7839279175,17.3404979706,20.2408885956
        1.7261111736,       -0.0634741187,0.1045832336,0.0203305706,17.5550460815,17.4930858612,22.2855663300
        1.7288670540,       -0.0634741187,0.1045832336,0.0203305706,17.5550460815,17.4930858612,22.2855663300
        1.7315790653,       -0.0634741187,0.1109308898,0.0271665081,18.6841964722,17.3557567596,24.4980907440
        1.7342820168,       -0.0664038062,0.1109308898,0.0271665081,18.6841964722,17.3557567596,24.4980907440
        1.7369930744,       -0.0664038062,0.1109308898,0.0271665081,19.7065353394,17.1573925018,26.7258739471
        1.7397031784,       -0.0664038062,0.1109308898,0.0271665081,19.7065353394,17.1573925018,26.7258739471
        1.7424130440,       -0.0712866187,0.1040949523,0.0281430706,19.8591232300,16.1350536346,28.1144237518
        1.7451231480,       -0.0712866187,0.1040949523,0.0281430706,19.8591232300,16.1350536346,28.1144237518
        1.7478380203,       -0.0712866187,0.1040949523,0.0281430706,20.3626632690,15.4941844940,29.8234081268
        1.7504119873,       -0.0712866187,0.1040949523,0.0281430706,20.3626632690,15.4941844940,29.8234081268
        1.7529850006,       -0.0913061500,0.1070246398,-0.0006655231,21.2171554565,15.4941844940,31.7154979706
        1.7555589676,       -0.0913061500,0.1070246398,-0.0006655231,21.2171554565,15.4941844940,31.7154979706
        1.7581391335,       -0.0913061500,0.1070246398,-0.0006655231,21.2171554565,14.7770214081,33.8212127686
        1.7607190609,       -0.0913061500,0.1070246398,-0.0006655231,21.1408615112,14.7770214081,33.8212127686
        1.7632911205,       -0.1079077125,0.1099543273,-0.0187319294,21.1408615112,14.7770214081,36.2626190186
        1.7658660412,       -0.1079077125,0.1099543273,-0.0187319294,21.9190597534,14.3192577362,36.2626190186
        1.7685890198,       -0.1079077125,0.1099543273,-0.0187319294,21.9190597534,14.3192577362,38.0784149170
        1.7711660862,       -0.1079077125,0.1099543273,-0.0187319294,22.1479415894,13.3884716034,38.0784149170
        1.7737431526,       -0.1376928687,0.0894465148,-0.0138491169,22.1479415894,13.3884716034,38.0784149170
        1.7763180733,       -0.1376928687,0.0894465148,-0.0138491169,22.3920822144,11.9694042206,39.8789520264
        1.7790181637,       -0.1376928687,0.0894465148,-0.0138491169,22.3920822144,11.9694042206,39.8789520264
        1.7817280293,       -0.1376928687,0.0894465148,-0.0167788044,23.2770919800,10.4435253143,42.1219940186
        1.7845411301,       -0.1567358375,0.0855402648,-0.0167788044,23.2770919800,10.4435253143,42.1219940186
        1.7872531414,       -0.1567358375,0.0855402648,-0.0167788044,23.5364913940,9.2228221893,44.4871063232
        1.7898311615,       -0.1567358375,0.0855402648,-0.0167788044,23.5364913940,9.2228221893,44.4871063232
        1.7924020290,       -0.1694311500,0.1153254211,-0.0328920856,23.7958908081,7.9868602753,46.7148895264
        1.7949800491,       -0.1694311500,0.1153254211,-0.0328920856,23.7958908081,7.9868602753,46.7148895264
        1.7975599766,       -0.1694311500,0.1153254211,-0.0328920856,24.7724533081,7.1476268768,48.5917205811
        1.8001301289,       -0.1694311500,0.1153254211,-0.0328920856,24.7724533081,7.1476268768,48.5917205811
        1.8028609753,       -0.1826147437,0.1167902648,-0.0411928669,26.3593673706,6.1100292206,50.0718231201
        1.8054289818,       -0.1826147437,0.1167902648,-0.0411928669,26.3593673706,6.1100292206,50.0718231201
        1.8082041740,       -0.1826147437,0.1167902648,-0.0411928669,27.7173995972,4.3705272675,51.3993377686
        1.8107771873,       -0.1826147437,0.1167902648,-0.0411928669,27.7173995972,4.3705272675,51.3993377686
        1.8137021065,       -0.1738256812,0.1172785461,-0.0250795856,29.5026779175,1.7460155487,52.8184051514
        1.8162891865,       -0.1738256812,0.1172785461,-0.0250795856,29.5026779175,1.7460155487,52.8184051514
        1.8188731670,       -0.1738256812,0.1172785461,-0.0250795856,32.9053878784,-0.1002979279,53.5660858154
        1.8214421272,       -0.1738256812,0.1172785461,-0.0250795856,32.9053878784,-0.1002979279,53.5660858154
        1.8240191936,       -0.1957983375,0.1133722961,0.0081235394,36.5674972534,-2.2060108185,53.5203094482
        1.8265900612,       -0.1957983375,0.1133722961,0.0081235394,36.5674972534,-2.2060108185,53.5203094482
        1.8292050362,       -0.1957983375,0.1133722961,0.0081235394,39.9091720581,-4.1438770294,52.8641815186
        1.8317770958,       -0.1957983375,0.1133722961,0.0081235394,39.9091720581,-4.1438770294,52.8641815186
        1.8343451023,       -0.2246069312,0.0987238586,0.0037290081,39.9091720581,-6.1122608185,52.8946990967
        1.8370230198,       -0.2246069312,0.0987238586,0.0037290081,43.6780929565,-6.1122608185,52.8946990967
        1.8395950794,       -0.2246069312,0.0987238586,0.0037290081,43.6780929565,-10.0185108185,53.5203094482
        1.8421671391,       -0.2246069312,0.0987238586,0.0222836956,46.3026046753,-8.2332324982,53.5203094482
        1.8447439671,       -0.2324194312,0.0962824523,0.0222836956,46.3026046753,-8.2332324982,53.1388397217
        1.8475670815,       -0.2324194312,0.0962824523,0.0222836956,48.1336593628,-9.8811817169,53.1388397217
        1.8501441479,       -0.2324194312,0.0962824523,0.0222836956,48.1336593628,-9.8811817169,52.9252166748
        1.8527221680,       -0.2324194312,0.0943293273,0.0315610394,51.0938644409,-10.7814502716,52.9252166748
        1.8552889824,       -0.2026342750,0.0943293273,0.0315610394,51.0938644409,-10.7814502716,49.0189666748
        1.8579909801,       -0.2026342750,0.0943293273,0.0315610394,48.7897872925,-12.5362110138,51.0941619873
        1.8605690002,       -0.2026342750,0.0943293273,0.0315610394,48.7897872925,-12.5362110138,51.0941619873
        1.8631420135,       -0.2016577125,0.0401301086,0.0784360394,45.1276779175,-12.7956104279,48.2865447998
        1.8657150269,       -0.2016577125,0.0401301086,0.0784360394,45.1276779175,-12.7956104279,48.2865447998
        1.8685421944,       -0.2016577125,0.0401301086,0.0784360394,42.0148849487,-12.3225879669,46.2418670654
        1.8712391853,       -0.2016577125,0.0401301086,0.0784360394,42.0148849487,-12.3225879669,46.2418670654
        1.8739349842,       -0.1630834937,0.0513605773,0.0901547894,41.5571212769,-10.3999805450,45.9519500732
        1.8766222000,       -0.1630834937,0.0513605773,0.0901547894,41.5571212769,-10.3999805450,45.9519500732
        1.8794281483,       -0.1630834937,0.0513605773,0.0901547894,43.2508468628,-9.4844532013,48.0576629639
        1.8821201324,       -0.1630834937,0.0513605773,0.0901547894,43.2508468628,-9.4844532013,48.0576629639
        1.8848140240,       -0.0766577125,0.1382746398,0.1384946406,45.2192306519,-7.8670215607,51.7960662842
        1.8875200748,       -0.0766577125,0.1382746398,0.1384946406,45.2192306519,-7.8670215607,51.7960662842
        1.8903021812,       -0.0766577125,0.1382746398,0.1384946406,49.1102218628,-6.5089893341,54.4663543701
        1.8929960728,       -0.0766577125,0.1475519836,0.1507016718,49.1102218628,-6.5089893341,54.4663543701
        1.8956911564,       -0.0224584937,0.1475519836,0.1507016718,54.7712326050,-5.4103565216,54.3290252686
        1.8984601498,       -0.0224584937,0.1475519836,0.1507016718,54.7712326050,-5.4103565216,54.3290252686
        1.9011580944,       -0.0224584937,0.1475519836,0.1507016718,61.2257003784,-6.7378711700,54.1154022217
        1.9038519859,        0.0322290063,0.2491144836,0.2014829218,61.2257003784,-6.7378711700,54.1154022217
        1.9065480232,        0.0322290063,0.2491144836,0.2014829218,67.0698165894,-9.1335010529,55.5802459717
        1.9092741013,        0.0322290063,0.2491144836,0.2014829218,67.0698165894,-9.1335010529,55.5802459717
        1.9120721817,        0.0322290063,0.2491144836,0.2014829218,71.5864181519,-10.5830860138,56.7704315186
        1.9147629738,        0.0888696313,0.2740168273,0.2395688593,71.5864181519,-10.5830860138,56.7704315186
        1.9174680710,        0.0888696313,0.2740168273,0.2395688593,76.6523361206,-12.4599170685,57.0756072998
        1.9201781750,        0.0888696313,0.2740168273,0.2395688593,76.6523361206,-12.4599170685,57.0756072998
        1.9228889942,        0.0888696313,0.1490168273,0.2507993281,78.9411544800,-13.9247608185,54.1306610107
        1.9256491661,        0.1367211938,0.0816340148,0.2507993281,78.9411544800,-13.9247608185,54.1306610107
        1.9286851883,        0.1367211938,0.0816340148,0.2507993281,82.9542160034,-15.1759815216,46.7606658936
        1.9313981533,        0.1367211938,0.0816340148,0.2507993281,82.9542160034,-15.1759815216,46.7606658936
        1.9341089725,        0.1850610375,-0.1610417664,0.2117368281,90.8430099487,-16.6560840607,38.1241912842
        1.9368190765,        0.1850610375,-0.1610417664,0.2117368281,90.8430099487,-16.6560840607,38.1241912842
        1.9395351410,        0.1850610375,-0.1610417664,0.2117368281,98.3045578003,-17.0375537872,28.6179637909
        1.9422411919,        0.1850610375,-0.1610417664,0.2117368281,98.3045578003,-17.0375537872,28.6179637909
        1.9449460506,        0.2485376000,-0.2860417664,0.1350766718,103.5383224487,-18.3955860138,19.2032909393
        1.9476711750,        0.2485376000,-0.2860417664,0.1350766718,103.5383224487,-18.3955860138,19.2032909393
        1.9503791332,        0.2485376000,-0.2860417664,0.1350766718,108.1769943237,-22.1645069122,11.9858837128
        1.9530839920,        0.2485376000,-0.2860417664,0.0950376019,108.1769943237,-22.1645069122,11.9858837128
        1.9557940960,        0.2563501000,-0.2040105164,0.0950376019,112.1442794800,-24.3922901154,6.8589305878
        1.9584469795,        0.2563501000,-0.2040105164,0.0950376019,112.1442794800,-24.3922901154,6.8589305878
        1.9610240459,        0.2563501000,-0.2040105164,0.0950376019,115.0892257690,-23.8277149200,-0.3279590607
        1.9636011124,        0.2563501000,-0.3348698914,0.0227719769,115.0892257690,-23.8277149200,-0.3279590607
        1.9661769867,        0.2514672875,-0.3348698914,0.0227719769,118.7665939331,-22.9427051544,-11.0701465607
        1.9688220024,        0.2514672875,-0.3348698914,0.0227719769,118.7665939331,-22.9427051544,-11.0701465607
        1.9714009762,        0.2514672875,-0.3348698914,0.0227719769,119.7126388550,-22.1187305450,-21.3087940216
        1.9739739895,        0.2514672875,-0.3871159852,-0.0382631794,119.7126388550,-22.1187305450,-21.3087940216
        1.9766600132,        0.2807641625,-0.3871159852,-0.0382631794,117.0576095581,-21.9508838654,-29.7163867950
        1.9793550968,        0.2807641625,-0.3871159852,-0.0382631794,117.0576095581,-21.9508838654,-29.7163867950
        1.9819321632,        0.2807641625,-0.3871159852,-0.0382631794,110.3742599487,-22.5612354279,-36.5065460205
        1.9845111370,        0.2578149438,-0.3421941102,-0.0924623981,110.3742599487,-22.5612354279,-36.5065460205
        1.9871411324,        0.2578149438,-0.3421941102,-0.0924623981,100.4865646362,-22.9732227325,-41.9844512939
        1.9898631573,        0.2578149438,-0.3421941102,-0.0924623981,100.4865646362,-22.9732227325,-41.9844512939
        1.9925761223,        0.2578149438,-0.3421941102,-0.0924623981,91.3770675659,-22.9884815216,-47.4165802002
        1.9952831268,        0.2607446313,-0.2777409852,-0.1178530231,91.3770675659,-22.9884815216,-47.4165802002
        1.9979920387,        0.2607446313,-0.2777409852,-0.1178530231,82.9389572144,-22.6070117950,-53.7184600830
        2.0006990433,        0.2607446313,-0.2777409852,-0.1178530231,82.9389572144,-22.6070117950,-53.7184600830
        2.0034050941,        0.2607446313,-0.2777409852,-0.1285952032,74.3177413940,-22.4391651154,-59.7151641846
        2.0061120987,        0.2631860375,-0.2377019227,-0.1285952032,74.3177413940,-22.4391651154,-59.7151641846
        2.0087740421,        0.2631860375,-0.2377019227,-0.1285952032,62.5989913940,-23.0189990997,-66.2611846924
        2.0113480091,        0.2631860375,-0.2377019227,-0.1285952032,63.9417648315,-23.0189990997,-66.2611846924
        2.0139210224,        0.2631860375,-0.2377019227,-0.1388491094,63.9417648315,-23.0189990997,-72.2121124268
        2.0164961815,        0.2622094750,-0.2479558289,-0.1388491094,52.5587081909,-23.4462451935,-72.2121124268
        2.0190730095,        0.2622094750,-0.2479558289,-0.1388491094,52.5587081909,-23.4462451935,-78.0409698486
        2.0216519833,        0.2622094750,-0.2479558289,-0.1388491094,39.7565841675,-24.5143604279,-78.0409698486
        2.0242280960,        0.2622094750,-0.2474675477,-0.1368959844,39.7565841675,-24.5143604279,-81.9472198486
        2.0268051624,        0.2431665063,-0.2474675477,-0.1368959844,25.3522872925,-25.5824756622,-84.2360382080
        2.0295131207,        0.2431665063,-0.2474675477,-0.1368959844,25.3522872925,-25.5824756622,-92.0485382080
        2.0322079659,        0.2431665063,-0.2474675477,-0.1368959844,11.2379074097,-26.2386035919,-89.8360137939
        2.0348961353,        0.2202172875,-0.2250066102,-0.1295717657,11.2379074097,-26.2386035919,-89.8360137939
        2.0375931263,        0.2202172875,-0.2250066102,-0.1295717657,-1.5184402466,-26.3606739044,-94.7188262939
        2.0403661728,        0.2202172875,-0.2250066102,-0.1295717657,-1.5184402466,-26.3606739044,-94.7188262939
        2.0430750847,        0.2202172875,-0.2250066102,-0.1295717657,-13.5728836060,-26.1317920685,-99.5253448486
        2.0458920002,        0.1904321313,-0.1922917664,-0.1198061481,-13.5728836060,-26.1317920685,-107.3378448486
        2.0485870838,        0.1904321313,-0.1922917664,-0.1198061481,-25.0322341919,-25.7503223419,-104.0724639893
        2.0513010025,        0.1904321313,-0.1922917664,-0.1198061481,-25.0322341919,-25.7503223419,-104.0724639893
        2.0540120602,        0.1904321313,-0.1922917664,-0.1207827106,-34.9504470825,-25.5061817169,-107.7345733643
        2.0567240715,        0.1762719750,-0.1297917664,-0.1207827106,-34.9504470825,-25.5061817169,-107.7345733643
        2.0593590736,        0.1762719750,-0.1297917664,-0.1207827106,-43.0070877075,-25.3841114044,-111.0762481689
        2.0619320869,        0.1762719750,-0.1297917664,-0.1207827106,-43.0070877075,-25.3841114044,-111.0762481689
        2.0646710396,        0.1762719750,-0.0668034852,-0.1007631794,-48.9580154419,-25.2162647247,-114.2805938721
        2.0676121712,        0.1650415063,-0.0668034852,-0.1007631794,-48.9580154419,-25.2162647247,-118.1868438721
        2.0703270435,        0.1650415063,-0.0668034852,-0.1007631794,-53.6424636841,-24.2091846466,-117.8206329346
        2.0730361938,        0.1650415063,-0.0668034852,-0.1007631794,-53.6424636841,-24.2091846466,-121.7268829346
        2.0757441521,        0.1362329125,-0.0394597352,-0.0939272419,-57.2282791138,-22.8969287872,-121.4827423096
        2.0783970356,        0.1362329125,-0.0394597352,-0.0939272419,-57.2282791138,-22.8969287872,-121.4827423096
        2.0809690952,        0.1362329125,-0.0394597352,-0.0939272419,-59.5933914185,-21.8898487091,-124.6718292236
        2.0835461617,        0.1362329125,-0.0394597352,-0.0939272419,-59.5933914185,-21.8898487091,-124.6718292236
        2.0861260891,        0.1245141625,-0.0067448914,-0.0841616169,-61.0277175903,-21.0048389435,-127.9982452393
        2.0888040066,        0.1245141625,-0.0067448914,-0.0841616169,-61.0277175903,-21.0048389435,-127.9982452393
        2.0915060043,        0.1245141625,-0.0067448914,-0.0841616169,-61.2413406372,-19.9062061310,-132.0570831299
        2.0942139626,        0.1245141625,-0.0067448914,-0.0841616169,-61.2413406372,-19.9062061310,-132.0570831299
        2.0969631672,        0.1084008813,0.0308527648,-0.0851381794,-60.0206375122,-18.4413623810,-135.6123809814
        2.0995371342,        0.1084008813,0.0308527648,-0.0851381794,-60.0206375122,-18.4413623810,-135.6123809814
        2.1021111012,        0.1084008813,0.0308527648,-0.0851381794,-57.9759597778,-17.6479053497,-139.3965606689
        2.1047990322,        0.1084008813,0.1558527648,-0.0690248981,-57.9759597778,-17.6479053497,-139.3965606689
        2.1074161530,        0.0908227563,0.0586847961,-0.0690248981,-55.7634353638,-16.8239307404,-142.8603057861
        2.1101090908,        0.0908227563,0.0586847961,-0.0690248981,-55.7634353638,-16.8239307404,-142.8603057861
        2.1126930714,        0.0908227563,0.0586847961,-0.0690248981,-52.4522781372,-15.7710742950,-146.3393096924
        2.1152720451,        0.0908227563,0.0865168273,-0.0597475544,-52.4522781372,-15.7710742950,-146.3393096924
        2.1180779934,        0.0644555688,0.0865168273,-0.0597475544,-49.2174148560,-14.5503711700,-149.5131378174
        2.1206569672,        0.0644555688,0.0865168273,-0.0597475544,-49.2174148560,-14.5503711700,-149.5131378174
        2.1232330799,        0.0644555688,0.0865168273,-0.0597475544,-46.1046218872,-13.9400196075,-152.4275665283
        2.1258101463,        0.0463891625,0.0928644836,-0.0475405231,-46.1046218872,-13.9400196075,-152.4275665283
        2.1286211014,        0.0463891625,0.0928644836,-0.0475405231,-43.4801101685,-13.2381153107,-155.8913116455
        2.1312980652,        0.0463891625,0.0928644836,-0.0475405231,-43.4801101685,-13.2381153107,-155.8913116455
        2.1342070103,        0.0463891625,0.0928644836,-0.0475405231,-41.8474197388,-12.5667285919,-158.5310821533
        2.1367840767,        0.0312524438,0.0845637023,-0.0587709919,-41.8474197388,-12.5667285919,-158.5310821533
        2.1394190788,        0.0312524438,0.0845637023,-0.0587709919,-41.8474197388,-11.6054248810,-161.0487823486
        2.1419970989,        0.0312524438,0.0845637023,-0.0587709919,-41.1149978638,-11.6054248810,-161.0487823486
        2.1445720196,        0.0312524438,0.0845637023,-0.0587709919,-41.1149978638,-10.6441211700,-162.6814727783
        2.1472110748,        0.0078149438,0.0791926086,-0.0553530231,-40.8861160278,-10.6441211700,-162.6814727783
        2.1497721672,        0.0078149438,0.0791926086,-0.0553530231,-40.8861160278,-10.6441211700,-164.3446807861
        2.1523420811,        0.0078149438,0.0791926086,-0.0553530231,-42.0000076294,-9.7133350372,-164.3446807861
        2.1549170017,        0.0078149438,0.0791926086,-0.0665834919,-42.0000076294,-9.7133350372,-164.3446807861
        2.1574959755,       -0.0019506812,0.0591730773,-0.0665834919,-44.5940017700,-8.8741016388,-166.1299591064
        2.1600620747,       -0.0019506812,0.0591730773,-0.0665834919,-44.5940017700,-8.8741016388,-166.1299591064
        2.1626350880,       -0.0019506812,0.0591730773,-0.0665834919,-48.0272293091,-8.0501270294,-167.3506622314
        2.1652030945,       -0.0019506812,0.0591730773,-0.0607241169,-48.0272293091,-8.0501270294,-167.3506622314
        2.1679611206,       -0.0175756812,0.0406183898,-0.0607241169,-52.3302078247,-7.3634815216,-168.9680938721
        2.1705331802,       -0.0175756812,0.0406183898,-0.0607241169,-52.3302078247,-7.3634815216,-168.9680938721
        2.1731061935,       -0.0175756812,0.0406183898,-0.0607241169,-58.0980300903,-6.2343311310,-170.9059600830
        2.1756851673,       -0.0175756812,0.0269465148,-0.0558413044,-58.0980300903,-6.2343311310,-170.9059600830
        2.1783721447,       -0.0439428687,0.0269465148,-0.0558413044,-64.7966384888,-5.3188037872,-172.4623565674
        2.1809511185,       -0.0439428687,0.0269465148,-0.0558413044,-64.7966384888,-5.3188037872,-172.4623565674
        2.1835310459,       -0.0439428687,0.0269465148,-0.0558413044,-71.2511062622,-4.2964649200,-173.5762481689
        2.1861081123,       -0.0468725562,0.0406183898,-0.0626772419,-71.2511062622,-4.2964649200,-173.5762481689
        2.1888711452,       -0.0468725562,0.0406183898,-0.0626772419,-77.2783279419,-4.2201709747,-174.6443634033
        2.1915831566,       -0.0468725562,0.0406183898,-0.0626772419,-77.2783279419,-4.2201709747,-174.6443634033
        2.1942870617,       -0.0468725562,0.0406183898,-0.0626772419,-83.6565017700,-3.3046436310,-176.6737823486
        2.1970081329,       -0.0639624000,0.0508722961,-0.0353334919,-83.6565017700,-3.3046436310,-176.6737823486
        2.1995911598,       -0.0639624000,0.0508722961,-0.0353334919,-88.9818191528,-2.3738574982,-177.9250030518
        2.2021691799,       -0.0639624000,0.0508722961,-0.0353334919,-88.9818191528,-2.3738574982,-177.9250030518
        2.2047531605,       -0.0639624000,0.0508722961,-0.0353334919,-92.8880691528,-1.5193653107,-179.2982940674
        2.2073471546,       -0.0825170875,0.0611262023,-0.0221498981,-93.6967849731,-1.5193653107,-179.2982940674
        2.2100620270,       -0.0825170875,0.0611262023,-0.0221498981,-97.4809646606,-1.0463428497,-181.1598663330
        2.2127959728,       -0.0825170875,0.0611262023,-0.0221498981,-97.4809646606,-1.0463428497,-181.1598663330
        2.2153720856,       -0.0825170875,0.0611262023,-0.0221498981,-97.4809646606,-0.4359912872,-182.4721221924
        2.2180240154,       -0.1225561500,0.0606379211,-0.0089663044,-98.9915847778,-0.4359912872,-182.4721221924
        2.2206959724,       -0.1225561500,0.0606379211,-0.0089663044,-98.9915847778,3.4702587128,-183.7386016846
        2.2235820293,       -0.1225561500,0.0606379211,-0.0089663044,-101.5550613403,0.0217723846,-183.7386016846
        2.2261581421,       -0.1225561500,0.0357355773,0.0115415081,-101.5550613403,0.6016063690,-185.0661163330
        2.2288060188,       -0.1489233375,0.0357355773,0.0115415081,-104.3779373169,0.6016063690,-185.0661163330
        2.2314941883,       -0.1489233375,0.0357355773,0.0115415081,-104.3779373169,0.6016063690,-186.3173370361
        2.2340631485,       -0.1489233375,0.0357355773,0.0115415081,-107.3381423950,0.9983348846,-186.3173370361
        2.2366290092,       -0.1733374000,0.0215754211,0.0300961956,-107.3381423950,0.9983348846,-187.0497589111
        2.2392029762,       -0.1733374000,0.0215754211,0.0300961956,-110.3136062622,1.7460155487,-187.0497589111
        2.2417750359,       -0.1733374000,0.0215754211,0.0300961956,-110.3136062622,1.7460155487,-187.0497589111
        2.2443451881,       -0.1733374000,0.0215754211,0.0300961956,-113.2890701294,2.2953319550,-187.6448516846
        2.2469179630,       -0.1767553687,0.0245051086,0.0471860394,-113.2890701294,2.2953319550,-187.6448516846
        2.2495350838,       -0.1767553687,0.0245051086,0.0471860394,-116.2797927856,2.6920604706,-188.4535675049
        2.2521061897,       -0.1767553687,0.0245051086,0.0471860394,-116.2797927856,2.6920604706,-188.4535675049
        2.2546761036,       -0.1767553687,0.0245051086,0.0471860394,-118.0345535278,3.0124950409,-188.9723663330
        2.2572891712,       -0.1748022437,0.0171808898,0.0506040081,-118.0345535278,3.0124950409,-188.9723663330
        2.2598590851,       -0.1748022437,0.0171808898,0.0506040081,-119.8198318481,2.0664501190,-189.0334014893
        2.2624261379,       -0.1748022437,0.0171808898,0.0506040081,-119.8198318481,2.0664501190,-189.0334014893
        2.2649950981,       -0.1748022437,0.0171808898,0.0506040081,-121.6051101685,1.8528270721,-189.7353057861
        2.2676150799,       -0.1840795875,0.0220637023,0.0725766644,-121.6051101685,1.8528270721,-189.7353057861
        2.2701921463,       -0.1840795875,0.0220637023,0.0725766644,-122.3527908325,2.2800731659,-189.8573760986
        2.2727701664,       -0.1840795875,0.0220637023,0.0725766644,-122.3527908325,2.2800731659,-189.8573760986
        2.2753641605,       -0.1840795875,0.0220637023,0.0725766644,-122.3527908325,2.0817089081,-189.6895294189
        2.2780101299,       -0.2006811500,0.0293879211,0.0711118206,-122.6884841919,2.0817089081,-189.6895294189
        2.2807180882,       -0.2006811500,0.0293879211,0.0711118206,-122.6884841919,1.6392040253,-190.3303985596
        2.2834231853,       -0.2006811500,0.0293879211,0.0711118206,-121.9102859497,1.6392040253,-190.3303985596
        2.2861301899,       -0.2006811500,0.0293879211,0.0676938519,-121.9102859497,2.3716259003,-190.5897979736
        2.2888779640,       -0.2138647437,0.0332941711,0.0676938519,-120.7201004028,2.3716259003,-190.5897979736
        2.2915811539,       -0.2138647437,0.0332941711,0.0676938519,-120.7201004028,2.7378368378,-190.6050567627
        2.2943971157,       -0.2138647437,0.0332941711,0.0676938519,-119.7435379028,2.7378368378,-190.6050567627
        2.2971069813,       -0.2138647437,0.0357355773,0.0593930706,-119.7435379028,3.4092235565,-190.6355743408
        2.2996861935,       -0.2241186500,0.0357355773,0.0593930706,-119.1026687622,3.4092235565,-190.6355743408
        2.3022651672,       -0.2241186500,0.0357355773,0.0593930706,-119.1026687622,7.3154735565,-190.5287628174
        2.3048391342,       -0.2241186500,0.0357355773,0.0593930706,-117.0885086060,4.4620800018,-190.5287628174
        2.3074791431,       -0.2294897437,0.0469660461,0.0393735394,-117.0885086060,4.4620800018,-190.1015167236
        2.3101890087,       -0.2294897437,0.0469660461,0.0393735394,-114.7996902466,5.1792430878,-190.1015167236
        2.3128941059,       -0.2294897437,0.0469660461,0.0393735394,-114.7996902466,5.1792430878,-189.4759063721
        2.3156001568,       -0.2294897437,0.0469660461,0.0393735394,-112.4956130981,6.1710643768,-189.4759063721
        2.3183190823,       -0.2485327125,0.0435480773,0.0613461956,-112.4956130981,6.1710643768,-188.3772735596
        2.3210320473,       -0.2485327125,0.0435480773,0.0613461956,-110.1762771606,6.3541698456,-188.3772735596
        2.3237431049,       -0.2485327125,0.0435480773,0.0613461956,-110.1762771606,6.3541698456,-187.2328643799
        2.3264491558,       -0.2485327125,0.0435480773,0.0613461956,-107.0940017700,6.4152050018,-187.2328643799
        2.3291711807,       -0.2416967750,0.0787043273,0.0354672894,-107.0940017700,6.4152050018,-186.3173370361
        2.3318781853,       -0.2416967750,0.0787043273,0.0354672894,-102.3180007935,7.0102977753,-186.3173370361
        2.3347029686,       -0.2416967750,0.0787043273,0.0354672894,-102.3180007935,7.0102977753,-184.2421417236
        2.3378582001,       -0.2250952125,0.0879816711,0.0217954144,-94.9937820435,7.9105663300,-184.2421417236
        2.3405711651,       -0.2250952125,0.0879816711,0.0217954144,-94.9937820435,8.5056591034,-182.7010040283
        2.3432819843,       -0.2250952125,0.0879816711,0.0217954144,-87.5780105591,8.5056591034,-182.7010040283
        2.3459880352,       -0.2250952125,0.0879816711,0.0217954144,-87.5780105591,8.8871288300,-180.8699493408
        2.3486280441,       -0.2250952125,0.0777277648,0.0164243206,-81.3066482544,8.8871288300,-180.8699493408
        2.3512029648,       -0.2250952125,0.0777277648,0.0164243206,-81.3066482544,8.8871288300,-179.3440704346
        2.3537790775,       -0.2250952125,0.0777277648,0.0164243206,-74.3028640747,9.4669628143,-179.3440704346
        2.3563501835,       -0.2250952125,0.0777277648,0.0164243206,-74.3028640747,9.4669628143,-177.7724151611
        2.3591830730,       -0.2309545875,0.0581965148,0.0169126019,-67.1007156372,10.2604198456,-177.7724151611
        2.3618841171,       -0.2309545875,0.0581965148,0.0169126019,-67.1007156372,10.2604198456,-175.8803253174
        2.3645889759,       -0.2309545875,0.0581965148,0.0169126019,-60.9666824341,10.6571483612,-175.8803253174
        2.3672940731,       -0.2309545875,0.0581965148,0.0154477581,-60.9666824341,10.6571483612,-173.5609893799
        2.3698689938,       -0.2158178687,0.0547785461,0.0154477581,-55.1836013794,11.2369823456,-173.5609893799
        2.3724460602,       -0.2158178687,0.0547785461,0.0154477581,-55.1836013794,11.2369823456,-173.5609893799
        2.3750221729,       -0.2158178687,0.0547785461,0.0154477581,-49.9193191528,11.7100048065,-170.8754425049
        2.3776581287,       -0.2158178687,0.0650324523,0.0188657269,-49.9193191528,11.7100048065,-170.8754425049
        2.3802289963,       -0.1699194312,0.0650324523,0.0188657269,-44.9144363403,10.9318065643,-168.0525665283
        2.3828041553,       -0.1699194312,0.0650324523,0.0188657269,-44.9144363403,10.9318065643,-168.0525665283
        2.3853750229,       -0.1699194312,0.0650324523,0.0188657269,-39.1160964966,10.2299022675,-164.8329620361
        2.3879940510,       -0.0449194312,0.0982355773,0.0305844769,-39.1160964966,10.2299022675,-164.8329620361
        2.3905651569,       -0.1323217750,0.0982355773,0.0305844769,-32.8142166138,9.1465282440,-160.8809356689
        2.3931391239,       -0.1323217750,0.0982355773,0.0305844769,-32.8142166138,9.1465282440,-160.8809356689
        2.3957180977,       -0.1323217750,0.0982355773,0.0305844769,-27.5041580200,7.8953075409,-156.2880401611
        2.3985011578,       -0.0961889625,0.1099543273,0.0466977581,-27.5041580200,7.8953075409,-156.2880401611
        2.4011931419,       -0.0961889625,0.1099543273,0.0466977581,-22.6366043091,6.3083934784,-152.6717071533
        2.4038870335,       -0.0961889625,0.1099543273,0.0466977581,-22.6366043091,6.3083934784,-152.6717071533
        2.4065761566,       -0.0961889625,0.1099543273,0.0466977581,-18.0742263794,4.0958690643,-148.7196807861
        2.4092760086,       -0.0488256812,0.1123957336,0.0457211956,-18.0742263794,4.0958690643,-148.7196807861
        2.4119629860,       -0.0488256812,0.1123957336,0.0457211956,-14.4578933716,1.9138622284,-144.3251495361
        2.4146499634,       -0.0488256812,0.1123957336,0.0457211956,-14.4578933716,1.9138622284,-144.3251495361
        2.4176039696,       -0.0488256812,0.1123957336,0.0452329144,-10.7500076294,-0.4817676544,-139.7322540283
        2.4202680588,       -0.0175756812,0.1123957336,0.0452329144,-10.7500076294,-0.4817676544,-139.7322540283
        2.4238309860,       -0.0175756812,0.1123957336,0.0452329144,-6.6301345825,-3.0147266388,-134.3764190674
        2.4265460968,       -0.0175756812,0.1123957336,0.0452329144,-6.6301345825,-3.0147266388,-134.3764190674
        2.4292759895,       -0.0053686500,0.1475519836,0.0237485394,-2.2203445435,-6.0512256622,-127.8609161377
        2.4319829941,       -0.0053686500,0.1475519836,0.0237485394,-2.2203445435,-6.0512256622,-127.8609161377
        2.4346899986,       -0.0053686500,0.1475519836,0.0237485394,3.8221359253,-7.9127979279,-121.5285186768
        2.4374020100,       -0.0053686500,0.1475519836,0.0237485394,3.8221359253,-7.9127979279,-121.5285186768
        2.4401099682,        0.0273461938,0.2310480773,-0.0011538044,11.5278244019,-9.9116992950,-115.0587921143
        2.4428210258,        0.0273461938,0.2310480773,-0.0011538044,11.5278244019,-9.9116992950,-115.0587921143
        2.4455280304,        0.0273461938,0.2310480773,-0.0011538044,20.1032638550,-12.1547412872,-107.9481964111
        2.4482831955,        0.0273461938,0.2539972961,-0.0319155231,20.1032638550,-12.1547412872,-107.9481964111
        2.4509930611,        0.0512719750,0.2539972961,-0.0319155231,28.4955978394,-14.0010547638,-100.9901885986
        2.4537031651,        0.0512719750,0.2539972961,-0.0319155231,28.4955978394,-14.0010547638,-100.9901885986
        2.4564080238,        0.0512719750,0.2539972961,-0.0319155231,36.3080978394,-15.5116748810,-93.9101104736
        2.4590361118,        0.0410180688,0.2354426086,-0.0587709919,36.3080978394,-15.5116748810,-93.9101104736
        2.4616091251,        0.0410180688,0.2354426086,-0.0587709919,42.1979904175,-15.4964160919,-87.1199493408
        2.4641900063,        0.0410180688,0.2354426086,-0.0587709919,42.1979904175,-15.4964160919,-87.1199493408
        2.4667651653,        0.0410180688,0.2354426086,-0.0587709919,45.7838058472,-14.4588184357,-79.5668487549
        2.4694859982,        0.0161157250,0.1856379211,-0.0895327106,45.7838058472,-14.4588184357,-79.5668487549
        2.4720730782,        0.0161157250,0.1856379211,-0.0895327106,47.3249435425,-12.2310352325,-71.3118438721
        2.4746520519,        0.0161157250,0.1856379211,-0.0895327106,47.3249435425,-12.2310352325,-71.3118438721
        2.4773750305,        0.0161157250,0.1856379211,-0.0895327106,47.2791671753,-9.1029834747,-62.3701934814
        2.4800901413,        0.0078149438,0.1519465148,-0.1207827106,47.2791671753,-9.1029834747,-62.3701934814
        2.4828031063,        0.0078149438,0.1519465148,-0.1207827106,44.3952560425,-6.1427783966,-52.9097442627
        2.4855091572,        0.0078149438,0.1519465148,-0.1207827106,44.3952560425,-6.1427783966,-52.9097442627
        2.4882080555,        0.0078149438,0.1519465148,-0.1378725469,40.4737472534,-2.7248096466,-42.7626495361
        2.4908931255,       -0.0024389625,0.1626887023,-0.1378725469,40.4737472534,-2.7248096466,-42.7626495361
        2.4934761524,       -0.0024389625,0.1626887023,-0.1378725469,35.1331710815,0.5558300018,-31.8831348419
        2.4960470200,       -0.0024389625,0.1626887023,-0.1378725469,35.1331710815,0.5558300018,-31.8831348419
        2.4987089634,       -0.0024389625,0.1788019836,-0.1368959844,29.9146652222,3.1803417206,-21.6902637482
        2.5014200211,        0.0229516625,0.1788019836,-0.1368959844,29.9146652222,3.1803417206,-21.6902637482
        2.5041170120,        0.0229516625,0.1788019836,-0.1368959844,24.8640060425,5.8201122284,-11.1159229279
        2.5068280697,        0.0229516625,0.1788019836,-0.1368959844,24.8640060425,5.8201122284,-11.1159229279
        2.5095491409,        0.0366235375,0.1895441711,-0.1178530231,20.6830978394,7.7122020721,-0.9840869904
        2.5122551918,        0.0366235375,0.1895441711,-0.1178530231,20.6830978394,7.7122020721,-0.9840869904
        2.5149621964,        0.0366235375,0.1895441711,-0.1178530231,16.7768478394,8.9634227753,8.2322216034
        2.5176820755,        0.0366235375,0.1895441711,-0.1178530231,17.3871994019,8.9634227753,8.2322216034
        2.5203881264,        0.0400415063,0.1875910461,-0.0880678669,17.3871994019,9.8179149628,16.1210155487
        2.5230941772,        0.0400415063,0.1875910461,-0.0880678669,15.0068283081,9.8179149628,16.1210155487
        2.5257961750,        0.0400415063,0.1875910461,-0.0880678669,11.1005783081,10.7487010956,23.7961864471
        2.5285141468,        0.0400415063,0.1875910461,-0.0768373981,11.6498947144,10.7487010956,23.7961864471
        2.5312170982,        0.0527368188,0.1587824523,-0.0768373981,7.7436447144,11.6642284393,31.3187694550
        2.5340061188,        0.0527368188,0.1587824523,-0.0768373981,8.8727951050,11.6642284393,31.3187694550
        2.5371091366,        0.0527368188,0.1587824523,-0.0768373981,4.2188644409,12.2135448456,38.3988494873
        2.5396850109,        0.0561547875,0.1299738586,-0.0519350544,4.2188644409,12.2135448456,38.3988494873
        2.5422570705,        0.0561547875,0.1299738586,-0.0519350544,-0.4655838013,12.3813915253,45.9672088623
        2.5448269844,        0.0561547875,0.1299738586,-0.0519350544,-0.4655838013,12.3813915253,45.9672088623
        2.5474650860,        0.0561547875,0.1299738586,-0.0519350544,-4.3718338013,12.5492382050,53.7034149170
        2.5501801968,        0.0371118188,0.1236262023,-0.0250795856,-5.4399490356,12.5492382050,53.7034149170
        2.5528821945,        0.0371118188,0.1236262023,-0.0250795856,-13.2524490356,12.0304393768,60.5698699951
        2.5556950569,        0.0371118188,0.1236262023,-0.0250795856,-10.6889724731,12.0304393768,60.5698699951
        2.5584030151,        0.0371118188,0.1236262023,-0.0250795856,-14.5952224731,7.8190135956,59.5170135498
        2.5611050129,        0.0341821313,-0.1097722352,0.1502133906,-15.2818679810,7.8190135956,59.5170135498
        2.5638101101,        0.0341821313,-0.1097722352,0.1502133906,-23.0943679810,1.1204051971,55.3208465576
        2.5665111542,        0.0341821313,-0.1097722352,0.1502133906,-23.8115310669,1.1204051971,55.3208465576
        2.5691499710,        0.0341821313,-0.3597722352,0.1946469843,-23.8115310669,1.4408397675,56.2821502686
        2.5717260838,       -0.0219702125,-0.4501042664,0.1946469843,-29.3809890747,1.4408397675,56.2821502686
        2.5743041039,       -0.0219702125,-0.4501042664,0.1946469843,-29.3809890747,1.4408397675,53.4745330811
        2.5768799782,       -0.0219702125,-0.4501042664,0.1946469843,-25.8867263794,-0.5580615997,53.4745330811
        2.5794641972,       -0.0219702125,-0.9813542366,0.1707212031,-25.8867263794,-0.5580615997,41.7557830811
        2.5820400715,       -0.0605444312,-0.9813542366,0.1707212031,-29.2894363403,-1.2141895294,44.2429656982
        2.5846211910,       -0.0605444312,-0.9813542366,0.1707212031,-29.2894363403,-1.2141895294,44.2429656982
        2.5873770714,       -0.0605444312,-0.9813542366,0.1707212031,-29.3046951294,3.9585399628,37.2849578857
        2.5899491310,       -0.2412084937,-1.1019597054,-0.2413881719,-29.3046951294,3.9585399628,37.2849578857
        2.5925281048,       -0.2412084937,-1.1019597054,-0.2413881719,-25.0780105591,9.3906688690,34.9045867920
        2.5951020718,       -0.2412084937,-1.1019597054,-0.2413881719,-25.0780105591,9.3906688690,34.9045867920
        2.5978090763,       -0.2412084937,-1.1019597054,-0.2413881719,-35.8507156372,12.7018260956,38.5361785889
        2.6005091667,       -0.1977514625,-0.6258854866,-0.3790834844,-35.8507156372,12.7018260956,38.5361785889
        2.6032149792,       -0.1977514625,-0.6258854866,-0.3790834844,-56.7399978638,13.5258007050,46.4707489014
        2.6059260368,       -0.1977514625,-0.6258854866,-0.3790834844,-56.7399978638,13.5258007050,46.4707489014
        2.6086750031,       -0.1977514625,-0.6258854866,-0.3790834844,-71.1290359497,14.3650341034,55.8549041748
        2.6113791466,       -0.1796850562,-0.1810612977,-0.2321108282,-71.1290359497,14.3650341034,55.8549041748
        2.6140890121,       -0.1796850562,-0.1810612977,-0.2321108282,-76.8358230591,14.9296092987,64.3387908936
        2.6167910099,       -0.1796850562,-0.1810612977,-0.2321108282,-76.8358230591,14.9296092987,64.3387908936
        2.6194951534,       -0.1796850562,-0.1810612977,-0.0153139606,-78.6668777466,13.2511425018,70.9916229248
        2.6220710278,       -0.2211889625,0.0318293273,-0.0153139606,-78.6668777466,13.2511425018,70.9916229248
        2.6246411800,       -0.2211889625,0.0318293273,-0.0153139606,-74.9742507935,9.6958446503,75.1572723389
        2.6272749901,       -0.2211889625,0.0318293273,-0.0153139606,-74.9742507935,9.6958446503,75.1572723389
        2.6299760342,       -0.2211889625,0.0020441711,0.0115415081,-62.9503250122,5.5149364471,78.0259246826
        2.6326770782,       -0.2377905250,0.0020441711,0.0115415081,-62.9503250122,5.5149364471,78.0259246826
        2.6353871822,       -0.2377905250,0.0020441711,0.0115415081,-45.3569412231,2.9209423065,79.8112030029
        2.6381051540,       -0.2377905250,0.0020441711,0.0115415081,-45.3569412231,2.9209423065,79.8112030029
        2.6408910751,       -0.2084936500,-0.0096745789,-0.1329897344,-28.7401199341,2.0817089081,80.1163787842
        2.6435840130,       -0.2084936500,-0.0096745789,-0.1329897344,-28.7401199341,2.0817089081,80.1163787842
        2.6462700367,       -0.2084936500,-0.0096745789,-0.1329897344,-18.2268142700,0.9067821503,78.7736053467
        2.6489591599,       -0.2084936500,-0.0096745789,-0.1329897344,-18.2268142700,0.9067821503,78.7736053467
        2.6517260075,       -0.0937475562,-0.0526433289,-0.1320131719,-14.6409988403,-1.5956592560,75.7065887451
        2.6545970440,       -0.0937475562,-0.0526433289,-0.1320131719,-14.6409988403,-1.5956592560,75.7065887451
        2.6576871872,       -0.0937475562,-0.0526433289,-0.1320131719,-15.7091140747,-5.0594043732,71.5714569092
        2.6604790688,        0.0312524438,-0.1258855164,-0.0079897419,-15.7091140747,-5.0594043732,71.5714569092
        2.6631760597,       -0.0043920875,-0.1258855164,-0.0079897419,-19.0355300903,-8.0348682404,67.2989959717
        2.6658730507,       -0.0043920875,-0.1258855164,-0.0079897419,-19.0355300903,-8.0348682404,67.2989959717
        2.6685080528,       -0.0043920875,-0.1258855164,-0.0079897419,-21.6447830200,-8.8741016388,63.5605926514
        2.6711981297,       -0.0029272437,-0.1312566102,0.0359555706,-21.6447830200,-8.8741016388,63.5605926514
        2.6737740040,       -0.0029272437,-0.1312566102,0.0359555706,-23.2316970825,-7.9127979279,60.4630584717
        2.6763570309,       -0.0029272437,-0.1312566102,0.0359555706,-23.2316970825,-7.9127979279,60.4630584717
        2.6790549755,       -0.0029272437,-0.1312566102,0.0359555706,-26.0698318481,-7.6076221466,58.4488983154
        2.6817901134,       -0.0385717750,-0.1170964539,0.0383969769,-26.0698318481,-7.6076221466,58.4488983154
        2.6846220493,       -0.0385717750,-0.1170964539,0.0383969769,-31.3188552856,-8.3247852325,57.0450897217
        2.6873350143,       -0.0385717750,-0.1170964539,0.0383969769,-31.3188552856,-8.3247852325,57.0450897217
        2.6899061203,       -0.0385717750,-0.1170964539,0.0383969769,-35.4692459106,-8.8893604279,56.1600799561
        2.6924932003,       -0.0468725562,-0.0785222352,0.0672055706,-35.4692459106,-8.8893604279,56.1600799561
        2.6950631142,       -0.0468725562,-0.0785222352,0.0672055706,-36.9035720825,-9.6217823029,54.9698944092
        2.6976840496,       -0.0468725562,-0.0785222352,0.0672055706,-36.9035720825,-9.6217823029,54.9698944092
        2.7002589703,       -0.0468725562,-0.0785222352,0.1341001093,-35.8049392700,-10.0948047638,53.6728973389
        2.7028369904,       -0.0527319312,0.0010676086,0.1341001093,-35.8049392700,-10.0948047638,53.6728973389
        2.7054171562,       -0.0527319312,0.0010676086,0.1341001093,-31.8986892700,-10.5373096466,51.8265838623
        2.7081511021,       -0.0527319312,0.0010676086,0.1341001093,-31.6240310669,-10.5373096466,51.8265838623
        2.7107310295,       -0.0527319312,0.0889582336,0.2049008906,-31.6240310669,-10.7967090607,49.5377655029
        2.7133131027,       -0.0424780250,0.0889582336,0.2049008906,-24.8338699341,-10.7967090607,49.5377655029
        2.7158930302,       -0.0424780250,0.0889582336,0.2049008906,-24.8338699341,-10.7967090607,46.0129852295
        2.7185831070,       -0.0424780250,0.0889582336,0.2049008906,-18.3183670044,-11.4070606232,46.0129852295
        2.7211601734,       -0.0273413062,0.0962824523,0.2166196406,-18.3183670044,-11.4070606232,41.7557830811
        2.7238869667,       -0.0273413062,0.0962824523,0.2166196406,-11.7113113403,-11.6054248810,41.7557830811
        2.7264599800,       -0.0273413062,0.0962824523,0.2166196406,-11.7113113403,-11.6054248810,37.2391815186
        2.7292010784,       -0.0273413062,0.0962824523,0.2166196406,-4.5244216919,-9.4997119904,37.2391815186
        2.7318661213,       -0.0073217750,0.0186457336,0.0950376019,4.4477462769,-7.4702930450,32.8293914795
        2.7354121208,       -0.0073217750,0.0186457336,0.0950376019,4.4477462769,-7.4702930450,32.8293914795
        2.7380549908,       -0.0073217750,0.0186457336,0.0950376019,12.2602462769,-5.1662158966,28.3585643768
        2.7406330109,       -0.0073217750,0.0186457336,-0.0299623981,12.4280929565,-5.1662158966,28.3585643768
        2.7432081699,        0.0039086938,-0.0550847352,-0.0299623981,12.4280929565,-5.1662158966,24.9405956268
        2.7457811832,        0.0039086938,-0.0550847352,-0.0299623981,16.1054611206,-4.8915576935,24.9405956268
        2.7485201359,        0.0039086938,-0.0550847352,-0.0299623981,16.1054611206,-4.8915576935,21.9956493378
        2.7510950565,        0.0039086938,-0.0267644227,-0.0441225544,17.0667648315,-5.3340625763,21.9956493378
        2.7536730766,        0.0205102563,-0.0267644227,-0.0441225544,17.0667648315,-5.3340625763,18.0893993378
        2.7562420368,        0.0205102563,-0.0267644227,-0.0441225544,17.9975509644,-6.5547657013,19.3558788300
        2.7588300705,        0.0205102563,-0.0267644227,-0.0441225544,17.9975509644,-6.5547657013,19.3558788300
        2.7614140511,        0.0205102563,-0.0238347352,0.0169126019,21.5681076050,-7.1345996857,15.6174755096
        2.7639839649,       -0.0063452125,-0.0238347352,0.0169126019,21.5681076050,-7.1345996857,15.6174755096
        2.7665569782,       -0.0063452125,-0.0238347352,0.0169126019,26.0541915894,-6.9057178497,11.1313915253
        2.7691791058,       -0.0063452125,-0.0238347352,0.0169126019,26.0541915894,-6.9057178497,11.1313915253
        2.7717549801,       -0.0126928687,-0.0858464539,0.0086118206,30.5707931519,-7.6686573029,7.1793651581
        2.7743291855,       -0.0126928687,-0.0858464539,0.0086118206,30.5707931519,-7.6686573029,7.1793651581
        2.7769010067,       -0.0126928687,-0.0858464539,0.0086118206,33.1342697144,-7.8822803497,4.3717479706
        2.7795510292,       -0.0126928687,-0.0858464539,0.0086118206,33.1342697144,-7.8822803497,4.3717479706
        2.7821371555,        0.0053735375,-0.1170964539,-0.0094545856,33.0121994019,-8.2179737091,2.1744823456
        2.7847170830,        0.0053735375,-0.1170964539,-0.0094545856,33.0121994019,-8.2179737091,2.1744823456
        2.7874071598,        0.0053735375,-0.1170964539,-0.0094545856,30.4639816284,-8.9503955841,0.0992870331
        2.7901191711,        0.0053735375,-0.1170964539,-0.0094545856,30.4639816284,-8.9503955841,0.0992870331
        2.7928240299,        0.0180688500,-0.1239323914,0.0003110394,27.2443771362,-9.0114307404,-0.5110645294
        2.7955350876,        0.0180688500,-0.1239323914,0.0003110394,27.2443771362,-9.0114307404,-0.5110645294
        2.7982831001,        0.0180688500,-0.1239323914,0.0003110394,23.1245040894,-8.7215137482,-1.5334033966
        2.8009920120,        0.0180688500,-0.1239323914,0.0193540081,23.1245040894,-8.7215137482,-1.5334033966
        2.8037049770,        0.0112329125,-0.1327214539,0.0193540081,18.9283370972,-9.6675586700,-2.7388477325
        2.8064141273,        0.0112329125,-0.1327214539,0.0193540081,18.9283370972,-9.6675586700,-2.7388477325
        2.8091340065,        0.0112329125,-0.1327214539,0.0193540081,14.5338058472,-9.6370410919,-3.1966114044
        2.8119561672,        0.0112329125,-0.1498112977,0.0208188519,14.5338058472,-9.6370410919,-3.1966114044
        2.8146650791,        0.0087915063,-0.1498112977,0.0208188519,9.5289230347,-10.1100635529,-3.0745410919
        2.8173580170,        0.0087915063,-0.1498112977,0.0208188519,9.5289230347,-10.1100635529,-3.0745410919
        2.8199410439,        0.0087915063,-0.1498112977,0.0208188519,4.6003341675,-10.4915332794,-2.5710010529
        2.8225221634,        0.0083032250,-0.1532292664,0.0305844769,4.6003341675,-10.4915332794,-2.5710010529
        2.8251020908,        0.0083032250,-0.1532292664,0.0305844769,0.6940841675,-10.8272266388,-2.0979785919
        2.8277280331,        0.0083032250,-0.1532292664,0.0305844769,-0.4045486450,-10.8272266388,-2.0979785919
        2.8304281235,        0.0083032250,-0.1532292664,0.0305844769,-0.4045486450,-10.6746387482,-2.4031543732
        2.8331329823,        0.0083032250,-0.1419987977,0.0359555706,-4.3870925903,-10.6746387482,-2.4031543732
        2.8358399868,        0.0083032250,-0.1419987977,0.0359555706,-4.3870925903,-9.8811817169,-3.0592823029
        2.8385651112,        0.0083032250,-0.1419987977,0.0359555706,-6.4012527466,-9.8811817169,-3.0592823029
        2.8412721157,        0.0083032250,-0.1419987977,0.0359555706,-6.4012527466,-8.9961719513,-3.5017871857
        2.8442530632,        0.0166040063,-0.1332097352,0.0452329144,-6.0045242310,-8.9961719513,-3.5017871857
        2.8473451138,        0.0166040063,-0.1332097352,0.0452329144,-4.4786453247,-8.9961719513,-4.2342090607
        2.8500599861,        0.0166040063,-0.1332097352,0.0452329144,-4.4786453247,-8.9961719513,-4.2342090607
        2.8527691364,        0.0263696313,-0.1185612977,0.0559751019,-3.1969070435,-8.5841846466,-5.7906055450
        2.8554761410,        0.0263696313,-0.1185612977,0.0559751019,-3.1969070435,-8.5841846466,-5.7906055450
