time, acceleration x, acceleration y, acceleration z, gyro x gyro y, gyro z
        0.0000000000,        0.1221184134,0.0065426975,0.0154333226,-6.1720638275,3.9744453430,-43.3187675476
        0.0032620430,        0.1221184134,0.0065426975,0.0261755101,-6.1720638275,3.9744453430,-42.7694511414
        0.0058171749,        0.1284660697,0.0207028538,0.0261755101,-7.4538021088,4.2185859680,-42.7694511414
        0.0084631443,        0.1284660697,0.0207028538,0.0261755101,-7.4538021088,4.2185859680,-42.7694511414
        0.0110070705,        0.1284660697,0.0207028538,0.0261755101,-7.3317317963,4.1575508118,-42.2506523132
        0.0135631561,        0.1284660697,0.0207028538,0.0237341039,-7.3317317963,4.1575508118,-42.2506523132
        0.0161221027,        0.1299309134,0.0128903538,0.0237341039,-6.6603450775,4.6000556946,-41.6708183289
        0.0186841488,        0.1299309134,0.0128903538,0.0237341039,-6.6603450775,4.6000556946,-41.6708183289
        0.0212399960,        0.1299309134,0.0128903538,0.0237341039,-5.7448177338,5.3477363586,-40.4043388367
        0.0237951279,        0.1299309134,0.0128903538,0.0276403539,-5.7448177338,5.3477363586,-40.4043388367
        0.0263462067,        0.1235832572,-0.0061526150,0.0276403539,-5.6990413666,5.8512763977,-39.1836357117
        0.0289001465,        0.1235832572,-0.0061526150,0.0276403539,-5.6990413666,5.8512763977,-39.1836357117
        0.0314550400,        0.1235832572,-0.0061526150,0.0276403539,-4.8903255463,6.2327461243,-38.0544853210
        0.0340201855,        0.1235832572,0.0197262913,0.0291051976,-4.8903255463,6.2327461243,-38.0544853210
        0.0367310047,        0.1250481009,0.0197262913,0.0291051976,-4.2799739838,5.8055000305,-37.5204277039
        0.0393061638,        0.1250481009,0.0197262913,0.0291051976,-4.2799739838,5.8055000305,-37.5204277039
        0.0418720245,        0.1250481009,0.0197262913,0.0291051976,-4.2799739838,5.8055000305,-37.5509452820
        0.0444431305,        0.1250481009,0.0470700413,0.0061559789,-3.6848812103,5.8055000305,-37.5509452820
        0.0470759869,        0.1406731009,0.0470700413,0.0061559789,-3.6848812103,5.8055000305,-37.0016288757
        0.0496451855,        0.1406731009,0.0470700413,0.0061559789,-2.3421077728,5.9580879211,-37.0016288757
        0.0523710251,        0.1406731009,0.0470700413,0.0061559789,-2.3421077728,5.9580879211,-36.8795585632
        0.0549449921,        0.1450676322,0.0456051975,0.0027380101,-1.3502864838,6.3700752258,-36.8795585632
        0.0577239990,        0.1450676322,0.0456051975,0.0027380101,-1.3502864838,6.3700752258,-36.8490409851
        0.0604131222,        0.1450676322,0.0456051975,0.0027380101,-1.1366634369,6.4158515930,-36.8490409851
        0.0631031990,        0.1450676322,0.0456051975,0.0027380101,-1.1366634369,6.4158515930,-37.0321464539
        0.0657920837,        0.1235832572,0.0358395725,0.0217809789,-1.1671810150,5.8055000305,-37.0321464539
        0.0685241222,        0.1235832572,0.0358395725,0.0217809789,-1.1671810150,5.8055000305,-36.8795585632
        0.0712161064,        0.1235832572,0.0358395725,0.0217809789,-0.3584651947,5.6834297180,-36.8795585632
        0.0739021301,        0.1235832572,0.0358395725,0.0095739476,-0.3584651947,5.6834297180,-36.4065361023
        0.0766069889,        0.1245598197,0.0304684788,0.0095739476,-0.3432064056,5.8817939758,-36.4065361023
        0.0792942047,        0.1245598197,0.0304684788,0.0095739476,-0.3432064056,5.8817939758,-35.5673027039
        0.0819840431,        0.1245598197,0.0304684788,0.0095739476,-0.2211360931,6.4463691711,-35.5673027039
        0.0846681595,        0.1245598197,0.0226559788,-0.0011682399,-0.2211360931,6.4463691711,-34.2550468445
        0.0873701572,        0.1279777884,0.0226559788,-0.0011682399,-0.8772640228,6.7820625305,-34.2550468445
        0.0900561810,        0.1279777884,0.0226559788,-0.0011682399,-0.8772640228,6.7820625305,-30.3487968445
        0.0927422047,        0.1279777884,0.0226559788,-0.0011682399,-2.0064144135,6.5684394836,-32.9427909851
        0.0954291821,        0.1323723197,0.0343747288,0.0027380101,-2.0064144135,6.5684394836,-32.9427909851
        0.0981271267,        0.1323723197,0.0343747288,0.0027380101,-2.7083187103,6.6752510071,-31.4779472351
        0.1008141041,        0.1323723197,0.0343747288,0.0027380101,-2.7083187103,6.6752510071,-27.5716972351
        0.1035001278,        0.1323723197,0.0343747288,0.0027380101,-2.8761653900,6.7973213196,-29.1738700867
        0.1062281132,        0.1255363822,-0.0002932400,0.0227575414,-2.8761653900,6.7973213196,-29.1738700867
        0.1088960171,        0.1255363822,-0.0002932400,0.0227575414,-3.8985042572,7.1330146790,-28.0752372742
        0.1116399765,        0.1255363822,-0.0002932400,0.0227575414,-3.8985042572,7.1330146790,-28.0752372742
        0.1144351959,        0.1255363822,-0.0002932400,0.0647497326,-4.1884212494,7.6518135071,-27.4954032898
        0.1172611713,        0.0898918509,-0.0222658962,0.0647497326,-4.1884212494,7.6518135071,-27.4954032898
        0.1199641228,        0.0898918509,-0.0222658962,0.0647497326,-3.8222103119,7.9417304993,-26.6256523132
        0.1226720810,        0.0898918509,-0.0222658962,0.0647497326,-3.8222103119,7.9417304993,-26.6256523132
        0.1253709793,        0.0947746634,0.0270505100,0.0413122289,-3.2576351166,7.7891426086,-25.8169364929
        0.1280341148,        0.0947746634,0.0270505100,0.0413122289,-3.2576351166,7.7891426086,-25.8169364929
        0.1306040287,        0.0947746634,0.0270505100,0.0413122289,-2.1284847260,8.1095771790,-25.1150321960
        0.1331770420,        0.0947746634,0.0270505100,0.0413122289,-2.1284847260,8.1095771790,-25.1150321960
        0.1357550621,        0.0815910697,0.0026364475,0.0359411351,-1.1214046478,8.9945869446,-24.4589042664
        0.1384119987,        0.0815910697,0.0026364475,0.0359411351,-1.1214046478,8.9945869446,-24.4589042664
        0.1410751343,        0.0815910697,0.0026364475,0.0359411351,-1.0756282806,9.4218330383,-24.0011405945
        0.1437489986,        0.0815910697,0.0026364475,0.0359411351,-1.0756282806,9.4218330383,-24.0011405945
        0.1465110779,        0.0898918509,0.0299801975,0.0271520726,-0.9382991791,9.2845039368,-22.8719902039
        0.1490921974,        0.0898918509,0.0299801975,0.0271520726,-0.9382991791,9.2845039368,-22.8719902039
        0.1516690254,        0.0898918509,0.0299801975,0.0271520726,0.4197330475,9.2539863586,-21.9717216492
        0.1542429924,        0.0898918509,0.0299801975,0.0271520726,0.4197330475,9.2539863586,-21.9717216492
        0.1570391655,        0.1069816947,0.0587887913,0.0222692601,2.0371646881,9.5439033508,-21.7428398132
        0.1596140862,        0.1069816947,0.0587887913,0.0222692601,2.0371646881,9.5439033508,-21.7428398132
        0.1621880531,        0.1069816947,0.0587887913,0.0222692601,3.7919254303,9.0251045227,-20.7357597351
        0.1647701263,        0.1069816947,0.0587887913,0.0105505101,3.7919254303,9.0251045227,-20.7357597351
        0.1675651073,        0.1045402884,0.0475583225,0.0105505101,4.2954654694,9.0861396790,-19.7897148132
        0.1702680588,        0.1045402884,0.0475583225,0.0105505101,4.2954654694,9.0861396790,-19.7897148132
        0.1729531288,        0.1045402884,0.0475583225,0.0105505101,4.8905582428,9.8490791321,-18.3859062195
        0.1756420135,        0.1045402884,0.0373044163,0.0198278539,4.8905582428,9.8490791321,-18.3859062195
        0.1782650948,        0.1040520072,0.0373044163,0.0198278539,5.1499576569,10.0321846008,-16.6158866882
        0.1809489727,        0.1040520072,0.0373044163,0.0198278539,5.1499576569,10.0321846008,-16.6158866882
        0.1835219860,        0.1040520072,0.0373044163,0.0198278539,5.3330631256,10.3221015930,-15.0289726257
        0.1861000061,        0.1138176322,0.0504880100,0.0291051976,5.3330631256,10.3221015930,-15.0289726257
        0.1887931824,        0.1138176322,0.0504880100,0.0291051976,5.3330631256,10.8866767883,-13.1979179382
        0.1914930344,        0.1138176322,0.0504880100,0.0291051976,6.0044498444,10.8866767883,-13.1979179382
        0.1941821575,        0.1138176322,0.0504880100,0.0291051976,6.0044498444,11.5580635071,-11.3973808289
        0.1970770359,        0.1201652884,0.0573239475,0.0203161351,6.4774723053,11.5580635071,-11.3973808289
        0.1996510029,        0.1201652884,0.0573239475,0.0203161351,6.4774723053,12.2141914368,-10.0698661804
        0.2022280693,        0.1201652884,0.0573239475,0.0203161351,6.5690250397,12.2141914368,-10.0698661804
        0.2047951221,        0.1201652884,0.0573239475,0.0203161351,6.5690250397,12.2141914368,-8.5287284851
        0.2075340748,        0.1177238822,0.0568356663,0.0256872289,6.8894596100,12.5498847961,-8.5287284851
        0.2101991177,        0.1177238822,0.0568356663,0.0256872289,6.8894596100,12.5498847961,-7.0638847351
        0.2129530907,        0.1177238822,0.0568356663,0.0256872289,6.3859195709,12.8092842102,-7.0638847351
        0.2168459892,        0.1177238822,0.0460934788,0.0334997289,6.0807437897,13.5264472961,-5.7821464539
        0.2194311619,        0.1177238822,0.0460934788,0.0334997289,6.0807437897,13.5264472961,-5.7821464539
        0.2220041752,        0.1177238822,0.0460934788,0.0334997289,5.6534976959,13.9079170227,-4.5309257507
        0.2245731354,        0.1177238822,0.0460934788,0.0334997289,5.6534976959,13.9079170227,-4.5309257507
        0.2271530628,        0.1045402884,0.0553708225,0.0486364476,4.6311588287,14.5793037415,-2.9440116882
        0.2297210693,        0.1045402884,0.0553708225,0.0486364476,4.6311588287,14.5793037415,-2.9440116882
        0.2322871685,        0.1045402884,0.0553708225,0.0486364476,4.6311588287,15.3117256165,-2.1963310242
        0.2348601818,        0.1045402884,0.0553708225,0.0486364476,4.6159000397,15.3117256165,-2.1963310242
        0.2374830246,        0.0986809134,0.0841794163,0.0339880101,4.6159000397,15.3117256165,-1.9064140320
        0.2400619984,        0.0986809134,0.0841794163,0.0339880101,4.8752994537,15.0981025696,-1.9064140320
        0.2426362038,        0.0986809134,0.0841794163,0.0339880101,4.8752994537,15.0981025696,-1.2350273132
        0.2453150749,        0.0986809134,0.0841794163,0.0339880101,4.9210758209,14.6861152649,-1.2350273132
        0.2479021549,        0.0918449759,0.0836911350,0.0320348851,4.9210758209,14.6861152649,-1.2350273132
        0.2504720688,        0.0918449759,0.0836911350,0.0320348851,5.0889225006,14.4877510071,-0.9756278992
        0.2530481815,        0.0918449759,0.0836911350,0.0320348851,5.0889225006,14.4877510071,-0.9756278992
        0.2556250095,        0.0918449759,0.0836911350,0.0168981664,5.6992740631,14.7013740540,-1.0366630554
        0.2582800388,        0.1040520072,0.1061520725,0.0168981664,5.6992740631,14.7013740540,-1.0366630554
        0.2608580589,        0.1040520072,0.1061520725,0.0168981664,7.0267887115,14.5335273743,-0.9451103210
        0.2634291649,        0.1040520072,0.1061520725,0.0168981664,7.0267887115,14.5335273743,-0.9451103210
        0.2659959793,        0.1040520072,0.1193356663,0.0061559789,8.3848209381,14.5487861633,-0.4110527039
        0.2687439919,        0.1030754447,0.1193356663,0.0061559789,8.3848209381,14.5487861633,-0.4110527039
        0.2713119984,        0.1030754447,0.1193356663,0.0061559789,8.3085269928,14.5335273743,-0.2889823914
        0.2738862038,        0.1030754447,0.1193356663,0.0061559789,8.3085269928,14.5335273743,-0.2889823914
        0.2766351700,        0.1030754447,0.1149411350,0.0061559789,9.0867252350,14.8387031555,-0.2279472351
        0.2792019844,        0.1079582572,0.1149411350,0.0061559789,9.0867252350,14.8387031555,-0.2279472351
        0.2817771435,        0.1079582572,0.1149411350,0.0061559789,9.4376773834,15.3269844055,0.2298164368
        0.2843561172,        0.1079582572,0.1149411350,0.0061559789,9.4376773834,15.3269844055,0.2298164368
        0.2869482040,        0.0933098197,0.1144528538,0.0022497289,9.4376773834,15.6474189758,-0.0295829773
        0.2895250320,        0.0933098197,0.1144528538,0.0022497289,9.2087955475,15.6474189758,-0.0295829773
        0.2920961380,        0.0933098197,0.1144528538,0.0022497289,9.2087955475,16.0136299133,0.7486152649
        0.2946660519,        0.0933098197,0.1144528538,0.0022497289,8.7510318756,16.0136299133,0.7486152649
        0.2973489761,        0.0757316947,0.1222653538,-0.0299768336,8.7510318756,16.6850166321,1.7556953430
        0.3001070023,        0.0757316947,0.1222653538,-0.0299768336,7.6829166412,16.6850166321,1.7556953430
        0.3026840687,        0.0757316947,0.1222653538,-0.0299768336,7.6829166412,16.6850166321,2.7169990540
        0.3052539825,        0.0757316947,0.1222653538,-0.0299768336,7.0420475006,16.9596748352,2.7169990540
        0.3081171513,        0.0645012259,0.1310544163,-0.0377893336,7.0420475006,16.9596748352,3.3883857727
        0.3106951714,        0.0645012259,0.1310544163,-0.0377893336,5.9586734772,17.3258857727,3.3883857727
        0.3138620853,        0.0645012259,0.1310544163,-0.0377893336,5.9586734772,17.2343330383,4.2886543274
        0.3165230751,        0.0645012259,0.1310544163,-0.0382776149,5.1346988678,17.2343330383,4.2886543274
        0.3190879822,        0.0752434134,0.1330075413,-0.0382776149,5.1346988678,17.2343330383,4.8684883118
        0.3216540813,        0.0752434134,0.1330075413,-0.0382776149,4.5853824615,16.5782051086,4.8684883118
        0.3242251873,        0.0752434134,0.1330075413,-0.0382776149,4.5853824615,16.5782051086,8.7747383118
        0.3267991543,        0.0752434134,0.1413083225,-0.0495080836,4.4175357819,16.1051826477,5.5856513977
        0.3293781281,        0.0664543509,0.1413083225,-0.0495080836,4.4175357819,16.1051826477,5.5856513977
        0.3319480419,        0.0664543509,0.1413083225,-0.0495080836,3.7461490631,15.6016426086,6.1960029602
        0.3345160484,        0.0664543509,0.1413083225,-0.0495080836,3.7461490631,15.6016426086,6.1960029602
        0.3371319771,        0.0664543509,0.1496091038,-0.0612268336,3.5783023834,15.9525947571,6.2722969055
        0.3397080898,        0.0557121634,0.1496091038,-0.0612268336,3.5783023834,15.9525947571,6.2722969055
        0.3422780037,        0.0557121634,0.1496091038,-0.0612268336,3.3799381256,15.9831123352,7.2183418274
        0.3448550701,        0.0557121634,0.1496091038,-0.0612268336,3.3799381256,15.9831123352,7.2183418274
        0.3474731445,        0.0601066947,0.1496091038,-0.0495080836,3.2120914459,16.2730293274,7.7676582336
        0.3500430584,        0.0601066947,0.1496091038,-0.0495080836,3.2120914459,16.2730293274,7.7676582336
        0.3526129723,        0.0601066947,0.1496091038,-0.0495080836,2.3118228912,16.6697578430,9.1104316711
        0.3551790714,        0.0601066947,0.1496091038,-0.0495080836,2.3118228912,16.6697578430,9.1104316711
        0.3578321934,        0.0488762259,0.1413083225,-0.0333948024,1.7319889069,17.1885566711,10.1632881165
        0.3604130745,        0.0488762259,0.1413083225,-0.0333948024,1.7319889069,17.1885566711,10.1632881165
        0.3629920483,        0.0488762259,0.1413083225,-0.0333948024,1.7319889069,17.8904609680,11.4602851868
        0.3655691147,        0.0488762259,0.1413083225,-0.0333948024,0.7554264069,17.8904609680,11.4602851868
        0.3683340549,        0.0161613822,0.1276364475,-0.0246057399,0.7554264069,18.9127998352,12.8488349915
        0.3711400032,        0.0161613822,0.1276364475,-0.0246057399,-1.2892513275,18.9127998352,12.8488349915
        0.3738501072,        0.0161613822,0.1276364475,-0.0246057399,-1.2892513275,19.1721992493,15.2444648743
        0.3765711784,        0.0161613822,0.1276364475,-0.0246057399,-2.8456478119,19.1721992493,15.2444648743
        0.3792719841,        0.0288566947,0.1432614475,-0.0089807399,-2.8456478119,20.0114326477,17.6400947571
        0.3819730282,        0.0288566947,0.1432614475,-0.0089807399,-4.1121273041,20.0114326477,17.6400947571
        0.3846731186,        0.0288566947,0.1432614475,-0.0089807399,-4.1121273041,20.3623847961,20.0357246399
        0.3873810768,        0.0288566947,0.1349606663,0.0056676976,-5.6380062103,20.3623847961,20.0357246399
        0.3900790215,        0.0098137259,0.1349606663,0.0056676976,-5.6380062103,21.0337715149,22.1109199524
        0.3927731514,        0.0098137259,0.1349606663,0.0056676976,-6.6603450775,21.0337715149,22.1109199524
        0.3954792023,        0.0098137259,0.1349606663,0.0056676976,-6.6603450775,21.2321357727,24.2013740540
        0.3981041908,       -0.0189948678,0.1154294163,0.0295934789,-7.4690608978,21.2321357727,24.2013740540
        0.4008331299,       -0.0189948678,0.1154294163,0.0295934789,-7.4690608978,21.2321357727,26.3223457336
        0.4034080505,       -0.0189948678,0.1154294163,0.0295934789,-8.4913997650,21.6593818665,26.3223457336
        0.4059791565,       -0.0189948678,0.1154294163,0.0295934789,-8.4913997650,21.6593818665,28.6111640930
        0.4087221622,       -0.0448737741,0.1325192600,0.0588903539,-8.4761409760,21.7051582336,28.6111640930
        0.4113900661,       -0.0448737741,0.1325192600,0.0588903539,-8.4761409760,21.7051582336,31.0830879211
        0.4143869877,       -0.0448737741,0.1325192600,0.0588903539,-7.1486263275,21.3084297180,31.0830879211
        0.4170520306,       -0.0448737741,0.1325192600,0.1838903576,-7.1486263275,21.3084297180,33.5702705383
        0.4196240902,       -0.0565925241,0.1188473850,0.0798864514,-6.2636165619,20.3929023743,33.5702705383
        0.4221930504,       -0.0565925241,0.1188473850,0.0798864514,-6.2636165619,20.3929023743,33.5702705383
        0.4247620106,       -0.0565925241,0.1188473850,0.0798864514,-4.6461849213,18.7296943665,36.4846992493
        0.4273421764,       -0.0565925241,0.1188473850,0.0754919201,-4.6461849213,18.7296943665,36.4846992493
        0.4299151897,       -0.0858893991,0.1012692600,0.0754919201,-2.9066829681,17.4937324524,38.6209297180
        0.4324841499,       -0.0858893991,0.1012692600,0.0754919201,-2.9066829681,17.4937324524,38.6209297180
        0.4350571632,       -0.0858893991,0.1012692600,0.0754919201,-0.9688167572,16.1357002258,40.9860420227
        0.4377830029,       -0.0858893991,0.1154294163,0.0432653539,-0.9688167572,16.1357002258,40.9860420227
        0.4403541088,       -0.1225104928,0.1154294163,0.0432653539,1.0758609772,14.3351631165,43.8089179993
        0.4429271221,       -0.1225104928,0.1154294163,0.0432653539,1.0758609772,14.3351631165,43.8089179993
        0.4454920292,       -0.1225104928,0.1154294163,0.0432653539,4.5090885162,12.2752265930,45.9604072571
        0.4480991364,       -0.1225104928,0.0983395725,0.0369176976,4.5090885162,12.2752265930,45.9604072571
        0.4506740570,       -0.1493659616,0.0983395725,0.0369176976,8.3237857819,10.7035713196,48.8748359680
        0.4532461166,       -0.1493659616,0.0983395725,0.0369176976,8.3237857819,10.7035713196,48.8748359680
        0.4558200836,       -0.1493659616,0.0983395725,0.0369176976,10.9788150787,8.2621650696,51.1483955383
        0.4585490227,       -0.1728034616,0.0773434788,0.0276403539,10.9788150787,8.2621650696,51.1483955383
        0.4611151218,       -0.1728034616,0.0773434788,0.0276403539,14.8850650787,5.6834297180,53.5440254211
        0.4636960030,       -0.1728034616,0.0773434788,0.0276403539,14.6561832428,5.6834297180,53.5440254211
        0.4663591385,       -0.1728034616,0.0773434788,0.0276403539,14.6561832428,2.7384834290,54.4748115540
        0.4689300060,       -0.2118659616,0.0680661350,0.0300817601,18.5319156647,2.7384834290,54.4748115540
        0.4715030193,       -0.2118659616,0.0680661350,0.0300817601,18.5319156647,2.7384834290,55.6802558899
        0.4740700722,       -0.2118659616,0.0680661350,0.0300817601,21.6752262115,-0.6031913757,55.6802558899
        0.4766511917,       -0.2118659616,0.0680661350,0.0300817601,21.6752262115,-0.6031913757,59.5865058899
        0.4792251587,       -0.2348151803,0.0788083225,0.0042028539,25.0474185944,-3.3497734070,57.9232978821
        0.4817941189,       -0.2348151803,0.0788083225,0.0042028539,25.0474185944,-3.3497734070,57.9232978821
        0.4843699932,       -0.2348151803,0.0788083225,0.0042028539,30.1896305084,-6.2642021179,59.4491767883
        0.4869899750,       -0.2348151803,0.0788083225,0.0042028539,30.1896305084,-6.2642021179,59.4491767883
        0.4896960258,       -0.2318854928,0.0626950413,0.0374059789,40.4435348511,-10.1246757507,58.8388252258
        0.4924101830,       -0.2318854928,0.0626950413,0.0374059789,40.4435348511,-10.1246757507,58.8388252258
        0.4951150417,       -0.2318854928,0.0626950413,0.0374059789,49.7056198120,-13.6799736023,59.4644355774
        0.4977710247,       -0.2318854928,0.0626950413,0.0374059789,49.7056198120,-13.6799736023,59.4644355774
        0.5004611015,       -0.2587409616,0.0856442600,0.0061559789,59.3949508667,-16.3350028992,61.0208320618
        0.5030660629,       -0.2587409616,0.0856442600,0.0061559789,59.3949508667,-16.3350028992,61.0208320618
        0.5056471825,       -0.2587409616,0.0856442600,0.0061559789,69.9235153198,-17.9829521179,61.7990303040
        0.5084850788,       -0.2587409616,0.1178708225,0.0173864476,69.9235153198,-17.9829521179,61.7990303040
        0.5111670494,       -0.2758308053,0.1178708225,0.0173864476,79.2618942261,-19.1883964539,62.2873115540
        0.5145161152,       -0.2758308053,0.1178708225,0.0173864476,79.2618942261,-19.1883964539,62.2873115540
        0.5171611309,       -0.2758308053,0.1178708225,0.0173864476,89.2564010620,-18.7153739929,62.4551582336
        0.5197410583,       -0.2978034616,0.0924801975,0.0569372289,89.2564010620,-18.7153739929,62.4551582336
        0.5223121643,       -0.2978034616,0.0924801975,0.0569372289,90.9959030151,-17.5709648132,60.5630683899
        0.5248870850,       -0.2978034616,0.0924801975,0.0569372289,90.9959030151,-17.5709648132,60.5630683899
        0.5275151730,       -0.2978034616,0.0924801975,0.0569372289,81.8711471558,-18.3491630554,55.8938789368
        0.5300900936,       -0.2641120553,-0.0833010525,0.1228552014,81.8711471558,-18.3491630554,55.8938789368
        0.5326700211,       -0.2641120553,-0.0833010525,0.1228552014,77.6292037964,-17.7082939148,50.5838203430
        0.5352389812,       -0.2641120553,-0.0833010525,0.1228552014,77.6292037964,-17.7082939148,50.5838203430
        0.5378592014,       -0.2641120553,-0.0833010525,0.1228552014,80.1469039917,-16.5181083679,47.6846504211
        0.5404369831,       -0.1957526803,-0.0027346462,0.1340856701,80.1469039917,-16.5181083679,47.6846504211
        0.5430111885,       -0.1957526803,-0.0027346462,0.1340856701,82.8782272339,-15.0837821960,47.9135322571
        0.5455791950,       -0.1957526803,-0.0027346462,0.1340856701,82.8782272339,-15.0837821960,47.9135322571
        0.5481600761,       -0.1957526803,-0.0027346462,0.1340856701,86.7844772339,-12.8254814148,49.4394111633
        0.5507311821,       -0.0639167428,0.1222653538,0.1584997326,87.3490524292,-12.8254814148,49.4394111633
        0.5533151627,       -0.0639167428,0.1222653538,0.1584997326,87.3490524292,-12.8254814148,51.2094306946
        0.5558891296,       -0.0639167428,0.1222653538,0.1584997326,90.5228805542,-11.3606376648,51.2094306946
        0.5585939884,       -0.0639167428,0.1222653538,0.1814489514,90.5228805542,-11.3606376648,52.1554756165
        0.5611770153,       -0.0150886178,0.2135739475,0.1814489514,90.4618453979,-10.3535575867,52.1554756165
        0.5638639927,       -0.0150886178,0.2135739475,0.1814489514,90.4618453979,-10.3535575867,51.9113349915
        0.5666191578,       -0.0150886178,0.2135739475,0.1814489514,90.5686569214,-10.1857109070,51.9113349915
        0.5693299770,       -0.0150886178,0.2077145725,0.2073278576,90.5686569214,-10.1857109070,51.2399482727
        0.5720381737,        0.0244621634,0.2077145725,0.2073278576,87.2727584839,-11.3301200867,51.2399482727
        0.5747480392,        0.0244621634,0.2077145725,0.2073278576,87.2727584839,-11.3301200867,48.3865547180
        0.5774571896,        0.0244621634,0.2077145725,0.2073278576,81.3828659058,-12.8102226257,48.3865547180
        0.5801620483,        0.1816887259,0.1500973850,0.1970739514,81.3828659058,-12.8102226257,43.9615058899
        0.5828740597,        0.1816887259,0.1500973850,0.1970739514,82.5577926636,-15.1600761414,43.9615058899
        0.5855829716,        0.1816887259,0.1500973850,0.1970739514,82.5577926636,-15.1600761414,37.8579902649
        0.5883340836,        0.1816887259,0.1500973850,0.1970739514,90.2482223511,-16.2129325867,37.8579902649
        0.5910501480,        0.3008293509,-0.0002932400,0.1418981701,90.2482223511,-16.2129325867,29.4656562805
        0.5937571526,        0.3008293509,-0.0002932400,0.1418981701,99.5103073120,-16.8690605164,29.4656562805
        0.5965089798,        0.3008293509,-0.0002932400,0.1418981701,99.5103073120,-16.8690605164,19.8526191711
        0.5990819931,        0.3008293509,-0.2502932549,0.1033239514,101.6160202026,-18.4559745789,19.8526191711
        0.6016581059,        0.3545402884,-0.1853518337,0.1033239514,101.6160202026,-18.4559745789,19.8526191711
        0.6042439938,        0.3545402884,-0.1853518337,0.1033239514,99.3424606323,-24.8341484070,8.4848213196
        0.6068592072,        0.3545402884,-0.1853518337,0.1033239514,99.3424606323,-24.8341484070,8.4848213196
        0.6095681190,        0.3545402884,-0.3562502861,0.1018591076,99.1135787964,-30.9681816101,-5.3091239929
        0.6122741699,        0.3931145072,-0.3562502861,0.1018591076,99.1135787964,-30.9681816101,-5.3091239929
        0.6149821281,        0.3931145072,-0.3562502861,0.1018591076,98.3506393433,-32.7382011414,-21.2545585632
        0.6177451611,        0.3931145072,-0.3562502861,0.1018591076,98.3506393433,-32.7382011414,-21.2545585632
        0.6204531193,        0.3828606009,-0.4973635674,-0.0123987086,95.4209518433,-31.0139579773,-36.1929130554
        0.6232461929,        0.3828606009,-0.4973635674,-0.0123987086,95.4209518433,-31.0139579773,-36.1929130554
        0.6259620190,        0.3828606009,-0.4973635674,-0.0123987086,90.7975387573,-29.2744560242,-47.1792411804
        0.6287779808,        0.3828606009,-0.4973635674,-0.0123987086,90.7975387573,-29.2744560242,-47.1792411804
        0.6314840317,        0.4355949759,-0.4900393486,-0.0919885486,83.1223678589,-28.6335868835,-55.3884696960
        0.6341900826,        0.4355949759,-0.4900393486,-0.0919885486,83.1223678589,-28.6335868835,-55.3884696960
        0.6369380951,        0.4355949759,-0.4900393486,-0.0919885486,73.8755416870,-28.2521171570,-63.7350273132
        0.6396431923,        0.4355949759,-0.4470705986,-0.1505822986,73.8755416870,-28.2521171570,-63.7350273132
        0.6423501968,        0.4687981009,-0.4470705986,-0.1505822986,63.0875778198,-27.7028007507,-72.6766815186
        0.6450581551,        0.4687981009,-0.4470705986,-0.1505822986,63.0875778198,-27.7028007507,-72.6766815186
        0.6477081776,        0.4687981009,-0.4470705986,-0.1505822986,50.7279586792,-26.5126152039,-80.7943572998
        0.6502830982,        0.4995598197,-0.3181643486,-0.1837854236,50.7279586792,-26.5126152039,-80.7943572998
        0.6528551579,        0.4995598197,-0.3181643486,-0.1837854236,40.0773239136,-25.6581230164,-87.2183074951
        0.6554310322,        0.4995598197,-0.3181643486,-0.1837854236,40.0773239136,-25.6581230164,-87.2183074951
        0.6580631733,        0.4995598197,-0.3181643486,-0.1837854236,31.6697330475,-26.0853691101,-94.0237274170
        0.6606380939,        0.5234856009,-0.2219729275,-0.1681604236,31.6697330475,-26.0853691101,-94.0237274170
        0.6632151604,        0.5234856009,-0.2219729275,-0.1681604236,24.7422428131,-26.7414970398,-101.2563934326
        0.6657931805,        0.5234856009,-0.2219729275,-0.1681604236,24.7422428131,-26.7414970398,-101.2563934326
        0.6685290337,        0.5234856009,-0.2219729275,-0.1681604236,18.0588932037,-27.9011650085,-109.7860565186
        0.6711080074,        0.4941887259,-0.1848635525,-0.1393518299,18.0588932037,-27.9011650085,-109.7860565186
        0.6736841202,        0.4941887259,-0.1848635525,-0.1393518299,11.1466617584,-29.1676445007,-118.3767547607
        0.6763591766,        0.4941887259,-0.1848635525,-0.1393518299,11.1466617584,-29.1676445007,-118.3767547607
        0.6790680885,        0.4941887259,-0.1848635525,-0.1393518299,4.5548648834,-30.4646415710,-127.3641815186
        0.6817750931,        0.4551262259,-0.1916994900,-0.1256799549,4.5548648834,-30.4646415710,-127.3641815186
        0.6844811440,        0.4551262259,-0.1916994900,-0.1256799549,-1.9148616791,-31.7616386414,-136.3668670654
        0.6871960163,        0.4551262259,-0.1916994900,-0.1256799549,-1.9148616791,-31.7616386414,-136.3668670654
        0.6899011135,        0.4551262259,-0.1916994900,-0.1325158924,-10.1546077728,-33.1196708679,-145.2627410889
        0.6927161217,        0.4409660697,-0.2151369900,-0.1325158924,-10.1546077728,-33.1196708679,-145.2627410889
        0.6954231262,        0.4409660697,-0.2151369900,-0.1325158924,-17.5398616791,-33.3638114929,-153.1515350342
        0.6980521679,        0.4409660697,-0.2151369900,-0.1325158924,-17.5398616791,-33.3638114929,-153.1515350342
        0.7006261349,        0.4409660697,-0.2122073025,-0.1481408924,-25.3523616791,-34.1267509460,-159.9722137451
        0.7032060623,        0.4072746634,-0.2122073025,-0.1481408924,-25.5812435150,-34.1267509460,-159.9722137451
        0.7057821751,        0.4072746634,-0.2122073025,-0.1481408924,-25.5812435150,-34.4929618835,-166.1215057373
        0.7084760666,        0.4072746634,-0.2122073025,-0.1481408924,-33.5158157349,-34.4929618835,-166.1215057373
        0.7111821175,        0.3682121634,-0.1555666775,-0.1720666736,-33.5158157349,-34.4014091492,-171.8282928467
        0.7138931751,        0.3682121634,-0.1555666775,-0.1720666736,-40.6721878052,-34.4014091492,-171.8282928467
        0.7166070938,        0.3682121634,-0.1555666775,-0.1720666736,-40.6721878052,-34.2335624695,-176.8331756592
        0.7193171978,        0.3682121634,-0.1555666775,-0.1720666736,-45.8906936646,-34.2335624695,-176.8331756592
        0.7220270634,        0.3149895072,-0.0842776150,-0.1618127674,-45.8906936646,-34.2335624695,-182.3721160889
        0.7247281075,        0.3149895072,-0.0842776150,-0.1618127674,-50.4835891724,-33.9131278992,-182.3721160889
        0.7274420261,        0.3149895072,-0.0842776150,-0.1618127674,-50.4835891724,-33.9131278992,-187.9720916748
        0.7301480770,        0.3149895072,-0.0842776150,-0.1735315174,-52.5740432739,-32.8144950867,-187.9720916748
        0.7328550816,        0.2891106009,-0.0276369900,-0.1735315174,-52.5740432739,-28.9082450867,-193.0380096436
        0.7355611324,        0.2891106009,-0.0276369900,-0.1735315174,-54.2830276489,-31.9142265320,-193.0380096436
        0.7382700443,        0.2891106009,-0.0276369900,-0.1735315174,-54.2830276489,-31.9142265320,-198.0581512451
        0.7409791946,        0.2891106009,0.0080075413,-0.1603479236,-55.6410598755,-31.4412040710,-198.0581512451
        0.7436850071,        0.2534660697,0.0080075413,-0.1603479236,-55.6410598755,-31.4412040710,-203.0477752686
        0.7463870049,        0.2534660697,0.0080075413,-0.1603479236,-56.1140823364,-30.7240409851,-203.0477752686
        0.7489659786,        0.2534660697,0.0080075413,-0.1603479236,-56.1140823364,-30.7240409851,-207.9000701904
        0.7515430450,        0.2065910697,0.0548825413,-0.1544885486,-56.3124465942,-30.3883476257,-207.9000701904
        0.7541160583,        0.2065910697,0.0548825413,-0.1544885486,-56.3124465942,-30.3883476257,-211.8063201904
        0.7568621635,        0.2065910697,0.0548825413,-0.1544885486,-55.2901077271,-29.5948905945,-212.6760711670
        0.7595670223,        0.2065910697,0.0548825413,-0.1544885486,-55.2901077271,-29.5948905945,-216.5823211670
        0.7622730732,        0.1665520072,0.1237301975,-0.1413049549,-52.5740432739,-28.9082450867,-216.5365447998
        0.7649831772,        0.1665520072,0.1237301975,-0.1413049549,-52.5740432739,-28.9082450867,-220.4427947998
        0.7677400112,        0.1665520072,0.1237301975,-0.1413049549,-49.9800491333,-28.1758232117,-220.6106414795
        0.7704491615,        0.1665520072,0.1237301975,-0.1559533924,-49.9800491333,-28.1758232117,-224.5168914795
        0.7731549740,        0.1260246634,0.1803708225,-0.1559533924,-46.5773391724,-26.4668388367,-224.4863739014
        0.7758650780,        0.1260246634,0.1803708225,-0.1559533924,-46.5773391724,-26.4668388367,-228.3926239014
        0.7785761356,        0.1260246634,0.1803708225,-0.1559533924,-42.8389358521,-25.9632987976,-228.0569305420
        0.7812821865,        0.1260246634,0.1989255100,-0.1725549549,-42.8389358521,-25.9632987976,-231.9631805420
        0.7839930058,        0.0923332572,0.1989255100,-0.1725549549,-38.9937210083,-25.4292411804,-230.6661834717
        0.7867419720,        0.0923332572,0.1989255100,-0.1725549549,-38.9937210083,-25.4292411804,-234.5724334717
        0.7894489765,        0.0923332572,0.1989255100,-0.1725549549,-35.7435989380,-25.3224296570,-233.2601776123
        0.7921559811,        0.0674309134,0.2130856663,-0.1852502674,-35.7435989380,-25.3224296570,-233.2601776123
        0.7948679924,        0.0674309134,0.2130856663,-0.1852502674,-33.8972854614,-25.0325126648,-235.8694305420
        0.7975261211,        0.0674309134,0.2130856663,-0.1852502674,-33.8972854614,-25.0325126648,-235.8694305420
        0.8001019955,        0.0674309134,0.2130856663,-0.1852502674,-32.1272659302,-24.3306083679,-238.0819549561
        0.8026721478,        0.0317863822,0.2077145725,-0.1959924549,-32.1272659302,-24.3306083679,-238.0819549561
        0.8052551746,        0.0317863822,0.2077145725,-0.1959924549,-31.5932064056,-23.3082695007,-239.7299041748
        0.8079690933,        0.0317863822,0.2077145725,-0.1959924549,-31.5932064056,-23.3082695007,-239.7299041748
        0.8107621670,        0.0317863822,0.2077145725,-0.1959924549,-32.3561477661,-22.9420585632,-241.4541473389
        0.8133502007,       -0.0126472116,0.1940426975,-0.2072229236,-32.3561477661,-22.9420585632,-241.4541473389
        0.8159291744,       -0.0126472116,0.1940426975,-0.2072229236,-33.5768508911,-21.8739433289,-242.5985565186
        0.8186800480,       -0.0126472116,0.1940426975,-0.2072229236,-33.5768508911,-21.8739433289,-242.5985565186
        0.8215479851,       -0.0126472116,0.1706051975,-0.2086877674,-36.0945510864,-20.4701347351,-242.5832977295
        0.8242239952,       -0.0360847116,0.1706051975,-0.2086877674,-36.0945510864,-20.4701347351,-242.5832977295
        0.8274931908,       -0.0360847116,0.1706051975,-0.2086877674,-39.9397659302,-19.1731376648,-242.4459686279
        0.8300690651,       -0.0360847116,0.1706051975,-0.2086877674,-39.9397659302,-19.1731376648,-242.4459686279
        0.8326511383,       -0.0595222116,0.1544919163,-0.2096643299,-46.0737991333,-16.8995780945,-241.8661346436
        0.8352241516,       -0.0595222116,0.1544919163,-0.2096643299,-46.0737991333,-16.8995780945,-241.8661346436
        0.8378040791,       -0.0595222116,0.1544919163,-0.2096643299,-53.3522415161,-15.6025810242,-241.2863006592
        0.8403730392,       -0.0595222116,0.1544919163,-0.2096643299,-53.3522415161,-15.6025810242,-241.2863006592
        0.8429441452,       -0.0761237741,0.1437497288,-0.2033166736,-60.6459426880,-13.7715263367,-240.7217254639
        0.8455221653,       -0.0761237741,0.1437497288,-0.2033166736,-60.6459426880,-13.7715263367,-240.7217254639
        0.8481001854,       -0.0761237741,0.1437497288,-0.2033166736,-68.0464553833,-12.3066825867,-240.8743133545
        0.8506731987,       -0.0761237741,0.1437497288,-0.2033166736,-68.0464553833,-12.3066825867,-240.8743133545
        0.8532540798,       -0.0839362741,0.1417966038,-0.2042932361,-75.4927444458,-10.6587333679,-241.6677703857
        0.8558220863,       -0.0839362741,0.1417966038,-0.2042932361,-75.4927444458,-10.6587333679,-241.6677703857
        0.8584439754,       -0.0839362741,0.1417966038,-0.2042932361,-79.3989944458,-9.2549247742,-241.7288055420
        0.8610160351,       -0.0839362741,0.1417966038,-0.2042932361,-82.5270462036,-9.2549247742,-241.7288055420
        0.8635871410,       -0.0897956491,0.1491208225,-0.1964807361,-82.5270462036,-5.3486747742,-241.7440643311
        0.8661630154,       -0.0897956491,0.1491208225,-0.1964807361,-88.4627151489,-7.3475761414,-241.7440643311
        0.8687431812,       -0.0897956491,0.1491208225,-0.1964807361,-88.4627151489,-7.3475761414,-242.0187225342
        0.8713181019,       -0.0897956491,0.1491208225,-0.1964807361,-94.4899368286,-5.0587577820,-242.0187225342
        0.8739051819,       -0.0985847116,0.1408200413,-0.1872033924,-94.4899368286,-5.0587577820,-242.0187225342
        0.8766460419,       -0.0985847116,0.1408200413,-0.1872033924,-99.5863723755,-3.0903739929,-242.4459686279
        0.8792331219,       -0.0985847116,0.1408200413,-0.1872033924,-99.5863723755,-3.0903739929,-242.4459686279
        0.8818120956,       -0.0985847116,0.1408200413,-0.1554651111,-104.2250442505,-1.0914726257,-243.5598602295
        0.8845071793,       -0.1244636178,0.1281247288,-0.1554651111,-104.2250442505,-1.0914726257,-243.5598602295
        0.8872749805,       -0.1244636178,0.1281247288,-0.1554651111,-109.2451858521,1.5635566711,-244.1091766357
        0.8899781704,       -0.1244636178,0.1281247288,-0.1554651111,-109.2451858521,1.5635566711,-244.1091766357
        0.8926820755,       -0.1493659616,0.1266598850,-0.1408166736,-114.0974807739,3.1199531555,-244.4296112061
        0.8953900337,       -0.1493659616,0.1266598850,-0.1408166736,-114.0974807739,3.1199531555,-244.4296112061
        0.8980550766,       -0.1493659616,0.1266598850,-0.1408166736,-118.9650344849,5.5308418274,-244.0328826904
        0.9006340504,       -0.1493659616,0.1266598850,-0.1408166736,-118.9650344849,5.5308418274,-244.0328826904
        0.9032061100,       -0.1601081491,0.1417966038,-0.1271447986,-123.3137893677,8.3994941711,-243.4988250732
        0.9057819843,       -0.1601081491,0.1417966038,-0.1271447986,-123.3137893677,8.3994941711,-243.4988250732
        0.9084801674,       -0.1601081491,0.1417966038,-0.1271447986,-125.6331253052,10.4289131165,-242.1865692139
        0.9111871719,       -0.1601081491,0.1417966038,-0.1271447986,-125.6331253052,10.4289131165,-242.1865692139
        0.9139261246,       -0.1713386178,0.1574216038,-0.1095666736,-126.3502883911,11.8174629211,-241.6982879639
        0.9166681767,       -0.1713386178,0.1574216038,-0.1095666736,-126.3502883911,11.8174629211,-241.6982879639
        0.9193329811,       -0.1713386178,0.1574216038,-0.1095666736,-125.7857131958,13.5874824524,-242.4154510498
        0.9220631123,       -0.1713386178,0.1574216038,-0.0934533924,-125.7857131958,13.5874824524,-242.4154510498
        0.9249851704,       -0.1854987741,0.1442380100,-0.0934533924,-124.4124221802,16.1967353821,-242.8732147217
        0.9277400970,       -0.1854987741,0.1442380100,-0.0934533924,-124.4124221802,16.1967353821,-242.8732147217
        0.9304461479,       -0.1854987741,0.1442380100,-0.0934533924,-122.2914505005,17.8141670227,-242.7664031982
        0.9331521988,       -0.2035651803,0.1217770725,-0.0719690174,-122.2914505005,17.8141670227,-242.7664031982
        0.9358530045,       -0.2035651803,0.1217770725,-0.0719690174,-120.6587600708,18.7144355774,-241.3931121826
        0.9385681152,       -0.2035651803,0.1217770725,-0.0719690174,-120.6587600708,18.7144355774,-241.3931121826
        0.9412710667,       -0.2035651803,0.1217770725,-0.0719690174,-118.6445999146,20.1640205383,-239.6078338623
        0.9439780712,       -0.2289558053,0.1198239475,-0.0548791774,-118.6445999146,20.1640205383,-239.6078338623
        0.9467132092,       -0.2289558053,0.1198239475,-0.0548791774,-115.8980178833,22.3307685852,-237.1359100342
        0.9494152069,       -0.2289558053,0.1198239475,-0.0548791774,-115.8980178833,22.3307685852,-237.1359100342
        0.9519951344,       -0.2289558053,0.1198239475,0.0701208264,-114.7993850708,23.6888008118,-234.4503631592
        0.9545710087,       -0.2235847116,0.1129880100,-0.0280237086,-114.7993850708,23.6888008118,-234.4503631592
        0.9571599960,       -0.2235847116,0.1129880100,-0.0280237086,-113.7160110474,23.8871650696,-230.9103240967
        0.9597439766,       -0.2235847116,0.1129880100,-0.0280237086,-113.7160110474,23.8871650696,-230.9103240967
        0.9623281956,       -0.2235847116,0.1129880100,-0.0441369899,-111.8391799927,25.7182197571,-227.9501190186
        0.9649131298,       -0.2245612741,0.0958981663,-0.0441369899,-111.8391799927,25.7182197571,-227.9501190186
        0.9676311016,       -0.2245612741,0.0958981663,-0.0441369899,-109.6571731567,28.2664375305,-224.7457733154
        0.9702081680,       -0.2245612741,0.0958981663,-0.0441369899,-109.6571731567,28.2664375305,-224.7457733154
        0.9727861881,       -0.2245612741,0.0905270725,-0.0646447986,-109.6571731567,31.1198310852,-221.2972869873
        0.9753620625,       -0.2304206491,0.0905270725,-0.0646447986,-107.7803421021,31.1198310852,-221.2972869873
        0.9781410694,       -0.2304206491,0.0905270725,-0.0646447986,-107.7803421021,33.2408027649,-217.6351776123
        0.9808480740,       -0.2304206491,0.0905270725,-0.0646447986,-107.2920608521,33.2408027649,-217.6351776123
        0.9835510254,       -0.2323737741,0.0851559788,-0.0578088649,-103.3858108521,34.7819404602,-213.6068572998
        0.9862730503,       -0.2323737741,0.0851559788,-0.0578088649,-106.3307571411,34.7819404602,-213.6068572998
        0.9889800549,       -0.2323737741,0.0851559788,-0.0578088649,-106.3307571411,35.5906562805,-208.7393035889
        0.9916892052,       -0.2323737741,0.0851559788,-0.0578088649,-104.4539260864,35.5906562805,-208.7393035889
        0.9944009781,       -0.2069831491,0.1110348850,-0.0338830836,-104.4539260864,36.6435127258,-203.7191619873
        0.9971101284,       -0.2069831491,0.1110348850,-0.0338830836,-103.5231399536,36.6435127258,-203.7191619873
        0.9996881485,       -0.2069831491,0.1110348850,-0.0338830836,-103.5231399536,40.5497627258,-198.6532440186
        1.0022680759,       -0.2069831491,0.1110348850,-0.0338830836,-102.5008010864,38.0778388977,-198.6532440186
        1.0048480034,       -0.1483893991,0.1256833225,-0.0250940211,-102.5008010864,38.0778388977,-193.6178436279
        1.0075500011,       -0.1483893991,0.1256833225,-0.0250940211,-101.0512161255,38.6271553040,-193.6178436279
        1.0102601051,       -0.1483893991,0.1256833225,-0.0250940211,-101.0512161255,38.6271553040,-188.7655487061
        1.0130732059,       -0.1483893991,0.1256833225,0.0071325414,-98.7166213989,37.7879219055,-188.7655487061
        1.0158240795,       -0.0780768991,0.1593747288,0.0071325414,-98.7166213989,37.7879219055,-183.0435028076
        1.0186431408,       -0.0780768991,0.1593747288,0.0071325414,-95.3749465942,37.2386054993,-183.0435028076
        1.0213232040,       -0.0780768991,0.1593747288,0.0071325414,-90.3242874146,36.2467842102,-177.4282684326
        1.0245490074,        0.0210441947,0.2072262913,0.0442419164,-90.3242874146,36.2467842102,-177.4282684326
        1.0271670818,        0.0210441947,0.2072262913,0.0442419164,-86.4180374146,33.2713203430,-171.5231170654
        1.0297501087,        0.0210441947,0.2072262913,0.0442419164,-85.2125930786,33.2713203430,-171.5231170654
        1.0323200226,        0.0210441947,0.2072262913,0.0442419164,-85.2125930786,29.3650703430,-165.1449432373
        1.0348951817,        0.1050285697,0.2360348850,0.0676794201,-79.9025344849,29.5481758118,-165.1449432373
        1.0375599861,        0.1050285697,0.2360348850,0.0676794201,-79.9025344849,29.5481758118,-158.4158172607
        1.0401351452,        0.1050285697,0.2360348850,0.0676794201,-74.5009231567,26.4811592102,-158.4158172607
        1.0427119732,        0.1050285697,0.2360348850,0.0676794201,-74.5009231567,26.4811592102,-154.5095672607
        1.0452821255,        0.1611809134,0.2448239475,0.1160192639,-69.4350051880,22.3460273743,-151.9460906982
        1.0479149818,        0.1611809134,0.2448239475,0.1160192639,-69.4350051880,22.3460273743,-151.9460906982
        1.0504870415,        0.1611809134,0.2448239475,0.1160192639,-63.3620071411,18.5008125305,-145.4153289795
        1.0530571938,        0.1611809134,0.2448239475,0.1160192639,-63.3620071411,18.5008125305,-145.4153289795
        1.0556321144,        0.1728996634,0.2887692451,0.0979528576,-55.4884719849,14.5030097961,-137.8774871826
        1.0582699776,        0.1728996634,0.2887692451,0.0979528576,-55.4884719849,14.5030097961,-137.8774871826
        1.0608401299,        0.1728996634,0.2887692451,0.0979528576,-46.8367385864,11.2528877258,-129.7140350342
        1.0634160042,        0.1728996634,0.2887692451,0.0920934826,-46.8367385864,11.2528877258,-129.7140350342
        1.0659911633,        0.1934074759,0.3522458076,0.0920934826,-37.3152542114,8.5368232727,-121.5353240967
        1.0687370300,        0.1934074759,0.3522458076,0.0920934826,-37.3152542114,8.5368232727,-121.5353240967
        1.0713171959,        0.1934074759,0.3522458076,0.0920934826,-26.7866878510,5.8055000305,-113.3260955811
        1.0738921165,        0.1934074759,0.3830075264,0.0784216076,-26.7866878510,5.8055000305,-113.3260955811
        1.0767350197,        0.1724113822,0.3830075264,0.0784216076,-16.3954524994,3.9134101868,-104.3691864014
        1.0794370174,        0.1724113822,0.3830075264,0.0784216076,-16.3954524994,3.9134101868,-104.3691864014
        1.0821352005,        0.1724113822,0.3830075264,0.0784216076,-6.4924983978,2.8147773743,-94.5577850342
        1.0848410130,        0.1758293509,0.3624997139,0.0564489476,-6.4924983978,2.8147773743,-94.5577850342
        1.0874941349,        0.1758293509,0.3624997139,0.0564489476,2.0829410553,2.7537422180,-84.7921600342
        1.0900690556,        0.1758293509,0.3624997139,0.0564489476,2.0829410553,2.7537422180,-84.7921600342
        1.0926480293,        0.1758293509,0.3624997139,0.0564489476,8.6594791412,3.4556465149,-74.5382537842
        1.0952200890,        0.1660637259,0.3092770576,0.0134801976,8.6594791412,3.4556465149,-74.5382537842
        1.0979239941,        0.1660637259,0.3092770576,0.0134801976,12.5657291412,4.5085029602,-64.9862518311
        1.1006281376,        0.1660637259,0.3092770576,0.0134801976,12.5352115631,4.5085029602,-64.9862518311
        1.1033301353,        0.1660637259,0.3092770576,0.0134801976,16.4414615631,6.6294746399,-54.7781181335
        1.1060340405,        0.1533684134,0.2711911201,-0.0192346461,14.8545475006,6.6294746399,-54.7781181335
        1.1087460518,        0.1533684134,0.2711911201,-0.0192346461,14.8545475006,9.1166572571,-45.3176689148
        1.1114451885,        0.1533684134,0.2711911201,-0.0192346461,15.2054996490,9.1166572571,-45.3176689148
        1.1141490936,        0.1533684134,0.2550778389,-0.0319299586,11.2992496490,10.8714179993,-35.0790214539
        1.1168541908,        0.1460441947,0.2550778389,-0.0319299586,14.1831607819,10.8714179993,-35.0790214539
        1.1195631027,        0.1460441947,0.2550778389,-0.0319299586,14.1831607819,12.2752265930,-24.5657157898
        1.1222681999,        0.1460441947,0.2550778389,-0.0319299586,12.1232242584,12.2752265930,-24.5657157898
        1.1249670982,        0.1323723197,0.2643551826,-0.0187463649,12.1232242584,13.7248115540,-14.3881034851
        1.1277241707,        0.1323723197,0.2643551826,-0.0187463649,9.0867252350,13.7248115540,-14.3881034851
        1.1304249763,        0.1323723197,0.2643551826,-0.0187463649,9.0867252350,14.6250801086,-3.9053153992
        1.1332790852,        0.1323723197,0.2643551826,-0.0187463649,6.7826480865,14.6250801086,-3.9053153992
        1.1359920502,        0.1226066947,0.2863278389,-0.0080041774,2.8763980865,14.5793037415,6.0128974915
        1.1386201382,        0.1226066947,0.2863278389,-0.0080041774,3.4409732819,14.5793037415,6.0128974915
        1.1411921978,        0.1226066947,0.2863278389,-0.0080041774,3.4409732819,14.5793037415,15.1223945618
        1.1438701153,        0.1226066947,0.2863278389,-0.0080041774,-0.2669124603,14.7166328430,15.1223945618
        1.1465141773,        0.1343254447,0.2926754951,0.0168981664,-0.2669124603,14.7166328430,24.1098213196
        1.1492211819,        0.1343254447,0.2926754951,0.0168981664,-4.5088558197,14.6403388977,24.1098213196
        1.1519200802,        0.1343254447,0.2926754951,0.0168981664,-4.5088558197,14.6403388977,32.9446601868
        1.1546220779,        0.1343254447,0.3058590889,0.0706091076,-8.9339046478,14.4724922180,32.9446601868
        1.1573309898,        0.1528801322,0.3058590889,0.0706091076,-8.9339046478,14.4724922180,41.3675117493
        1.1600310802,        0.1528801322,0.3058590889,0.0706091076,-11.5278987885,13.2517890930,41.3675117493
        1.1627290249,        0.1528801322,0.3058590889,0.0706091076,-11.5278987885,13.2517890930,49.8666572571
        1.1654272079,        0.1685051322,0.3288083076,0.0876989514,-13.1148128510,11.8479804993,49.8666572571
        1.1680531502,        0.1685051322,0.3288083076,0.0876989514,-13.1148128510,11.8479804993,55.6192207336
        1.1706240177,        0.1685051322,0.3288083076,0.0876989514,-15.0831966400,9.7880439758,55.6192207336
        1.1731882095,        0.1685051322,0.3288083076,0.0876989514,-15.0831966400,9.7880439758,55.6192207336
        1.1757581234,        0.0454582572,-0.0017580837,0.0120153539,-15.0831966400,7.6823310852,48.8595771790
        1.1784551144,        0.0454582572,-0.0017580837,0.0120153539,-15.0831966400,7.6823310852,48.8595771790
        1.1810259819,        0.0454582572,-0.0017580837,0.0120153539,-28.2057552338,10.2610664368,52.7658271790
        1.1836030483,        0.0454582572,-0.0017580837,0.0120153539,-28.2057552338,10.2610664368,52.7658271790
        1.1861841679,       -0.0224128366,-0.4241213799,-0.1251916736,-35.1485061646,13.7858467102,57.6181221008
        1.1890480518,       -0.0224128366,-0.4241213799,-0.1251916736,-35.1485061646,13.7858467102,57.6181221008
        1.1917521954,       -0.0224128366,-0.4241213799,-0.1251916736,-37.4525833130,15.7389717102,50.5533027649
        1.1944580078,       -0.0224128366,-0.4241213799,-0.1339807361,-37.4525833130,15.7389717102,50.5533027649
        1.1971709728,       -0.1596198678,-1.1096682549,-0.1339807361,-49.1713333130,15.0523262024,46.0519599915
        1.1998751163,       -0.1596198678,-1.1096682549,-0.1339807361,-49.1713333130,15.0523262024,46.0519599915
        1.2025849819,       -0.1596198678,-1.1096682549,-0.1339807361,-59.9287796021,9.7270088196,46.6012763977
        1.2052891254,       -0.2846198678,-1.0437502861,-0.0324182399,-59.9287796021,9.7270088196,46.6012763977
        1.2081182003,       -0.1762214303,-1.0437502861,-0.0324182399,-66.3679885864,3.5777168274,50.3396797180
        1.2108161449,       -0.1762214303,-1.0437502861,-0.0324182399,-66.3679885864,3.5777168274,50.3396797180
        1.2135171890,       -0.1762214303,-1.0437502861,-0.0324182399,-69.5570755005,2.9521064758,58.5031318665
        1.2162320614,       -0.2367683053,-0.3171877861,-0.0963830799,-69.5570755005,2.9521064758,58.5031318665
        1.2188091278,       -0.2367683053,-0.3171877861,-0.0963830799,-72.6851272583,3.5777168274,70.2981719971
        1.2214190960,       -0.2367683053,-0.3171877861,-0.0963830799,-72.6851272583,3.5777168274,70.2981719971
        1.2239902020,       -0.2367683053,-0.3171877861,-0.0963830799,-77.6594924927,5.1035957336,81.2387237549
        1.2266101837,       -0.2572761178,0.3185544014,-0.0514612086,-77.6594924927,5.1035957336,81.2387237549
        1.2292861938,       -0.2572761178,0.3185544014,-0.0514612086,-79.0938186646,4.3711738586,87.9220733643
        1.2320539951,       -0.2572761178,0.3185544014,-0.0514612086,-79.0938186646,4.3711738586,87.9220733643
        1.2347190380,       -0.2572761178,0.3185544014,-0.0514612086,-77.9036331177,-0.6489677429,87.3574981689
        1.2379870415,       -0.1703620553,0.2838864326,0.0584020726,-77.9036331177,-0.6489677429,87.3574981689
        1.2405641079,       -0.1703620553,0.2838864326,0.0584020726,-75.9352493286,-8.0342216492,83.6801300049
        1.2431349754,       -0.1703620553,0.2838864326,0.0584020726,-75.9352493286,-8.0342216492,83.6801300049
        1.2457101345,        0.0796379447,0.0636716038,-0.0480432399,-70.9761428833,-15.1600761414,78.6294708252
        1.2485210896,       -0.0131354928,0.0636716038,-0.0480432399,-70.9761428833,-15.1600761414,78.6294708252
        1.2510972023,       -0.0131354928,0.0636716038,-0.0480432399,-60.8137893677,-16.8843193054,74.1586456299
        1.2536740303,       -0.0131354928,0.0636716038,-0.0480432399,-60.8137893677,-16.8843193054,74.1586456299
        1.2562670708,        0.0605949759,0.0446286350,-0.2697229385,-51.0786819458,-15.0685234070,69.8404083252
        1.2588450909,        0.0605949759,0.0446286350,-0.2697229385,-51.0786819458,-15.0685234070,69.8404083252
        1.2614250183,        0.0605949759,0.0446286350,-0.2697229385,-45.5092239380,-13.6799736023,66.1325225830
        1.2640030384,        0.0605949759,0.0446286350,-0.2697229385,-45.5092239380,-13.6799736023,66.1325225830
        1.2665841579,        0.0757316947,0.0221676975,-0.2301721424,-45.5092239380,-15.9840507507,62.0584297180
        1.2691681385,        0.0757316947,0.0221676975,-0.2301721424,-42.9915237427,-15.9840507507,62.0584297180
        1.2718470097,        0.0757316947,0.0221676975,-0.2301721424,-42.9915237427,-19.8903007507,58.2742500305
        1.2744231224,        0.0757316947,0.0221676975,-0.2301721424,-39.4820022583,-19.7987480164,58.2742500305
        1.2769989967,        0.1030754447,-0.0544924587,-0.0758752674,-39.4820022583,-19.7987480164,54.9020576477
        1.2795741558,        0.1030754447,-0.0544924587,-0.0758752674,-34.7517776489,-21.4619560242,54.9020576477
        1.2821521759,        0.1030754447,-0.0544924587,-0.0758752674,-34.7517776489,-21.4619560242,50.9958076477
        1.2847290039,        0.1030754447,-0.0544924587,-0.0758752674,-31.4863948822,-22.0875663757,51.7434883118
        1.2874491215,        0.0942863822,-0.0261721462,0.0144567601,-31.4863948822,-22.0875663757,51.7434883118
        1.2900271416,        0.0942863822,-0.0261721462,0.0144567601,-32.7070999146,-23.2167167664,48.2492256165
        1.2926042080,        0.0942863822,-0.0261721462,0.0144567601,-32.7070999146,-23.2167167664,48.2492256165
        1.2951860428,        0.0942863822,-0.0261721462,0.0144567601,-36.8269729614,-24.8341484070,44.3887519836
        1.2978551388,        0.0977043509,-0.0242190212,0.0598669164,-36.8269729614,-24.8341484070,44.3887519836
        1.3004221916,        0.0977043509,-0.0242190212,0.0598669164,-42.4269485474,-25.5513114929,40.2688789368
        1.3030030727,        0.0977043509,-0.0242190212,0.0598669164,-42.4269485474,-25.5513114929,40.2688789368
        1.3055770397,        0.0977043509,-0.0242190212,0.1575231701,-47.0808792114,-26.0090751648,37.5222969055
        1.3081591129,        0.0308098197,0.1549801975,0.1575231701,-47.0808792114,-26.0090751648,37.5222969055
        1.3107399940,        0.0308098197,0.1549801975,0.1575231701,-47.0045852661,-27.1534843445,41.5963935852
        1.3133111000,        0.0308098197,0.1549801975,0.1575231701,-47.0045852661,-27.1534843445,41.5963935852
        1.3158869743,        0.0308098197,0.5299801826,0.1594762951,-44.5174026489,-26.2532157898,47.4252510071
        1.3184721470,       -0.0912604928,0.5343747139,0.1594762951,-44.5174026489,-26.2532157898,47.4252510071
        1.3210430145,       -0.0912604928,0.5343747139,0.1594762951,-28.8924007416,-20.3022880554,41.2149238586
        1.3237271309,       -0.0912604928,0.5343747139,0.1594762951,-32.1577835083,-20.3022880554,41.2149238586
        1.3264889717,        0.0337395072,0.2726559639,-0.0089807399,-32.1577835083,-13.4968681335,28.4738349915
        1.3290760517,        0.0371574759,0.2726559639,-0.0089807399,-14.3812923431,-13.4968681335,28.4738349915
        1.3321790695,        0.0371574759,0.2726559639,-0.0089807399,-9.6358089447,-13.3900566101,18.6624336243
        1.3356630802,        0.0371574759,0.2726559639,-0.1339807361,-9.6358089447,-13.3900566101,18.6624336243
        1.3382940292,        0.1519035697,0.0729489475,-0.0822229236,-15.7545833588,-15.3889579773,12.0401191711
        1.3408679962,        0.1519035697,0.0729489475,-0.0822229236,-15.7545833588,-15.3889579773,12.0401191711
        1.3434340954,        0.1519035697,0.0729489475,-0.0822229236,-13.8319759369,-15.9840507507,7.0657539368
        1.3460121155,        0.1519035697,0.0729489475,-0.0949182361,-13.8319759369,-15.9840507507,7.0657539368
        1.3486301899,        0.1455559134,0.0407223850,-0.0949182361,-5.7448177338,-14.7480888367,1.9540596008
        1.3512079716,        0.1455559134,0.0407223850,-0.0949182361,-5.7448177338,-14.7480888367,1.9540596008
        1.3537800312,        0.1455559134,0.0407223850,-0.0949182361,2.0676822662,-13.6189384460,-5.2633476257
        1.3563539982,        0.1455559134,0.1657223850,-0.0568323024,0.9080142975,-13.6189384460,-5.2633476257
        1.3589351177,        0.1284660697,0.1349606663,-0.0568323024,0.9080142975,-13.6189384460,-13.0911064148
        1.3615100384,        0.1284660697,0.1349606663,-0.0568323024,9.7428531647,-13.1306571960,-13.0911064148
        1.3640871048,        0.1284660697,0.1349606663,-0.0568323024,9.7428531647,-13.1306571960,-20.4611015320
        1.3667111397,        0.1284660697,0.0441403538,-0.0426721461,18.7607975006,-13.2069511414,-20.4611015320
        1.3692831993,        0.1162590384,0.0441403538,-0.0426721461,18.7607975006,-13.2069511414,-28.2736015320
        1.3718621731,        0.1162590384,0.0441403538,-0.0426721461,25.5356998444,-13.7867851257,-26.0153007507
        1.3744380474,        0.1162590384,0.0441403538,-0.0426721461,25.5356998444,-13.7867851257,-26.0153007507
        1.3770930767,        0.0972160697,-0.0139651150,-0.0617151149,29.0147037506,-13.8935966492,-29.6621513367
        1.3796710968,        0.0972160697,-0.0139651150,-0.0617151149,29.0147037506,-13.8935966492,-29.6621513367
        1.3822481632,        0.0972160697,-0.0139651150,-0.0617151149,27.8092594147,-14.3361015320,-31.8441581726
        1.3848211765,        0.0972160697,-0.0139651150,-0.0617151149,27.8092594147,-14.3361015320,-31.8441581726
        1.3875072002,        0.0903801322,-0.0515627712,-0.0724572986,23.4910221100,-15.0380058289,-33.2632255554
        1.3900880814,        0.0903801322,-0.0515627712,-0.0724572986,23.4910221100,-15.0380058289,-33.2632255554
        1.3926701546,        0.0903801322,-0.0515627712,-0.0724572986,16.6245670319,-15.5110282898,-33.2327079773
        1.3952450752,        0.0903801322,-0.0515627712,-0.0724572986,16.6245670319,-15.5110282898,-33.2327079773
        1.3979871273,        0.1020988822,-0.0935549587,-0.0456018336,9.8191471100,-15.9687919617,-33.3395195007
        1.4005720615,        0.1020988822,-0.0935549587,-0.0456018336,9.8191471100,-15.9687919617,-33.3395195007
        1.4031460285,        0.1020988822,-0.0935549587,-0.0456018336,4.3259830475,-16.4570732117,-32.7902030945
        1.4057199955,        0.1020988822,-0.0935549587,-0.0456018336,4.3259830475,-16.4570732117,-32.7902030945
        1.4083051682,        0.0947746634,-0.1145510525,-0.0387658961,-3.4865169525,-16.5791435242,-31.6915702820
        1.4108760357,        0.0947746634,-0.1145510525,-0.0387658961,-1.2892513275,-16.5791435242,-31.6915702820
        1.4134571552,        0.0947746634,-0.1145510525,-0.0387658961,-1.2892513275,-20.4853935242,-30.9591484070
        1.4160301685,        0.0947746634,-0.1145510525,-0.0387658961,-6.2178401947,-17.2352714539,-30.9591484070
        1.4187881947,        0.0962395072,-0.0994143337,-0.0128869899,-6.2178401947,-17.2352714539,-29.8757743835
        1.4215021133,        0.0962395072,-0.0994143337,-0.0128869899,-10.6276302338,-17.3420829773,-29.8757743835
        1.4242110252,        0.0962395072,-0.0994143337,-0.0128869899,-10.6276302338,-13.4358329773,-29.2806816101
        1.4269280434,        0.0962395072,-0.0994143337,0.0173864476,-12.9011898041,-16.5181083679,-29.2806816101
        1.4296371937,        0.1128410697,-0.0750002712,0.0173864476,-12.9011898041,-16.5181083679,-29.4637870789
        1.4323430061,        0.1128410697,-0.0750002712,0.0173864476,-13.2063655853,-15.3889579773,-29.4637870789
        1.4350531101,        0.1128410697,-0.0750002712,0.0173864476,-13.2063655853,-15.3889579773,-30.0588798523
        1.4377720356,        0.1196770072,-0.0486330837,0.0330114476,-12.6265316010,-14.0309257507,-30.0588798523
        1.4404771328,        0.1196770072,-0.0486330837,0.0330114476,-12.6265316010,-10.1246757507,-30.8065605164
        1.4432551861,        0.1196770072,-0.0486330837,0.0330114476,-12.2603206635,-12.9475517273,-30.8065605164
        1.4459631443,        0.1196770072,-0.0486330837,0.0330114476,-12.2603206635,-12.9475517273,-31.5084648132
        1.4486691952,        0.1162590384,-0.0427737087,0.0339880101,-12.3213558197,-11.3301200867,-31.5084648132
        1.4513790607,        0.1162590384,-0.0427737087,0.0339880101,-12.3213558197,-11.3301200867,-32.1493339539
        1.4540860653,        0.1162590384,-0.0427737087,0.0339880101,-10.1240901947,-10.6739921570,-32.1493339539
        1.4567921162,        0.1162590384,-0.0427737087,0.0339880101,-10.1240901947,-10.6739921570,-32.9580497742
        1.4593720436,        0.1221184134,-0.0408205837,0.0471716039,-6.2178401947,-10.0636405945,-32.9580497742
        1.4620630741,        0.1221184134,-0.0408205837,0.0471716039,-6.2178401947,-10.0636405945,-34.3160820007
        1.4646391869,        0.1221184134,-0.0408205837,0.0471716039,-1.4265804291,-9.4227714539,-34.3160820007
        1.4672710896,        0.1221184134,-0.0408205837,0.0486364476,-1.4265804291,-9.4227714539,-34.3160820007
        1.4699800014,        0.1348137259,-0.0408205837,0.0486364476,4.4633121490,-8.5530204773,-34.7433280945
        1.4726881981,        0.1348137259,-0.0408205837,0.0486364476,4.4633121490,-8.5530204773,-34.7433280945
        1.4754011631,        0.1348137259,-0.0408205837,0.0486364476,10.3837223053,-7.9731864929,-35.0942802429
        1.4780650139,        0.1357902884,-0.0408205837,0.0154333226,10.3837223053,-7.9731864929,-35.0942802429
        1.4806411266,        0.1357902884,-0.0408205837,0.0154333226,16.5177555084,-6.8440361023,-35.0790214539
        1.4832220078,        0.1357902884,-0.0408205837,0.0154333226,16.5177555084,-6.8440361023,-35.0790214539
        1.4857971668,        0.1357902884,-0.0408205837,0.0154333226,21.4463443756,-6.3862724304,-35.3079032898
        1.4885351658,        0.1196770072,-0.0388674587,0.0056676976,21.4463443756,-6.3862724304,-35.3079032898
        1.4911119938,        0.1196770072,-0.0388674587,0.0056676976,24.2387027740,-6.3404960632,-34.8501396179
        1.4936900139,        0.1196770072,-0.0388674587,0.0056676976,24.2387027740,-6.3404960632,-34.8501396179
        1.4963572025,        0.1196770072,-0.0388674587,0.0056676976,25.3220767975,-6.4930839539,-33.9651298523
        1.4990630150,        0.1147941947,-0.0720705837,0.0242223851,25.3220767975,-6.4930839539,-33.9651298523
        1.5017721653,        0.1147941947,-0.0720705837,0.0242223851,27.5651187897,-7.1492118835,-33.2784843445
        1.5044770241,        0.1147941947,-0.0720705837,0.0242223851,27.5651187897,-7.1492118835,-33.2784843445
        1.5071551800,        0.1147941947,-0.0720705837,0.0242223851,32.7225875854,-6.1879081726,-31.7678642273
        1.5097332001,        0.1035637259,-0.0911135525,0.0212926976,32.7225875854,-6.1879081726,-31.7678642273
        1.5123100281,        0.1035637259,-0.0911135525,0.0212926976,36.5220260620,-5.8674736023,-29.2806816101
        1.5148880482,        0.1035637259,-0.0911135525,0.0212926976,36.5220260620,-5.8674736023,-29.2806816101
        1.5175611973,        0.1035637259,-0.0911135525,-0.0270471461,34.1569137573,-5.2876396179,-27.6479911804
        1.5202631950,        0.0801262259,-0.1311526150,-0.0270471461,34.1569137573,-5.2876396179,-27.6479911804
        1.5229680538,        0.0801262259,-0.1311526150,-0.0270471461,27.7482242584,-5.5317802429,-25.1302909851
        1.5257790089,        0.0801262259,-0.1311526150,-0.0270471461,27.7482242584,-5.5317802429,-25.1302909851
        1.5285441875,        0.0947746634,-0.1072268337,-0.0412073024,19.6915836334,-6.8440361023,-23.3144950867
        1.5311200619,        0.0947746634,-0.1072268337,-0.0412073024,19.6915836334,-6.8440361023,-23.3144950867
        1.5337049961,        0.0947746634,-0.1072268337,-0.0412073024,13.6796207428,-7.4391288757,-20.4458427429
        1.5363941193,        0.0947746634,-0.1072268337,-0.0412073024,13.6796207428,-7.4391288757,-20.4458427429
        1.5390651226,        0.1113762259,-0.0476565212,-0.0167932399,10.2006168365,-7.8816337585,-18.6605644226
        1.5418419838,        0.1113762259,-0.0476565212,-0.0167932399,10.2006168365,-7.8816337585,-18.6605644226
        1.5445141792,        0.1113762259,-0.0476565212,-0.0167932399,9.5750064850,-8.0494804382,-18.2333183289
        1.5481309891,        0.1113762259,-0.0476565212,0.0002966039,9.5750064850,-8.0494804382,-18.2333183289
        1.5507080555,        0.1152824759,-0.0403323025,0.0002966039,9.2545719147,-7.3475761414,-17.3940849304
        1.5532810688,        0.1152824759,-0.0403323025,0.0002966039,9.2545719147,-7.3475761414,-17.3940849304
        1.5558531284,        0.1152824759,-0.0403323025,0.0002966039,9.8649234772,-6.3862724304,-16.1123466492
        1.5584909916,        0.1152824759,-0.0383791775,0.0232458226,9.8649234772,-6.3862724304,-16.1123466492
        1.5610589981,        0.1133293509,-0.0383791775,0.0232458226,11.5433902740,-5.6080741882,-15.3799247742
        1.5636310577,        0.1133293509,-0.0383791775,0.0232458226,11.5433902740,-5.6080741882,-15.3799247742
        1.5662531853,        0.1133293509,-0.0383791775,0.0232458226,13.9390201569,-4.9824638367,-15.1968193054
        1.5688340664,        0.1138176322,-0.0081057400,0.0427770726,13.9390201569,-4.9824638367,-15.1968193054
        1.5714070797,        0.1138176322,-0.0081057400,0.0427770726,13.9390201569,-4.1279716492,-15.2120780945
        1.5739741325,        0.1138176322,-0.0081057400,0.0427770726,16.9602603912,-4.1279716492,-15.2120780945
        1.5765731335,        0.1138176322,-0.0081057400,0.0427770726,16.9602603912,-4.1279716492,-15.3341484070
        1.5791451931,        0.1206535697,0.0041012913,0.0418005101,19.7068424225,-3.0140800476,-15.3341484070
        1.5817201138,        0.1206535697,0.0041012913,0.0418005101,19.7068424225,-3.0140800476,-15.3341484070
        1.5842971802,        0.1206535697,0.0041012913,0.0418005101,21.6599674225,-2.0222587585,-15.2883720398
        1.5869221687,        0.1206535697,0.0041012913,0.0418005101,21.6599674225,-2.0222587585,-15.2883720398
        1.5896050930,        0.1138176322,-0.0164065212,0.0452184789,22.2092838287,-1.2135429382,-14.4949150085
        1.5921771526,        0.1138176322,-0.0164065212,0.0452184789,22.2092838287,-1.2135429382,-14.4949150085
        1.5947520733,        0.1138176322,-0.0164065212,0.0452184789,20.6528873444,-0.4963798523,-13.1368827820
        1.5974450111,        0.1138176322,-0.0164065212,0.0452184789,20.6528873444,-0.4963798523,-13.1368827820
        1.6000261307,        0.1006340384,-0.0359377712,0.0325231664,19.0507144928,0.3886299133,-12.8469657898
        1.6025991440,        0.1006340384,-0.0359377712,0.0325231664,19.0507144928,0.3886299133,-12.8469657898
        1.6051781178,        0.1006340384,-0.0359377712,0.0325231664,17.6621646881,1.3957099915,-10.6649589539
        1.6079411507,        0.1006340384,-0.0359377712,0.0325231664,17.6621646881,1.3957099915,-10.6649589539
        1.6106321812,        0.0933098197,-0.0515627712,0.0110387914,15.6480045319,1.7924385071,-8.2998466492
        1.6133260727,        0.0933098197,-0.0515627712,0.0110387914,15.6480045319,1.7924385071,-8.2998466492
        1.6160190105,        0.0933098197,-0.0515627712,0.0110387914,13.5270328522,1.9297676086,-7.3690605164
        1.6187021732,        0.0933098197,-0.0515627712,0.0022497289,13.5270328522,1.9297676086,-7.3690605164
        1.6213979721,        0.0698723197,-0.0852541775,0.0022497289,10.8872623444,1.9450263977,-6.8655204773
        1.6240551472,        0.0698723197,-0.0852541775,0.0022497289,10.8872623444,1.9450263977,-6.8655204773
        1.6267690659,        0.0698723197,-0.0852541775,0.0022497289,8.0643863678,2.2959785461,-4.8818778992
        1.6294760704,        0.0737785697,-0.0505862087,0.0027380101,8.0643863678,2.2959785461,-4.8818778992
        1.6331040859,        0.0737785697,-0.0505862087,0.0027380101,5.7908267975,2.6621894836,-2.4099540710
        1.6356780529,        0.0737785697,-0.0505862087,0.0027380101,5.7908267975,2.6621894836,-2.4099540710
        1.6382830143,        0.0737785697,-0.0505862087,0.0027380101,3.9750308990,2.3722724915,-1.2197685242
        1.6408581734,        0.0913566947,-0.0203127712,0.0095739476,3.9750308990,2.3722724915,-1.2197685242
        1.6434311867,        0.0913566947,-0.0203127712,0.0095739476,3.7156314850,2.7384834290,-0.9756278992
        1.6460011005,        0.0913566947,-0.0203127712,0.0095739476,3.7156314850,2.7384834290,-0.9756278992
        1.6486320496,        0.0913566947,-0.0203127712,0.0095739476,3.7766666412,3.2420234680,-0.5178642273
        1.6512041092,        0.1011223197,0.0084958225,0.0085973851,3.7766666412,3.2420234680,-0.5178642273
        1.6538970470,        0.1011223197,0.0084958225,0.0085973851,3.8987369537,2.7842597961,-0.2889823914
        1.6565411091,        0.1011223197,0.0084958225,0.0085973851,3.8987369537,2.7842597961,-0.2889823914
        1.6591110229,        0.1011223197,0.0084958225,0.0125036351,4.5090885162,2.6316719055,0.2603340149
        1.6616771221,        0.1089348197,0.0280270725,0.0125036351,4.5090885162,2.6316719055,0.2603340149
        1.6642429829,        0.1089348197,0.0280270725,0.0125036351,5.3940982819,3.1199531555,0.4892158508
        1.6669661999,        0.1089348197,0.0280270725,0.0125036351,5.3940982819,3.1199531555,0.4892158508
        1.6695420742,        0.1089348197,0.0353512913,0.0188512914,5.3940982819,3.6845283508,0.0314521790
        1.6721131802,        0.1094231009,0.0353512913,0.0188512914,6.2791080475,3.6845283508,0.0314521790
        1.6746811867,        0.1094231009,0.0353512913,0.0188512914,6.2791080475,3.6845283508,0.0161933899
        1.6773200035,        0.1094231009,0.0353512913,0.0188512914,7.4692935944,4.5695381165,0.0161933899
        1.6798851490,        0.1064934134,0.0265622288,0.0461950414,7.4692935944,4.5695381165,-0.4720878601
        1.6824560165,        0.1064934134,0.0265622288,0.0461950414,8.4305973053,5.0730781555,-0.4720878601
        1.6850261688,        0.1064934134,0.0265622288,0.0461950414,8.4305973053,5.0730781555,-0.4720878601
        1.6876780987,        0.1064934134,0.0265622288,0.0461950414,9.1172428131,5.3477363586,0.7791328430
        1.6903870106,        0.1118645072,0.0353512913,0.0339880101,9.1172428131,5.3477363586,0.7791328430
        1.6930940151,        0.1118645072,0.0353512913,0.0339880101,9.7428531647,5.7292060852,1.5573310852
        1.6958050728,        0.1118645072,0.0353512913,0.0339880101,9.7428531647,5.7292060852,5.4635810852
        1.6985580921,        0.1118645072,0.0353512913,0.0339880101,9.6818180084,6.4463691711,2.1829414368
        1.7012660503,        0.1069816947,0.0485348850,0.0217809789,9.6818180084,6.4463691711,2.1829414368
        1.7039752007,        0.1069816947,0.0485348850,0.0217809789,9.7123355865,7.1635322571,2.9458808899
        1.7067410946,        0.1069816947,0.0485348850,0.0217809789,9.7123355865,7.1635322571,2.9458808899
        1.7093172073,        0.1069816947,0.0485348850,0.0408239476,9.1630191803,7.2093086243,3.6020088196
        1.7118930817,        0.1060051322,0.0290036350,0.0408239476,9.1630191803,7.2093086243,3.6020088196
        1.7144730091,        0.1060051322,0.0290036350,0.0408239476,9.1325016022,7.0262031555,6.0434150696
        1.7171959877,        0.1060051322,0.0290036350,0.0408239476,9.1325016022,7.0262031555,6.0434150696
        1.7197740078,        0.1060051322,0.0456051975,0.0320348851,8.9493961334,7.5144844055,6.2265205383
        1.7223479748,        0.1099113822,0.0456051975,0.0320348851,8.9493961334,7.5144844055,6.2265205383
        1.7249281406,        0.1099113822,0.0456051975,0.0320348851,9.7275943756,7.5907783508,6.5469551086
        1.7276301384,        0.1099113822,0.0456051975,0.0320348851,9.7275943756,7.5907783508,6.5469551086
        1.7302060127,        0.1099113822,0.0514645725,0.0173864476,10.4752750397,7.4229316711,7.7981758118
        1.7328941822,        0.0908684134,0.0514645725,0.0173864476,10.4752750397,7.4229316711,7.7981758118
        1.7354722023,        0.0908684134,0.0514645725,0.0173864476,10.5210514069,7.2856025696,9.2935371399
        1.7382860184,        0.0908684134,0.0514645725,0.0173864476,10.5210514069,7.2856025696,9.2935371399
        1.7408580780,        0.0913566947,0.0373044163,0.0188512914,8.9799137115,7.5144844055,10.9872627258
        1.7434370518,        0.0913566947,0.0373044163,0.0188512914,8.9799137115,7.5144844055,10.9872627258
        1.7460131645,        0.0913566947,0.0373044163,0.0188512914,7.2861881256,7.3771553040,12.1469306946
        1.7488501072,        0.0913566947,0.0373044163,0.0188512914,7.2861881256,7.3771553040,12.1469306946
        1.7521011829,        0.0889152884,0.0641598850,0.0105505101,6.2485904694,7.1330146790,13.2760810852
        1.7548151016,        0.0889152884,0.0641598850,0.0105505101,6.2485904694,7.1330146790,13.2760810852
        1.7575390339,        0.0889152884,0.0641598850,0.0105505101,6.3554019928,7.0719795227,13.8864326477
        1.7602400780,        0.0889152884,0.0885739475,-0.0026330836,6.3554019928,7.0719795227,13.8864326477
        1.7629439831,        0.1016106009,0.0885739475,-0.0026330836,7.1488590240,6.6752510071,14.3289375305
        1.7656571865,        0.1016106009,0.0885739475,-0.0026330836,7.1488590240,6.6752510071,14.3289375305
        1.7683742046,        0.1016106009,0.0885739475,-0.0026330836,8.6442203522,7.0872383118,15.0613594055
        1.7710790634,        0.0957512259,0.1105466038,0.0154333226,8.6442203522,7.0872383118,15.0613594055
        1.7737891674,        0.0957512259,0.1105466038,0.0154333226,9.8344058990,7.2703437805,15.5496406555
        1.7765390873,        0.0957512259,0.1105466038,0.0154333226,9.8344058990,7.2703437805,15.5496406555
        1.7792561054,        0.0957512259,0.1105466038,0.0154333226,11.2382144928,7.3008613586,15.5801582336
        1.7819600105,        0.0923332572,0.1100583225,0.0276403539,11.2382144928,7.3008613586,15.5801582336
        1.7847731113,        0.0923332572,0.1100583225,0.0276403539,12.2147769928,7.2703437805,16.3125801086
        1.7874710560,        0.0923332572,0.1100583225,0.0276403539,12.2147769928,7.2703437805,16.3125801086
        1.7900400162,        0.0923332572,0.1100583225,0.0022497289,12.3521060944,7.4076728821,17.1060371399
        1.7926170826,        0.0771965384,0.1071286350,0.0022497289,12.3521060944,7.4076728821,17.1060371399
        1.7951951027,        0.0771965384,0.1071286350,0.0022497289,12.2300357819,8.0485420227,18.1131172180
        1.7978210449,        0.0771965384,0.1071286350,0.0022497289,12.2300357819,8.0485420227,18.1131172180
        1.8003971577,        0.0771965384,0.1071286350,0.0051794164,11.7875308990,8.6131172180,19.5169258118
        1.8029720783,        0.0620598197,0.1100583225,0.0051794164,11.7875308990,8.6131172180,19.5169258118
        1.8055491447,        0.0620598197,0.1100583225,0.0051794164,11.7875308990,8.7962226868,20.6765937805
        1.8083930016,        0.0620598197,0.1100583225,0.0051794164,11.8943424225,8.7962226868,20.6765937805
        1.8110971451,        0.0601066947,0.1193356663,-0.0285119899,11.8943424225,8.8267402649,21.9125556946
        1.8138020039,        0.0601066947,0.1193356663,-0.0285119899,10.6126041412,8.8267402649,21.9125556946
        1.8165450096,        0.0601066947,0.1193356663,-0.0285119899,6.7063541412,8.9945869446,22.9654121399
        1.8192510605,        0.0601066947,0.1193356663,-0.0285119899,9.0867252350,8.9945869446,22.9654121399
        1.8219630718,        0.0415520072,0.1188473850,-0.0499963649,9.0867252350,10.4441719055,23.9419746399
        1.8246681690,        0.0415520072,0.1188473850,-0.0499963649,7.2709293365,10.4441719055,23.9419746399
        1.8273839951,        0.0415520072,0.1188473850,-0.0499963649,3.3646793365,12.0768623352,24.7506904602
        1.8300890923,        0.0415520072,0.1188473850,-0.0499963649,5.3483219147,12.0768623352,24.7506904602
        1.8327879906,        0.0166496634,0.1212887913,-0.0529260524,2.6932926178,14.1825752258,25.6967353821
        1.8355550766,        0.0166496634,0.1212887913,-0.0529260524,2.6932926178,14.1825752258,25.6967353821
        1.8382380009,        0.0166496634,0.1212887913,-0.0529260524,-1.2129573822,14.6250801086,27.6193428040
        1.8408131599,        0.0166496634,0.1212887913,-0.0231408961,0.4807682037,14.6250801086,27.6193428040
        1.8436830044,        0.0259270072,0.1242184788,-0.0231408961,0.4807682037,14.7624092102,29.3893623352
        1.8463070393,        0.0259270072,0.1242184788,-0.0231408961,-1.0145931244,14.7624092102,29.3893623352
        1.8489952087,        0.0259270072,0.1242184788,-0.0231408961,-1.0145931244,14.3961982727,30.9457588196
        1.8515670300,        0.0278801322,0.1320309788,0.0046911351,-1.2892513275,14.3961982727,30.9457588196
        1.8541381359,        0.0278801322,0.1320309788,0.0046911351,-1.2892513275,14.3961982727,32.6089668274
        1.8567609787,        0.0278801322,0.1320309788,0.0046911351,-1.4723567963,14.2283515930,32.6089668274
        1.8593330383,        0.0278801322,0.1320309788,0.0046911351,-1.4723567963,14.2283515930,36.5152168274
        1.8619000912,        0.0059074759,0.1540036350,-0.0045862086,-1.4876155853,14.1978340149,33.7686347961
        1.8644731045,        0.0059074759,0.1540036350,-0.0045862086,-1.4876155853,14.1978340149,33.7686347961
        1.8670961857,        0.0059074759,0.1540036350,-0.0045862086,-1.7012386322,14.1062812805,35.0961494446
        1.8696670532,        0.0059074759,0.1540036350,-0.0045862086,-1.7012386322,14.1062812805,35.0961494446
        1.8722350597,       -0.0028815866,0.1422848850,-0.0031213649,-2.3268489838,14.3351631165,36.9882392883
        1.8748049736,       -0.0028815866,0.1422848850,-0.0031213649,-2.3268489838,14.3351631165,36.9882392883
        1.8773841858,       -0.0028815866,0.1422848850,-0.0031213649,-2.6015071869,14.1978340149,38.1631660461
        1.8799521923,       -0.0028815866,0.1422848850,-0.0031213649,-2.6015071869,14.1978340149,38.1631660461
        1.8825252056,       -0.0209479928,0.1544919163,0.0037145726,-3.0134944916,13.4959297180,39.1397285461
        1.8850901127,       -0.0209479928,0.1544919163,0.0037145726,-3.0134944916,13.4959297180,39.1397285461
        1.8878221512,       -0.0209479928,0.1544919163,0.0037145726,-4.3104915619,12.9771308899,40.0857734680
        1.8903892040,       -0.0209479928,0.1544919163,0.0037145726,-4.3104915619,12.9771308899,40.0857734680
        1.8929591179,       -0.0336433053,0.1461911350,-0.0094690211,-5.6685237885,12.5041084290,41.0623359680
        1.8955271244,       -0.0336433053,0.1461911350,-0.0094690211,-5.6685237885,12.5041084290,41.0623359680
        1.8983211517,       -0.0336433053,0.1461911350,-0.0094690211,-7.1486263275,11.9395332336,43.1222724915
        1.9010241032,       -0.0336433053,0.1461911350,-0.0094690211,-7.1486263275,11.9395332336,43.1222724915
        1.9037201405,       -0.0629401803,0.1408200413,-0.0031213649,-8.7050228119,11.5428047180,44.4497871399
        1.9064741135,       -0.0629401803,0.1408200413,-0.0031213649,-8.7050228119,11.5428047180,44.4497871399
        1.9091720581,       -0.0629401803,0.1408200413,-0.0031213649,-8.6439876556,11.1765937805,45.7162666321
        1.9119842052,       -0.0629401803,0.1627926975,-0.0280237086,-8.6439876556,11.1765937805,45.7162666321
        1.9146831036,       -0.0692878366,0.1627926975,-0.0280237086,-8.2777767181,9.9711494446,46.7233467102
        1.9173920155,       -0.0692878366,0.1627926975,-0.0280237086,-8.2777767181,9.9711494446,46.7233467102
        1.9200911522,       -0.0692878366,0.1627926975,-0.0280237086,-7.0112972260,9.1166572571,48.2644844055
        1.9227890968,       -0.0741706491,0.1579098850,-0.0294885524,-7.0112972260,9.1166572571,48.2644844055
        1.9254870415,       -0.0741706491,0.1579098850,-0.0294885524,-5.2717952728,7.8349189758,49.0884590149
        1.9281129837,       -0.0741706491,0.1579098850,-0.0294885524,-5.2717952728,7.8349189758,49.0884590149
        1.9306809902,       -0.0741706491,0.1579098850,-0.0294885524,-5.2717952728,6.5379219055,49.4699287415
        1.9332480431,       -0.1205573678,0.1334958225,-0.0250940211,-3.4712581635,6.5379219055,49.4699287415
        1.9358201027,       -0.1205573678,0.1334958225,-0.0250940211,-3.4712581635,6.5379219055,49.5614814758
        1.9386110306,       -0.1205573678,0.1334958225,-0.0250940211,-1.1671810150,6.5226631165,49.5614814758
        1.9413201809,       -0.1205573678,0.1334958225,-0.0250940211,-1.1671810150,10.4289131165,49.5309638977
        1.9440271854,       -0.2143073678,0.0832028538,-0.0348596461,0.6028385162,7.4076728821,49.5309638977
        1.9467451572,       -0.2143073678,0.0832028538,-0.0348596461,0.6028385162,7.4076728821,50.3244209290
        1.9494600296,       -0.2143073678,0.0832028538,-0.0348596461,3.2120914459,7.7586250305,50.3244209290
        1.9521670341,       -0.3393073678,0.0499997288,-0.0006799586,3.2120914459,7.7586250305,52.5369453430
        1.9549801350,       -0.2973151803,0.0499997288,-0.0006799586,5.9281558990,8.0638008118,52.5369453430
        1.9584190845,       -0.2973151803,0.0499997288,-0.0006799586,10.3379459381,7.2093086243,56.6873359680
        1.9609920979,       -0.2973151803,0.0499997288,-0.0006799586,10.3379459381,7.2093086243,56.6873359680
        1.9635632038,       -0.3646979928,0.0197262913,0.0603551976,18.1504459381,5.5613594055,61.1429023743
        1.9661321640,       -0.3646979928,0.0197262913,0.0603551976,17.4027652740,5.5613594055,61.1429023743
        1.9688320160,       -0.3646979928,0.0197262913,0.0603551976,17.4027652740,2.5706367493,65.2627716064
        1.9713981152,       -0.3646979928,0.0197262913,0.0603551976,26.6801090240,2.5706367493,65.2627716064
        1.9739701748,       -0.4359870553,-0.0447268337,0.0950231701,26.6801090240,2.5706367493,67.9178009033
        1.9766790867,       -0.4359870553,-0.0447268337,0.0950231701,37.8037643433,0.0224189758,67.9178009033
        1.9792501926,       -0.4359870553,-0.0447268337,0.0950231701,37.8037643433,0.0224189758,69.6573028564
        1.9818191528,       -0.4359870553,-0.0447268337,0.0950231701,51.4146041870,-3.1514091492,69.6573028564
        1.9843921661,       -0.4838386178,-0.1179690212,0.1501989514,51.4146041870,-3.1514091492,69.6573028564
        1.9869740009,       -0.4838386178,-0.1179690212,0.1501989514,66.1698532104,-7.6374931335,70.7254180908
        1.9895510674,       -0.4838386178,-0.1179690212,0.1501989514,66.1698532104,-7.6374931335,70.7254180908
        1.9921231270,       -0.4838386178,-0.1179690212,0.1423864514,80.7725143433,-12.4745292664,71.2899932861
        1.9946961403,       -0.5531745553,-0.1853518337,0.1423864514,80.7725143433,-12.4745292664,71.2899932861
        1.9973330498,       -0.5531745553,-0.1853518337,0.1423864514,88.5087203979,-15.2363700867,72.1597442627
        1.9999051094,       -0.5531745553,-0.1853518337,0.1423864514,88.5087203979,-15.2363700867,72.1597442627
        2.0024740696,       -0.5531745553,-0.1853518337,0.1628942639,93.7882614136,-19.6003837585,74.1586456299
        2.0050489902,       -0.5707526803,-0.2029299587,0.1628942639,93.7882614136,-19.6003837585,74.1586456299
        2.0077991486,       -0.5707526803,-0.2029299587,0.1628942639,99.0830612183,-22.8657646179,75.9897003174
        2.0103759766,       -0.5707526803,-0.2029299587,0.1628942639,99.0830612183,-22.8657646179,75.9897003174
        2.0129511356,       -0.4457526803,-0.0964846462,0.1472692639,100.8378219604,-24.5289726257,76.7678985596
        2.0155200958,       -0.5014167428,-0.0964846462,0.1472692639,100.8378219604,-24.5289726257,76.7678985596
        2.0182161331,       -0.5014167428,-0.0964846462,0.1472692639,97.5419235229,-22.4690361023,77.6986846924
        2.0207910538,       -0.5014167428,-0.0964846462,0.1472692639,97.5419235229,-22.4690361023,77.6986846924
        2.0233631134,       -0.4594245553,-0.1018557400,0.1379919201,89.7294235229,-18.5322685242,77.9123077393
        2.0259339809,       -0.4594245553,-0.1018557400,0.1379919201,89.0885543823,-18.5322685242,77.9123077393
        2.0285191536,       -0.4594245553,-0.1018557400,0.1379919201,89.0885543823,-14.6260185242,74.9673614502
        2.0310890675,       -0.4594245553,-0.1018557400,0.1379919201,76.1033248901,-14.9769706726,74.9673614502
        2.0336639881,       -0.3705573678,-0.1443362087,0.2112341076,76.1033248901,-14.9769706726,70.7864532471
        2.0363111496,       -0.3705573678,-0.1443362087,0.2112341076,68.6875534058,-13.2222099304,70.7864532471
        2.0392470360,       -0.3705573678,-0.1443362087,0.2112341076,68.6875534058,-13.2222099304,70.8780059814
        2.0418231487,       -0.3705573678,-0.1443362087,0.2112341076,69.0842819214,-10.7808036804,70.8780059814
        2.0443971157,       -0.3300300241,0.1129880100,0.2278356701,69.0842819214,-10.7808036804,75.5777130127
        2.0470991135,       -0.3300300241,0.1129880100,0.2278356701,72.7616500854,-5.6080741882,75.5777130127
        2.0497701168,       -0.3300300241,0.1129880100,0.2278356701,72.7616500854,-5.6080741882,83.3902130127
        2.0533339977,       -0.3300300241,0.1818356663,0.2732458115,76.4390182495,-0.5268974304,81.3760528564
        2.0559129715,       -0.3222175241,0.1818356663,0.2732458115,72.5327682495,3.9286689758,82.8256378174
        2.0586349964,       -0.3222175241,0.1818356663,0.2732458115,71.9071578979,3.9286689758,82.8256378174
        2.0612041950,       -0.3222175241,0.1818356663,0.2732458115,71.9071578979,3.9286689758,79.4381866455
        2.0637700558,       -0.1249518991,0.1662106663,0.2136755139,69.2368698120,5.8360176086,79.4381866455
        2.0663411617,       -0.1249518991,0.1662106663,0.2136755139,69.2368698120,5.8360176086,75.0283966064
        2.0689179897,       -0.1249518991,0.1662106663,0.2136755139,70.2439498901,2.6469306946,75.0283966064
        2.0714890957,       -0.1249518991,0.1662106663,0.2136755139,70.2439498901,2.6469306946,75.0283966064
        2.0740611553,        0.1465324759,0.1032223850,0.2444372326,69.3436813354,-1.9001884460,68.1161651611
        2.0766420364,        0.1465324759,0.1032223850,0.2444372326,69.3436813354,-1.9001884460,68.1161651611
        2.0792140961,        0.1465324759,0.1032223850,0.2444372326,73.7382125854,-6.4625663757,57.1603584290
        2.0817780495,        0.1465324759,0.1032223850,0.2444372326,73.7382125854,-6.4625663757,57.1603584290
        2.0843491554,        0.2734856009,-0.0012698025,0.3201208115,81.4286422729,-12.4592704773,43.0459785461
        2.0869791508,        0.2734856009,-0.0012698025,0.3201208115,81.4286422729,-12.4592704773,43.0459785461
        2.0895490646,        0.2734856009,-0.0012698025,0.3201208115,88.4782028198,-16.2129325867,28.3212471008
        2.0921230316,        0.2734856009,-0.0012698025,0.3201208115,88.4782028198,-16.2129325867,28.3212471008
        2.0946960449,        0.1851066947,-0.2937502861,0.1946325451,93.8187789917,-15.2211112976,8.9425849915
        2.0974249840,        0.1851066947,-0.2937502861,0.1946325451,93.8187789917,-15.2211112976,8.9425849915
        2.1000010967,        0.1851066947,-0.2937502861,0.1946325451,96.4432907104,-15.0837821960,-13.2436943054
        2.1026880741,        0.1851066947,-0.2937502861,0.1946325451,96.4432907104,-15.0837821960,-13.2436943054
        2.1052560806,        0.2773918509,-0.5579104424,0.0637731701,96.5501022339,-15.0532646179,-32.0272636414
        2.1079730988,        0.2773918509,-0.5579104424,0.0637731701,96.5501022339,-15.0532646179,-32.0272636414
        2.1105451584,        0.2773918509,-0.5579104424,0.0637731701,88.7376022339,-14.5497245789,-44.0664482117
        2.1131150723,        0.2773918509,-0.5579104424,-0.0573205836,91.9877243042,-14.5497245789,-44.0664482117
        2.1156830788,        0.3955559134,-0.6091799736,-0.0573205836,91.9877243042,-14.5497245789,-51.7416191101
        2.1182739735,        0.3955559134,-0.6091799736,-0.0573205836,83.5648727417,-13.9241142273,-51.7416191101
        2.1208391190,        0.3955559134,-0.6091799736,-0.0573205836,83.5648727417,-13.9241142273,-60.5611991882
        2.1234130859,        0.3955559134,-0.6091799736,-0.0900354236,72.5938034058,-13.4816093445,-60.5611991882
        2.1259911060,        0.5000481009,-0.5876955986,-0.0900354236,72.5938034058,-13.4816093445,-71.7001190186
        2.1287550926,        0.5000481009,-0.5876955986,-0.0900354236,59.8374557495,-13.7257499695,-71.7001190186
        2.1314611435,        0.5000481009,-0.5876955986,-0.0900354236,59.8374557495,-13.7257499695,-83.3425750732
        2.1341741085,        0.5000481009,-0.4866213799,-0.1188440174,47.5846481323,-13.6189384460,-83.3425750732
        2.1369290352,        0.5718254447,-0.4866213799,-0.1188440174,47.5846481323,-13.6189384460,-95.3665008545
        2.1396391392,        0.5718254447,-0.4866213799,-0.1188440174,37.1628952026,-12.7034111023,-95.3665008545
        2.1423490047,        0.5718254447,-0.4866213799,-0.1188440174,37.1628952026,-12.7034111023,-107.0852508545
        2.1450510025,        0.6016106009,-0.3762698174,-0.1168908924,28.6942691803,-12.1540946960,-106.2002410889
        2.1477720737,        0.6016106009,-0.3762698174,-0.1168908924,28.6942691803,-12.1540946960,-117.9189910889
        2.1504781246,        0.6016106009,-0.3762698174,-0.1168908924,20.9428043365,-11.4216728210,-116.5762176514
        2.1531870365,        0.6016106009,-0.3762698174,-0.1168908924,20.9428043365,-11.4216728210,-124.3887176514
        2.1559000015,        0.5854973197,-0.3147463799,-0.1144494861,12.1232242584,-11.6505546570,-126.2655487061
        2.1585140228,        0.5854973197,-0.3147463799,-0.1144494861,12.1232242584,-11.6505546570,-126.2655487061
        2.1610910892,        0.5854973197,-0.3147463799,-0.1144494861,3.0595035553,-12.8102226257,-136.3821258545
        2.1637880802,        0.5854973197,-0.3147463799,-0.0841760486,3.0595035553,-12.8102226257,-136.3821258545
        2.1665441990,        0.5439934134,-0.2981448174,-0.0841760486,-5.6380062103,-14.3361015320,-147.2311248779
        2.1692440510,        0.5439934134,-0.2981448174,-0.0841760486,-5.6380062103,-14.3361015320,-147.2311248779
        2.1719481945,        0.5439934134,-0.2981448174,-0.0841760486,-13.0537776947,-15.3889579773,-158.4615936279
        2.1746520996,        0.4937004447,-0.2849612236,-0.0817346424,-13.0537776947,-15.3889579773,-158.4615936279
        2.1773700714,        0.4937004447,-0.2849612236,-0.0817346424,-19.7981624603,-16.5791435242,-169.0206756592
        2.1800770760,        0.4937004447,-0.2849612236,-0.0817346424,-19.7981624603,-16.5791435242,-169.0206756592
        2.1827800274,        0.4937004447,-0.2849612236,-0.0817346424,-26.8324642181,-17.7693290710,-177.8249969482
        2.1854870319,        0.4321770072,-0.2620120049,-0.0768518299,-26.8324642181,-17.7693290710,-177.8249969482
        2.1882131100,        0.4321770072,-0.2620120049,-0.0768518299,-33.3479690552,-18.4407157898,-187.0718231201
        2.1909182072,        0.4321770072,-0.2620120049,-0.0768518299,-33.3479690552,-18.4407157898,-187.0718231201
        2.1936299801,        0.4321770072,-0.2620120049,-0.0768518299,-39.9092483521,-19.5240898132,-195.7388153076
        2.1963441372,        0.4204582572,-0.2747073174,-0.0841760486,-39.9092483521,-19.5240898132,-195.7388153076
        2.1989200115,        0.4204582572,-0.2747073174,-0.0841760486,-47.2334671021,-20.6532402039,-204.8635711670
        2.2015011311,        0.4204582572,-0.2747073174,-0.0841760486,-47.2334671021,-20.6532402039,-204.8635711670
        2.2040791512,        0.4204582572,-0.2747073174,-0.0856408924,-53.7337112427,-21.6603202820,-212.3861541748
        2.2066831589,        0.3809074759,-0.2356448025,-0.0856408924,-53.7337112427,-21.6603202820,-212.3861541748
        2.2092680931,        0.3809074759,-0.2356448025,-0.0856408924,-60.5086135864,-22.4842948914,-219.1610565186
        2.2118442059,        0.3809074759,-0.2356448025,-0.0856408924,-60.5086135864,-22.4842948914,-219.1610565186
        2.2144250870,        0.3809074759,-0.1106448025,-0.0788049549,-65.5287551880,-22.3927421570,-225.6002655029
        2.2171580791,        0.3184074759,-0.1614260525,-0.0788049549,-65.5287551880,-22.3927421570,-225.6002655029
        2.2198710442,        0.3184074759,-0.1614260525,-0.0788049549,-68.9772415161,-21.8739433289,-231.6885223389
        2.2225821018,        0.3184074759,-0.1614260525,-0.0788049549,-68.9772415161,-21.8739433289,-231.6885223389
        2.2252900600,        0.2588371634,-0.0969729275,-0.0719690174,-72.7614212036,-21.8129081726,-237.1664276123
        2.2281231880,        0.2588371634,-0.0969729275,-0.0719690174,-72.7614212036,-21.8129081726,-237.1664276123
        2.2309420109,        0.2588371634,-0.0969729275,-0.0719690174,-76.3930130005,-21.3704032898,-242.4612274170
        2.2336490154,        0.2588371634,-0.0969729275,-0.0719690174,-76.3930130005,-21.3704032898,-242.4612274170
        2.2363731861,        0.2187981009,-0.0500979275,-0.0851526111,-80.8485794067,-21.4619560242,-248.2443084717
        2.2390840054,        0.2187981009,-0.0500979275,-0.0851526111,-80.8485794067,-21.4619560242,-248.2443084717
        2.2417910099,        0.2187981009,-0.0500979275,-0.0851526111,-84.2360305786,-21.2635917664,-253.8442840576
        2.2446551323,        0.2187981009,0.0749020725,-0.0973596424,-84.2360305786,-21.2635917664,-253.8442840576
        2.2474160194,        0.1533684134,-0.0017580837,-0.0973596424,-86.3722610474,-20.3328056335,-258.2693176270
        2.2499971390,        0.1533684134,-0.0017580837,-0.0973596424,-86.3722610474,-20.3328056335,-258.2693176270
        2.2526731491,        0.1533684134,-0.0017580837,-0.0973596424,-86.4027786255,-18.9289970398,-261.9466857910
        2.2560009956,        0.0859856009,0.0700192600,-0.1032190174,-86.4027786255,-18.9289970398,-261.9466857910
        2.2586569786,        0.0859856009,0.0700192600,-0.1032190174,-86.5706253052,-17.0521659851,-265.1357727051
        2.2612311840,        0.0859856009,0.0700192600,-0.1032190174,-86.5706253052,-17.0521659851,-265.1357727051
        2.2638061047,        0.0859856009,0.0700192600,-0.1032190174,-86.2959671021,-15.1295585632,-268.2485656738
        2.2663781643,        0.0518059134,0.1071286350,-0.1037072986,-86.2959671021,-15.1295585632,-268.2485656738
        2.2689530849,        0.0518059134,0.1071286350,-0.1037072986,-85.9755325317,-13.7562675476,-271.3918762207
        2.2715201378,        0.0518059134,0.1071286350,-0.1037072986,-85.9755325317,-13.7562675476,-271.3918762207
        2.2740900517,        0.0518059134,0.1071286350,-0.1037072986,-85.4414749146,-12.7949638367,-274.9471740723
        2.2767121792,        0.0146965384,0.1437497288,-0.0851526111,-85.4414749146,-12.7949638367,-274.9471740723
        2.2792840004,        0.0146965384,0.1437497288,-0.0851526111,-85.4414749146,-11.3453788757,-278.6245422363
        2.2818570137,        0.0146965384,0.1437497288,-0.0851526111,-83.6104202271,-11.3453788757,-278.6245422363
        2.2844290733,        0.0146965384,0.1437497288,-0.0851526111,-83.6104202271,-11.3453788757,-281.8746643066
        2.2870140076,       -0.0233893991,0.1828122288,-0.0646447986,-81.1690139771,-10.1857109070,-281.8746643066
        2.2895941734,       -0.0233893991,0.1828122288,-0.0646447986,-81.1690139771,-10.1857109070,-284.8501281738
        2.2921731472,       -0.0233893991,0.1828122288,-0.0646447986,-78.2240676880,-8.7819023132,-284.8501281738
        2.2948651314,       -0.0233893991,0.1828122288,-0.0539026149,-78.2240676880,-8.7819023132,-287.7645568848
        2.2976222038,       -0.0482917428,0.1974606663,-0.0539026149,-76.1030960083,-6.9661064148,-287.7645568848
        2.3001999855,       -0.0482917428,0.1974606663,-0.0539026149,-76.1030960083,-6.9661064148,-287.7645568848
        2.3027720451,       -0.0482917428,0.1974606663,-0.0539026149,-74.4704055786,-6.3862724304,-289.3667297363
        2.3053491116,       -0.0482917428,0.2003903538,-0.0436487086,-74.4704055786,-6.3862724304,-289.3667297363
        2.3080880642,       -0.0766120553,0.2003903538,-0.0436487086,-73.0971145630,-5.1197929382,-290.9383850098
        2.3107771873,       -0.0766120553,0.2003903538,-0.0436487086,-73.0971145630,-5.1197929382,-290.9383850098
        2.3134679794,       -0.0766120553,0.2003903538,-0.0436487086,-72.4257278442,-3.6854667664,-292.4032287598
        2.3161621094,       -0.0985847116,0.1920895725,-0.0387658961,-72.4257278442,-3.6854667664,-292.4032287598
        2.3188540936,       -0.0985847116,0.1920895725,-0.0387658961,-71.5559768677,-2.8920097351,-293.6544494629
        2.3215441704,       -0.0985847116,0.1920895725,-0.0387658961,-71.5559768677,-2.8920097351,-293.6544494629
        2.3242361546,       -0.0985847116,0.1920895725,-0.0387658961,-70.6099319458,-2.2053642273,-295.4549865723
        2.3269371986,       -0.1190925241,0.1823239475,-0.0470666774,-70.6099319458,-2.2053642273,-295.4549865723
        2.3296260834,       -0.1190925241,0.1823239475,-0.0470666774,-70.7472610474,-2.1290702820,-296.6909484863
        2.3323180676,       -0.1190925241,0.1823239475,-0.0470666774,-70.7472610474,-2.1290702820,-296.6909484863
        2.3350090981,       -0.1190925241,0.1823239475,-0.0470666774,-72.6698684692,-2.0069999695,-298.4151916504
        2.3377430439,       -0.1503425241,0.1652341038,-0.0358362086,-72.6698684692,-2.0069999695,-298.4151916504
        2.3404321671,       -0.1503425241,0.1652341038,-0.0358362086,-74.0279006958,-1.5644950867,-300.2004699707
        2.3431220055,       -0.1503425241,0.1652341038,-0.0358362086,-74.0279006958,-1.5644950867,-300.2004699707
        2.3458161354,       -0.1503425241,0.1569333225,-0.0167932399,-77.4000930786,-0.9694023132,-301.7110900879
        2.3485150337,       -0.2006354928,0.1569333225,-0.0167932399,-77.4000930786,-0.9694023132,-301.7110900879
        2.3512079716,       -0.2006354928,0.1569333225,-0.0167932399,-81.0622024536,-1.0304374695,-303.3742980957
        2.3538961411,       -0.2006354928,0.1569333225,-0.0167932399,-81.0622024536,-1.0304374695,-303.3742980957
        2.3566071987,       -0.2401862741,0.1481442600,-0.0163049586,-84.3428421021,-0.7100028992,-304.1219787598
        2.3594071865,       -0.2401862741,0.1481442600,-0.0163049586,-84.3428421021,-0.7100028992,-304.1219787598
        2.3620991707,       -0.2401862741,0.1481442600,-0.0163049586,-87.9133987427,-0.5879325867,-304.6255187988
        2.3649301529,       -0.2401862741,0.1481442600,-0.0163049586,-87.9133987427,-0.5879325867,-305.0680236816
        2.3683772087,       -0.2807136178,0.1339841038,-0.0050744899,-92.8114700317,-1.0304374695,-305.0680236816
        2.3709530830,       -0.2807136178,0.1339841038,-0.0050744899,-92.8114700317,-1.0304374695,-305.0680236816
        2.3735280037,       -0.2807136178,0.1339841038,-0.0050744899,-97.6942825317,-1.0456962585,-305.6173400879
        2.3760941029,       -0.4057136178,0.1437497288,-0.0006799586,-97.6942825317,-1.0456962585,-305.6173400879
        2.3789660931,       -0.3173347116,0.1437497288,-0.0006799586,-100.7307815552,-1.1677665710,-306.7922668457
        2.3815431595,       -0.3173347116,0.1437497288,-0.0006799586,-100.7307815552,-1.1677665710,-306.7922668457
        2.3843929768,       -0.3173347116,0.1437497288,-0.0006799586,-102.1040725708,-0.8320732117,-308.1655578613
        2.3869881630,       -0.3695808053,0.1164059788,-0.0094690211,-102.1040725708,-0.8320732117,-308.1655578613
        2.3895680904,       -0.3695808053,0.1164059788,-0.0094690211,-103.6757278442,-0.5726737976,-309.1421203613
        2.3921430111,       -0.3695808053,0.1164059788,-0.0094690211,-103.6757278442,-0.5726737976,-309.1421203613
        2.3947100639,       -0.3695808053,0.1164059788,-0.0094690211,-107.0631790161,-0.2064628601,-309.7219543457
        2.3973331451,       -0.4159675241,0.0978512913,-0.0065393336,-107.0631790161,-0.2064628601,-309.7219543457
        2.3999021053,       -0.4159675241,0.0978512913,-0.0065393336,-111.3356399536,-0.0233573914,-310.4543762207
        2.4024779797,       -0.4159675241,0.0978512913,-0.0065393336,-111.3356399536,-0.0233573914,-310.4543762207
        2.4050590992,       -0.4159675241,0.0978512913,-0.0065393336,-114.9672317505,1.1668281555,-311.1867980957
        2.4076809883,       -0.4789558053,0.1115231663,-0.0246057399,-114.9672317505,1.1668281555,-311.1867980957
        2.4102571011,       -0.4789558053,0.1115231663,-0.0246057399,-118.0800247192,4.1728096008,-311.6750793457
        2.4128320217,       -0.4789558053,0.1115231663,-0.0246057399,-118.0800247192,4.1728096008,-311.6750793457
        2.4153990746,       -0.4789558053,0.1115231663,-0.0246057399,-121.9862747192,7.2245674133,-311.3393859863
        2.4179840088,       -0.5390143991,0.1637692600,-0.0148401149,-119.5296096802,7.2245674133,-311.3393859863
        2.4205520153,       -0.5390143991,0.1637692600,-0.0148401149,-119.5296096802,7.2245674133,-308.8979797363
        2.4232339859,       -0.5390143991,0.1637692600,-0.0148401149,-124.2598342896,7.8806953430,-308.8979797363
        2.4258170128,       -0.5390143991,0.1637692600,-0.0148401149,-124.2598342896,7.8806953430,-304.7170715332
        2.4285600185,       -0.5814948678,0.2648434639,-0.0397424586,-124.2750930786,9.3302803040,-304.7170715332
        2.4311370850,       -0.5814948678,0.2648434639,-0.0397424586,-124.2750930786,9.3302803040,-301.0244445801
        2.4337069988,       -0.5814948678,0.2648434639,-0.0397424586,-117.1492385864,15.6779365540,-301.0244445801
        2.4363741875,       -0.5814948678,0.2648434639,-0.0783166736,-117.1492385864,15.6779365540,-293.2119445801
        2.4389560223,       -0.6054206491,0.3834958076,-0.0783166736,-112.3427200317,20.6370429993,-295.0429992676
        2.4415249825,       -0.6054206491,0.3834958076,-0.0783166736,-112.3427200317,20.6370429993,-295.0429992676
        2.4440991879,       -0.6054206491,0.3834958076,-0.0783166736,-113.0293655396,23.8871650696,-284.3313293457
        2.4467461109,       -0.6054206491,0.3493161201,-0.0177698024,-113.0293655396,23.8871650696,-284.3313293457
        2.4494311810,       -0.5600104928,0.3493161201,-0.0177698024,-117.9732131958,27.3356513977,-271.5749816895
        2.4520061016,       -0.5600104928,0.3493161201,-0.0177698024,-117.9732131958,27.3356513977,-271.5749816895
        2.4545791149,       -0.5600104928,0.3493161201,-0.0177698024,-119.4227981567,29.9754219055,-257.1706848145
        2.4572479725,       -0.4350104928,0.4186520576,0.0525426976,-119.4227981567,29.9754219055,-257.1706848145
        2.4598209858,       -0.4750495553,0.4186520576,0.0525426976,-119.2091751099,31.8675117493,-240.9506072998
        2.4633901119,       -0.4750495553,0.4186520576,0.0525426976,-119.2091751099,31.8675117493,-240.9506072998
        2.4659759998,       -0.4750495553,0.4186520576,0.0525426976,-120.7808303833,31.6386299133,-223.7844696045
        2.4685561657,       -0.2118659616,0.5622067451,0.1707067639,-120.7808303833,31.6386299133,-223.7844696045
        2.4711291790,       -0.2118659616,0.5622067451,0.1707067639,-122.7186965942,28.9988594055,-208.3120574951
        2.4737050533,       -0.2118659616,0.5622067451,0.1707067639,-122.7186965942,28.9988594055,-208.3120574951
        2.4762611389,       -0.2118659616,0.5622067451,0.1707067639,-121.8489456177,23.2005195618,-192.9464569092
        2.4788360596,        0.0947746634,0.7794919014,0.3098669052,-121.8489456177,23.2005195618,-192.9464569092
        2.4814171791,        0.0947746634,0.7794919014,0.3098669052,-112.2969436646,15.2964668274,-177.7792205811
        2.4839930534,        0.0947746634,0.7794919014,0.3098669052,-112.2969436646,15.2964668274,-177.7792205811
        2.4866130352,        0.0947746634,0.7794919014,0.3098669052,-90.4768753052,7.5450019836,-161.3912811279
        2.4892861843,        0.2207512259,1.1374020576,0.2986364365,-90.4768753052,7.5450019836,-161.3912811279
        2.4918551445,        0.2207512259,1.1374020576,0.2986364365,-61.5462112427,0.3123359680,-143.6147918701
        2.4944369793,        0.2207512259,1.1374020576,0.2986364365,-61.5462112427,0.3123359680,-143.6147918701
        2.4970111847,        0.2207512259,1.2624020576,0.1658239514,-30.2962093353,-4.6772880554,-124.8617401123
        2.4995841980,        0.2842277884,1.3141598701,0.1658239514,-29.3806819916,-4.6772880554,-124.8617401123
        2.5021569729,        0.2842277884,1.3141598701,0.1658239514,-29.3806819916,-8.5835380554,-105.3915252686
        2.5047240257,        0.2842277884,1.3141598701,0.1658239514,-0.0075130463,-7.0576591492,-105.3915252686
        2.5074620247,        0.2842277884,1.1193356514,0.0266637914,-0.0075130463,-7.0576591492,-86.6079559326
        2.5100381374,        0.1895012259,1.1193356514,0.0266637914,22.2703189850,-7.4696464539,-86.6079559326
        2.5126061440,        0.1895012259,1.1193356514,0.0266637914,22.2703189850,-7.4696464539,-67.0767059326
        2.5151801109,        0.1895012259,1.1193356514,0.0266637914,34.0653610229,-4.6620292664,-66.0391082764
        2.5179231167,        0.0464348197,0.9264645576,-0.0812463611,34.0653610229,-4.6620292664,-46.5078544617
        2.5206291676,        0.0464348197,0.9264645576,-0.0812463611,37.2849655151,-0.3132743835,-45.4702568054
        2.5233421326,        0.0464348197,0.9264645576,-0.0812463611,37.2849655151,-0.3132743835,-22.0327568054
        2.5260519981,        0.0464348197,0.9264645576,-0.0812463611,34.6604537964,5.5918769836,-25.2371025085
        2.5287749767,       -0.0419440866,0.7956051826,-0.1491174549,34.6604537964,5.5918769836,-9.6121025085
        2.5314810276,       -0.0419440866,0.7956051826,-0.1491174549,28.0381412506,12.4430732727,-7.0333671570
        2.5341911316,       -0.0419440866,0.7956051826,-0.1491174549,28.0381412506,12.4430732727,12.4978828430
        2.5369460583,       -0.0419440866,0.7956051826,-0.1491174549,18.6845035553,19.2942695618,10.4379463196
        2.5396480560,       -0.0766120553,0.7448239326,-0.1681604236,18.6845035553,19.2942695618,26.0629463196
        2.5423510075,       -0.0766120553,0.7448239326,-0.1681604236,8.7205142975,25.7792549133,27.8940010071
        2.5450680256,       -0.0766120553,0.7448239326,-0.1681604236,8.7205142975,25.7792549133,47.4252510071
        2.5477201939,       -0.0766120553,0.7335934639,-0.1281213611,0.0535221100,30.5094795227,45.2279853821
        2.5503079891,       -0.0814948678,0.7335934639,-0.1281213611,0.0535221100,30.5094795227,45.2279853821
        2.5531570911,       -0.0814948678,0.7335934639,-0.1281213611,-8.2625179291,33.2713203430,62.1652412415
        2.5557351112,       -0.0814948678,0.7335934639,-0.1281213611,-8.2625179291,33.2713203430,62.1652412415
        2.5584230423,       -0.0092292428,0.6916012764,-0.0490198024,-16.0445003510,33.5002021790,77.9275665283
        2.5610001087,       -0.0092292428,0.6916012764,-0.0490198024,-16.0445003510,33.5002021790,93.5525665283
        2.5641710758,       -0.0092292428,0.6916012764,-0.0490198024,-24.6809749603,31.8675117493,93.2321319580
        2.5668311119,       -0.0092292428,0.6916012764,-0.0490198024,-24.6809749603,31.8675117493,93.2321319580
        2.5694169998,        0.0156731009,0.3478512764,0.0847692639,-33.4395217896,28.3732490540,102.9214630127
        2.5719900131,        0.0156731009,0.3478512764,0.0847692639,-33.4395217896,28.3732490540,102.9214630127
        2.5745611191,        0.0156731009,0.3478512764,0.0847692639,-38.0781936646,18.8517646790,98.9236602783
        2.5772759914,        0.0156731009,0.3478512764,0.0847692639,-38.0781936646,18.8517646790,98.9236602783
        2.5798480511,       -0.0175300241,0.1779294163,0.2883825302,-55.1222610474,14.4114570618,111.7868194580
        2.5824220181,       -0.0175300241,0.1779294163,0.2883825302,-55.1222610474,14.4114570618,111.7868194580
        2.5849940777,       -0.0175300241,0.1779294163,0.2883825302,-46.3026809692,18.9585762024,113.2058868408
        2.5875720978,       -0.0175300241,0.1779294163,0.0383825414,-46.3026809692,18.9585762024,113.2058868408
        2.5901451111,       -0.2816901803,-0.9299807549,0.0442419164,-35.4689407349,23.6430244446,99.3661651611
        2.5927231312,       -0.2816901803,-0.9299807549,0.0442419164,-35.4689407349,23.6430244446,99.3661651611
        2.5952930450,       -0.2816901803,-0.9299807549,0.0442419164,-43.0067825317,21.5678291321,90.6381378174
        2.5979001522,       -0.2816901803,-0.9299807549,-0.1691369861,-43.0067825317,21.5678291321,90.6381378174
        2.6004731655,       -0.3256354928,-1.2400393486,-0.1691369861,-54.7255325317,12.1684150696,92.6522979736
        2.6030390263,       -0.3256354928,-1.2400393486,-0.1691369861,-55.2595901489,12.1684150696,92.6522979736
        2.6056110859,       -0.3256354928,-1.2400393486,-0.1691369861,-55.2595901489,5.1951484680,100.4342803955
        2.6083571911,       -0.3256354928,-0.5012698174,-0.1251916736,-71.0982131958,5.1951484680,100.4342803955
        2.6109290123,       -0.1981940866,-0.5012698174,-0.1251916736,-71.0982131958,5.1951484680,110.2456817627
        2.6135051250,       -0.1981940866,-0.5012698174,-0.1251916736,-86.7079544067,3.9897041321,110.2456817627
        2.6161870956,       -0.1981940866,-0.5012698174,-0.1251916736,-86.7079544067,3.9897041321,119.4772491455
        2.6190450191,       -0.2602058053,0.3434567451,-0.0885705799,-93.0403518677,5.7444648743,119.4772491455
        2.6217501163,       -0.2602058053,0.3434567451,-0.0885705799,-93.0403518677,5.7444648743,124.9398956299
        2.6244530678,       -0.2602058053,0.3434567451,-0.0885705799,-94.5204544067,5.8970527649,124.9398956299
        2.6271719933,       -0.2602058053,0.3434567451,-0.0885705799,-94.5204544067,1.9908027649,121.2014923096
        2.6298770905,       -0.0878425241,0.4030270576,0.0427770726,-96.6872024536,1.0294990540,121.2014923096
        2.6325840950,       -0.0878425241,0.4030270576,0.0427770726,-96.6872024536,1.0294990540,113.1295928955
        2.6352851391,       -0.0878425241,0.4030270576,0.0427770726,-93.0250930786,-5.3944511414,113.1295928955
        2.6380000114,       -0.0878425241,0.4030270576,0.0427770726,-93.0250930786,-5.3944511414,106.6751251221
        2.6407082081,        0.0498527884,0.2003903538,-0.0495080836,-85.4414749146,-7.6374931335,106.6751251221
        2.6434221268,        0.0498527884,0.2003903538,-0.0495080836,-85.4414749146,-7.6374931335,102.1737823486
        2.6461269855,        0.0498527884,0.2003903538,-0.0495080836,-78.3919143677,-6.4473075867,102.1737823486
        2.6487281322,        0.0498527884,0.1930661350,-0.1461877674,-78.3919143677,-6.4473075867,99.6103057861
        2.6513030529,        0.0962395072,0.1930661350,-0.1461877674,-69.5265579224,-3.5633964539,99.6103057861
        2.6538770199,        0.0962395072,0.1930661350,-0.1461877674,-69.5265579224,-3.5633964539,99.6103057861
        2.6565191746,        0.0962395072,0.1930661350,-0.1461877674,-56.8770217896,-2.3121757507,95.3073272705
        2.6592249870,        0.0850090384,0.1330075413,-0.1476526111,-56.8770217896,-2.3121757507,95.3073272705
        2.6619319916,        0.0850090384,0.1330075413,-0.1476526111,-47.8590774536,-4.7383232117,89.7226104736
        2.6646440029,        0.0850090384,0.1330075413,-0.1476526111,-47.8590774536,-4.7383232117,89.7226104736
        2.6673600674,        0.0850090384,0.1330075413,-0.1476526111,-41.6792678833,-9.4532890320,83.4054718018
        2.6700689793,        0.0732902884,0.0729489475,-0.0138635524,-41.6792678833,-9.4532890320,83.4054718018
        2.6729011536,        0.0732902884,0.0729489475,-0.0138635524,-37.6662063599,-14.0767021179,76.3711700439
        2.6756241322,        0.0732902884,0.0729489475,-0.0138635524,-37.6662063599,-14.0767021179,68.5586700439
        2.6783511639,        0.0732902884,0.0729489475,0.1111364514,-35.3773880005,-17.3268241882,69.8709259033
        2.6811680794,        0.0552238822,0.1344723850,0.1057653576,-35.3773880005,-17.3268241882,65.9646759033
        2.6838791370,        0.0552238822,0.1344723850,0.1057653576,-34.3855667114,-18.9289970398,64.6219024658
        2.6866002083,        0.0552238822,0.1344723850,0.1057653576,-34.3855667114,-18.9289970398,64.6219024658
        2.6891729832,        0.0552238822,0.2726559639,0.1126012951,-35.3163528442,-18.5170097351,60.2884101868
        2.6917560101,       -0.0072761178,0.2726559639,0.1126012951,-35.3163528442,-18.5170097351,60.2884101868
        2.6943311691,       -0.0072761178,0.2726559639,0.1126012951,-33.6531448364,-17.7998466492,57.8164863586
        2.6969811916,       -0.0072761178,0.2726559639,0.1126012951,-33.6531448364,-17.7998466492,57.8164863586
        2.6996941566,       -0.0336433053,0.3917965889,0.0603551976,-28.7550716400,-17.5557060242,56.2906074524
        2.7024021149,       -0.0336433053,0.3917965889,0.0603551976,-28.7550716400,-17.5557060242,56.2906074524
        2.7051131725,       -0.0336433053,0.3917965889,0.0603551976,-20.0423030853,-17.9371757507,53.8034248352
        2.7077641487,       -0.0336433053,0.3917965889,0.0603551976,-20.0423030853,-17.9371757507,53.8034248352
        2.7103390694,       -0.0004401803,0.4391598701,-0.0167932399,-8.1862239838,-18.5627861023,49.8513984680
        2.7129189968,       -0.0004401803,0.4391598701,-0.0167932399,-8.1862239838,-18.5627861023,49.8513984680
        2.7154910564,       -0.0004401803,0.4391598701,-0.0167932399,-0.0685482025,-19.0815849304,43.4732246399
        2.7182040215,       -0.0004401803,0.4391598701,-0.0167932399,-0.0685482025,-19.0815849304,43.4732246399
        2.7207851410,        0.0771965384,0.2091794163,-0.0358362086,6.1570377350,-19.5088310242,32.7768135071
        2.7233650684,        0.0771965384,0.2091794163,-0.0358362086,6.1570377350,-19.5088310242,32.7768135071
        2.7259440422,        0.0771965384,0.2091794163,-0.0358362086,11.3450260162,-19.4172782898,22.5839424133
        2.7287471294,        0.0771965384,0.2091794163,-0.0358362086,11.3450260162,-19.4172782898,22.5839424133
        2.7314541340,        0.1226066947,0.0880856663,-0.0402307399,12.5504703522,-19.8292655945,16.6635322571
        2.7341711521,        0.1226066947,0.0880856663,-0.0402307399,12.5504703522,-19.8292655945,16.6635322571
        2.7369060516,        0.1226066947,0.0880856663,-0.0402307399,13.0234928131,-19.6919364929,12.8030586243
        2.7394800186,        0.1226066947,0.0880856663,-0.0519494899,13.0234928131,-19.6919364929,12.8030586243
        2.7420701981,        0.1279777884,0.1256833225,-0.0519494899,16.9297428131,-17.3420829773,7.3861885071
        2.7447659969,        0.1279777884,0.1256833225,-0.0519494899,17.9520816803,-17.3420829773,7.3861885071
        2.7474250793,        0.1279777884,0.1256833225,-0.0519494899,25.7645816803,-15.4347343445,-0.3500175476
        2.7501389980,        0.1133293509,0.1002926975,-0.0036096461,23.1400699615,-15.4347343445,-0.3500175476
        2.7528450489,        0.1133293509,0.1002926975,-0.0036096461,23.1400699615,-14.0461845398,-7.9794120789
        2.7555561066,        0.1133293509,0.1002926975,-0.0036096461,25.4899234772,-14.0461845398,-7.9794120789
        2.7582681179,        0.1133293509,0.1002926975,-0.0036096461,25.4899234772,-13.0543632507,-13.1521415710
        2.7609720230,        0.1187004447,0.0167966038,0.0046911351,25.6882877350,-13.0543632507,-13.1521415710
        2.7636849880,        0.1187004447,0.0167966038,0.0046911351,25.6882877350,-12.0778007507,-15.7919120789
        2.7663950920,        0.1187004447,0.0167966038,0.0046911351,23.7046451569,-12.0778007507,-15.7919120789
        2.7691040039,        0.1187004447,0.0167966038,0.0046911351,19.7983951569,-10.7808036804,-17.9128837585
        2.7718181610,        0.0942863822,-0.0032229275,-0.0143518336,19.9967594147,-10.7808036804,-17.9128837585
        2.7745261192,        0.0942863822,-0.0032229275,-0.0143518336,16.0905094147,-9.9720878601,-19.9575614929
        2.7772481441,        0.0942863822,-0.0032229275,-0.0143518336,15.0986881256,-9.9720878601,-19.9575614929
        2.7799592018,        0.0942863822,-0.0164065212,-0.0094690211,11.1924381256,-9.3159599304,-21.5139579773
        2.7826650143,        0.0820793509,-0.0164065212,-0.0094690211,11.2687320709,-9.3159599304,-21.5139579773
        2.7853751183,        0.0820793509,-0.0164065212,-0.0094690211,7.3624820709,-8.9039726257,-22.6431083679
        2.7880401611,        0.0820793509,-0.0164065212,-0.0094690211,8.3695621490,-8.9039726257,-22.6431083679
        2.7906100750,        0.1030754447,-0.0320315212,-0.0119104274,8.3695621490,-8.9039726257,-23.6501884460
        2.7931880951,        0.1030754447,-0.0320315212,-0.0119104274,4.6464176178,-8.6293144226,-23.6501884460
        2.7957651615,        0.1030754447,-0.0320315212,-0.0119104274,4.6464176178,-8.6293144226,-24.2452812195
        2.7984671593,        0.1030754447,-0.0320315212,-0.0119104274,1.4420719147,-7.7595634460,-24.2452812195
        2.8011691570,        0.1265129447,-0.0330080837,-0.0026330836,1.4420719147,-7.7595634460,-24.8098564148
        2.8038761616,        0.1265129447,-0.0330080837,-0.0026330836,-0.6178646088,-6.8592948914,-24.8098564148
        2.8065960407,        0.1265129447,-0.0330080837,-0.0026330836,-0.6178646088,-6.8592948914,-25.8779716492
        2.8094091415,        0.1265129447,-0.0330080837,-0.0026330836,-1.3197689056,-7.2102470398,-25.8779716492
        2.8121190071,        0.1289543509,-0.0164065212,-0.0031213649,-1.3197689056,-7.2102470398,-27.9684257507
        2.8148369789,        0.1289543509,-0.0164065212,-0.0031213649,0.2976627350,-6.5083427429,-27.9684257507
        2.8175580502,        0.1289543509,-0.0164065212,-0.0031213649,0.2976627350,-6.5083427429,-29.1128349304
        2.8202660084,        0.1289543509,-0.0051760525,0.0110387914,2.0066471100,-5.4554862976,-29.1128349304
        2.8229701519,        0.1260246634,-0.0051760525,0.0110387914,2.0066471100,-5.4554862976,-30.4250907898
        2.8256790638,        0.1260246634,-0.0051760525,0.0110387914,3.3189029694,-4.6467704773,-30.4250907898
        2.8284029961,        0.1260246634,-0.0051760525,0.0110387914,3.3189029694,-4.6467704773,-31.3711357117
        2.8311061859,        0.1265129447,0.0031247288,0.0134801976,5.3788394928,-4.4026298523,-31.3711357117
        2.8338160515,        0.1265129447,0.0031247288,0.0134801976,5.3788394928,-4.4026298523,-32.0730400085
        2.8365330696,        0.1265129447,0.0031247288,0.0134801976,7.8202457428,-4.6467704773,-32.0730400085
        2.8391110897,        0.1265129447,0.0031247288,0.0134801976,7.8202457428,-4.6467704773,-32.0730400085
        2.8416950703,        0.1431145072,-0.0164065212,0.0222692601,10.6126041412,-4.8909111023,-32.5308036804
        2.8442680836,        0.1431145072,-0.0164065212,0.0222692601,10.6126041412,-4.8909111023,-32.5308036804
        2.8468821049,        0.1431145072,-0.0164065212,0.0222692601,15.4191226959,-4.4484062195,-32.1798515320
