time, acceleration x, acceleration y, acceleration z, gyro x gyro y, gyro z
        0.0000000000,        0.0426313281,-0.0132186860,-0.0580120049,-15.7577419281,11.8484935760,-24.0411128998
        0.0025570393,        0.0426313281,-0.0132186860,-0.0580120049,-14.7201442719,12.2757396698,-23.0340328217
        0.0051119328,        0.0392133594,-0.0141952485,-0.0497112237,-14.7201442719,12.2757396698,-23.0340328217
        0.0077359676,        0.0392133594,-0.0141952485,-0.0497112237,-13.2858181000,11.5128002167,-22.0879878998
        0.0102839470,        0.0392133594,-0.0141952485,-0.0497112237,-13.2858181000,11.5128002167,-22.0879878998
        0.0128400326,        0.0392133594,-0.0141952485,-0.0497112237,-11.1343288422,11.0397777557,-21.2029781342
        0.0153920650,        0.0333539844,-0.0166366547,-0.0536174737,-11.1343288422,11.0397777557,-21.2029781342
        0.0181319714,        0.0333539844,-0.0166366547,-0.0536174737,-9.4711208344,10.8566722870,-20.4247798920
        0.0206868649,        0.0333539844,-0.0166366547,-0.0536174737,-9.4711208344,10.8566722870,-20.4247798920
        0.0232419968,        0.0333539844,-0.0166366547,-0.0545940362,-9.4406032562,10.6583080292,-19.1430416107
        0.0257968903,        0.0328657031,-0.0205429047,-0.0545940362,-9.4406032562,10.6583080292,-19.1430416107
        0.0285098553,        0.0328657031,-0.0205429047,-0.0545940362,-8.9828395844,10.3378734589,-18.4716548920
        0.0310759544,        0.0328657031,-0.0205429047,-0.0545940362,-8.9828395844,10.3378734589,-18.4716548920
        0.0336449146,        0.0328657031,-0.0205429047,-0.0575237237,-8.9828395844,10.0326976776,-17.3425045013
        0.0362079144,        0.0255414844,-0.0156600922,-0.0575237237,-8.3724880219,10.0326976776,-17.3425045013
        0.0388619900,        0.0255414844,-0.0156600922,-0.0575237237,-8.3724880219,9.4681224823,-15.6030025482
        0.0414328575,        0.0255414844,-0.0156600922,-0.0575237237,-7.9910182953,9.4681224823,-15.6030025482
        0.0439980030,        0.0255414844,-0.0083358735,-0.0628948212,-7.9910182953,9.4681224823,-13.8940181732
        0.0465729237,        0.0348188281,-0.0083358735,-0.0628948212,-7.8994655609,9.0866527557,-13.8940181732
        0.0492548943,        0.0348188281,-0.0083358735,-0.0628948212,-7.8994655609,9.0866527557,-12.9327144623
        0.0521008968,        0.0348188281,-0.0083358735,-0.0628948212,-7.8079128265,9.0103588104,-12.9327144623
        0.0547828674,        0.0406782031,0.0019180328,-0.0638713837,-7.8079128265,9.0103588104,-11.9866695404
        0.0575089455,        0.0406782031,0.0019180328,-0.0638713837,-6.3888454437,9.1019115448,-11.9866695404
        0.0601730347,        0.0406782031,0.0019180328,-0.0638713837,-6.3888454437,9.1019115448,-10.8727779388
        0.0628349781,        0.0406782031,0.0019180328,-0.0638713837,-5.5343532562,8.8730297089,-10.8727779388
        0.0655009747,        0.0460492969,0.0048477203,-0.0526409112,-5.5343532562,8.8730297089,-10.3997554779
        0.0683109760,        0.0460492969,0.0048477203,-0.0526409112,-4.2983913422,8.6899242401,-10.3997554779
        0.0710220337,        0.0460492969,0.0048477203,-0.0526409112,-4.2983913422,8.6899242401,-9.7131099701
        0.0737278461,        0.0460492969,0.0048477203,-0.0609416924,-3.1692409515,8.4763011932,-9.7131099701
        0.0764360428,        0.0421430469,0.0111953765,-0.0609416924,-3.1692409515,8.4763011932,-9.4079341888
        0.0790798664,        0.0421430469,0.0111953765,-0.0609416924,-3.0166530609,8.7051830292,-9.4079341888
        0.0816500187,        0.0421430469,0.0111953765,-0.0609416924,-3.0166530609,8.7051830292,-9.4079341888
        0.0844449997,       -0.0828569531,0.0097305328,-0.0526409112,-3.6880397797,8.6746654510,-9.2706050873
        0.0870189667,        0.0235883594,0.0097305328,-0.0526409112,-3.6880397797,8.6746654510,-8.0651607513
        0.0900509357,        0.0235883594,0.0097305328,-0.0526409112,-4.0847682953,8.9188060760,-8.0651607513
        0.0927529335,        0.0235883594,0.0097305328,-0.0526409112,-4.0847682953,8.9188060760,-7.5311031342
        0.0954580307,        0.0338422656,-0.0005233735,-0.0394573174,-3.7185573578,8.9951000214,-7.5311031342
        0.0982129574,        0.0338422656,-0.0005233735,-0.0394573174,-3.7185573578,8.9951000214,-7.0275630951
        0.1009109020,        0.0338422656,-0.0005233735,-0.0394573174,-3.4896755219,9.1171703339,-7.0275630951
        0.1036109924,        0.0338422656,-0.0005233735,-0.0394573174,-3.4896755219,9.1171703339,-6.7681636810
        0.1063189507,        0.0318891406,-0.0000350922,-0.0375041924,-3.6575222015,9.3002758026,-6.7681636810
        0.1090340614,        0.0318891406,-0.0000350922,-0.0375041924,-3.6575222015,9.3002758026,-6.3714351654
        0.1117348671,        0.0318891406,-0.0000350922,-0.0375041924,-3.3523464203,9.6664867401,-6.3714351654
        0.1144349575,        0.0318891406,0.0063125640,-0.0272502862,-3.3523464203,9.6664867401,-5.3948726654
        0.1172530651,        0.0270063281,0.0063125640,-0.0272502862,-2.2689723969,9.8953685760,-5.3948726654
        0.1198859215,        0.0270063281,0.0063125640,-0.0272502862,-2.2689723969,9.8953685760,-5.3948726654
        0.1224629879,        0.0270063281,0.0063125640,-0.0272502862,-0.5905056000,9.8953685760,-4.6624507904
        0.1250438690,        0.0152875781,-0.0283554047,-0.0379924737,-0.5905056000,9.8953685760,-4.6624507904
        0.1276168823,        0.0152875781,-0.0283554047,-0.0379924737,-1.0482692719,9.9258861542,-3.8079586029
        0.1301929951,        0.0152875781,-0.0283554047,-0.0379924737,-1.0482692719,9.9258861542,-3.8079586029
        0.1327600479,        0.0152875781,-0.0283554047,-0.0379924737,-1.3229274750,9.8190746307,-3.0145015717
        0.1353359222,        0.0021039844,-0.0224960297,-0.0292034112,-1.3229274750,9.8190746307,-3.0145015717
        0.1380648613,        0.0021039844,-0.0224960297,-0.0292034112,-0.5599880219,10.4141674042,-2.8313961029
        0.1406488419,        0.0021039844,-0.0224960297,-0.0292034112,-0.5599880219,10.4141674042,-2.8313961029
        0.1432149410,        0.0021039844,-0.0224960297,-0.0292034112,-0.3463649750,10.6888256073,-2.1600093842
        0.1457939148,       -0.0081499219,0.0292617828,-0.0409221612,-0.3463649750,10.6888256073,-2.1600093842
        0.1485819817,       -0.0081499219,0.0292617828,-0.0409221612,0.8743381500,10.9329662323,-1.6106929779
        0.1512808800,       -0.0081499219,0.0292617828,-0.0409221612,0.8743381500,10.9329662323,-1.6106929779
        0.1539700031,       -0.0081499219,0.0292617828,-0.0409221612,1.3931369781,11.4975414276,-0.7409420013
        0.1566569805,       -0.0022905469,0.0287735015,-0.0399455987,1.3931369781,11.4975414276,-0.7409420013
        0.1593830585,       -0.0022905469,0.0287735015,-0.0399455987,1.7593479156,11.8484935760,-0.6646480560
        0.1620509624,       -0.0022905469,0.0287735015,-0.0399455987,1.7593479156,11.8484935760,-0.6646480560
        0.1647219658,       -0.0022905469,0.0287735015,-0.0516643487,2.4765110016,11.7264232635,-0.9087886810
        0.1674170494,       -0.0091264844,0.0282852203,-0.0516643487,2.4765110016,11.7264232635,-0.9087886810
        0.1702158451,       -0.0091264844,0.0282852203,-0.0516643487,2.6748752594,12.3520336151,-0.9545650482
        0.1728079319,       -0.0091264844,0.0282852203,-0.0516643487,2.6748752594,12.3520336151,-0.9545650482
        0.1753818989,       -0.0091264844,0.0439102203,-0.0677776337,2.6596164703,12.2604808807,-1.2749996185
        0.1781609058,        0.0123578906,0.0439102203,-0.0677776337,2.6596164703,12.2604808807,-1.2749996185
        0.1809530258,        0.0123578906,0.0439102203,-0.0677776337,2.5528049469,11.7874584198,-0.9087886810
        0.1842310429,        0.0123578906,0.0439102203,-0.0677776337,2.5528049469,11.7874584198,-0.9087886810
        0.1868028641,        0.0201703906,0.0551406890,-0.0711956024,3.2699680328,11.7111644745,-1.2444820404
        0.1894910336,        0.0201703906,0.0551406890,-0.0711956024,3.2699680328,11.7111644745,-1.2444820404
        0.1920599937,        0.0201703906,0.0551406890,-0.0711956024,4.4601535797,11.7111644745,-1.2749996185
        0.1946358681,        0.0201703906,0.0551406890,-0.0711956024,4.4601535797,11.7111644745,-1.2749996185
        0.1971988678,        0.0265180469,0.0595352203,-0.0687541962,4.2312717438,11.9705638885,-1.9463863373
        0.1997768879,        0.0265180469,0.0595352203,-0.0687541962,4.2312717438,11.9705638885,-1.9463863373
        0.2023580074,        0.0265180469,0.0595352203,-0.0687541962,4.2312717438,11.6806468964,-2.4651851654
        0.2049269676,        0.0265180469,0.0595352203,-0.0677776337,4.0176486969,11.6806468964,-2.4651851654
        0.2075369358,        0.0211469531,0.0580703765,-0.0677776337,4.0176486969,11.2228832245,-2.1752681732
        0.2101130486,        0.0211469531,0.0580703765,-0.0677776337,3.3920383453,11.2228832245,-2.1752681732
        0.2126839161,        0.0211469531,0.0580703765,-0.0677776337,3.3920383453,11.2228832245,-2.7398433685
        0.2152578831,        0.0211469531,0.1830703765,-0.0721721649,1.8814182281,11.5433177948,-2.7398433685
        0.2178509235,        0.0133344531,0.0658828765,-0.0721721649,1.8814182281,11.5433177948,-2.7398433685
        0.2204189301,        0.0133344531,0.0658828765,-0.0721721649,0.1571750641,11.2839183807,-3.0145015717
        0.2229938507,        0.0133344531,0.0658828765,-0.0721721649,0.1571750641,11.2839183807,-3.0145015717
        0.2255618572,        0.0133344531,0.0551406890,-0.0682659149,-1.0940456390,10.8566722870,-2.8313961029
        0.2283070087,        0.0226117969,0.0551406890,-0.0682659149,-1.0940456390,10.8566722870,-2.8313961029
        0.2308828831,        0.0226117969,0.0551406890,-0.0682659149,-1.4755153656,10.5820140839,-2.7398433685
        0.2334549427,        0.0226117969,0.0551406890,-0.0682659149,-1.4755153656,10.5820140839,-2.7398433685
        0.2360279560,        0.0284711719,0.0517227203,-0.0702190399,-1.5975856781,10.6888256073,-2.7856197357
        0.2388100624,        0.0284711719,0.0517227203,-0.0702190399,-1.5975856781,10.6888256073,-2.7856197357
        0.2413849831,        0.0284711719,0.0517227203,-0.0702190399,-2.1011257172,11.0397777557,-3.0145015717
        0.2440769672,        0.0284711719,0.0517227203,-0.0702190399,-2.1011257172,11.0397777557,-3.0145015717
        0.2466399670,        0.0299360156,0.0610000640,-0.0741252899,-2.1774196625,11.1923656464,-2.9839839935
        0.2493009567,        0.0299360156,0.0610000640,-0.0741252899,-2.1774196625,11.1923656464,-2.9839839935
        0.2518730164,        0.0299360156,0.0610000640,-0.0741252899,-2.0095729828,11.1313304901,-2.3736324310
        0.2544450760,        0.0299360156,0.0610000640,-0.0741252899,-2.0095729828,11.1313304901,-2.3736324310
        0.2570240498,        0.0318891406,0.0639297515,-0.0814495087,-1.9790554047,11.4059886932,-2.0074214935
        0.2597010136,        0.0318891406,0.0639297515,-0.0814495087,-1.9790554047,11.4059886932,-2.0074214935
        0.2622749805,        0.0318891406,0.0639297515,-0.0814495087,-1.9790554047,11.9705638885,-1.6869869232
        0.2648439407,        0.0318891406,0.0639297515,-0.0814495087,-2.0400905609,11.9705638885,-1.6869869232
        0.2674050331,        0.0377485156,0.0634414703,-0.0726604462,-2.0400905609,12.3672924042,-1.1224117279
        0.2701070309,        0.0377485156,0.0634414703,-0.0726604462,-1.5823268890,12.3672924042,-1.1224117279
        0.2726800442,        0.0377485156,0.0634414703,-0.0726604462,-1.5823268890,12.3672924042,-1.3970699310
        0.2752449512,        0.0377485156,0.0634414703,-0.0726604462,-1.8569850922,12.5503978729,-1.3970699310
        0.2778520584,        0.0284711719,0.0595352203,-0.0599651299,-1.8569850922,12.5503978729,-2.0989742279
        0.2805669308,        0.0284711719,0.0595352203,-0.0599651299,-3.2760524750,12.8708324432,-2.0989742279
        0.2832529545,        0.0284711719,0.0595352203,-0.0599651299,-3.2760524750,12.8708324432,-2.8008785248
        0.2859439850,        0.0284711719,0.1845352203,-0.0633831024,-5.9310817719,12.8860912323,-2.8008785248
        0.2886469364,        0.0128461719,0.0673477203,-0.0633831024,-5.9310817719,12.8860912323,-3.1060543060
        0.2913520336,        0.0128461719,0.0673477203,-0.0633831024,-7.9452419281,13.2523021698,-3.1060543060
        0.2942969799,        0.0128461719,0.0673477203,-0.0633831024,-7.9452419281,13.2523021698,-3.0145015717
        0.2969930172,        0.0240766406,0.0697891265,-0.0487346612,-9.1201686859,13.4811840057,-3.0145015717
        0.3001198769,        0.0240766406,0.0697891265,-0.0487346612,-9.1201686859,13.2828197479,-2.9534664154
        0.3028230667,        0.0240766406,0.0697891265,-0.0487346612,-10.0967311859,13.2828197479,-2.9534664154
        0.3055329323,        0.0240766406,0.0697891265,0.0762653351,-10.0967311859,13.6032543182,-3.7621822357
        0.3083519936,        0.0152875781,0.0614883453,-0.0394573174,-11.7141628265,13.6032543182,-3.7621822357
        0.3110599518,        0.0152875781,0.0614883453,-0.0394573174,-15.6204128265,14.1220531464,-3.4875240326
        0.3137660027,        0.0152875781,0.0614883453,-0.0394573174,-14.1403102875,14.1220531464,-3.4875240326
        0.3164670467,        0.0152875781,0.0751602203,-0.0204143487,-18.0465602875,13.3438549042,-2.6482906342
        0.3192138672,        0.0255414844,0.0751602203,-0.0204143487,-15.9713649750,13.3438549042,-2.6482906342
        0.3219208717,        0.0255414844,0.0751602203,-0.0204143487,-15.9713649750,12.6419506073,-1.3665523529
        0.3246150017,        0.0255414844,0.0751602203,-0.0204143487,-16.2460231781,12.6419506073,-1.3665523529
        0.3273229599,        0.0489789844,0.0961563140,-0.0057659112,-16.2460231781,12.4435863495,0.0372562408
        0.3299088478,        0.0489789844,0.0961563140,-0.0057659112,-15.5898952484,12.4435863495,0.0372562408
        0.3324799538,        0.0489789844,0.0961563140,-0.0057659112,-15.5898952484,12.4435863495,1.2884769440
        0.3350498676,        0.0489789844,0.0961563140,-0.0057659112,-14.6285915375,11.9095287323,1.2884769440
        0.3376209736,        0.0699750781,0.1034805328,-0.0033245049,-14.6285915375,11.9095287323,5.1947269440
        0.3401968479,        0.0699750781,0.1034805328,-0.0033245049,-12.8127956390,10.8261547089,2.2802982330
        0.3427660465,        0.0699750781,0.1034805328,-0.0033245049,-12.8127956390,10.8261547089,2.2802982330
        0.3453369141,        0.0699750781,0.1034805328,-0.0033245049,-10.8444118500,9.4223461151,3.6841068268
        0.3479568958,        0.0709516406,0.1151992828,0.0191364326,-10.8444118500,9.4223461151,3.6841068268
        0.3505320549,        0.0709516406,0.1151992828,0.0191364326,-8.5250759125,8.3237133026,4.8895511627
        0.3531038761,        0.0709516406,0.1151992828,0.0191364326,-8.5250759125,8.3237133026,4.8895511627
        0.3556809425,        0.0709516406,0.1151992828,0.0191364326,-6.6329860687,7.3624100685,4.7217044830
        0.3583710194,        0.0660688281,0.0912735015,-0.0023479424,-6.6329860687,7.3624100685,4.7217044830
        0.3610758781,        0.0660688281,0.0912735015,-0.0023479424,-5.1071071625,6.3553299904,3.6688480377
        0.3637809753,        0.0660688281,0.0912735015,-0.0023479424,-5.1071071625,6.3553299904,3.6688480377
        0.3664810658,        0.0660688281,0.0912735015,-0.0072307549,-3.3828639984,5.2719559669,2.3565921783
        0.3691499233,        0.0758344531,0.0312149078,-0.0072307549,-3.3828639984,5.2719559669,2.3565921783
        0.3718218803,        0.0758344531,0.0312149078,-0.0072307549,-0.3311061859,4.0817704201,-0.1305904388
        0.3743970394,        0.0758344531,0.0312149078,-0.0072307549,-0.3311061859,4.0817704201,-0.1305904388
        0.3769779205,        0.0758344531,-0.1074569672,-0.0267620049,3.8498020172,2.7084794044,-3.6706295013
        0.3796780109,        0.0997602344,-0.1074569672,-0.0267620049,3.8498020172,2.7084794044,-3.6706295013
        0.3823750019,        0.0997602344,-0.1074569672,-0.0267620049,7.7560520172,1.1673417091,-8.1872310638
        0.3850798607,        0.0997602344,-0.1074569672,-0.0267620049,7.7560520172,1.1673417091,-8.1872310638
        0.3877968788,        0.1354047656,-0.2222030610,-0.0360393487,10.6704807281,-0.3432784081,-13.1005611420
        0.3905110359,        0.1354047656,-0.2222030610,-0.0360393487,10.6704807281,-0.3432784081,-13.1005611420
        0.3932180405,        0.1354047656,-0.2222030610,-0.0360393487,14.1342258453,-1.4419112206,-17.3730220795
        0.3959209919,        0.1354047656,-0.2222030610,-0.0360393487,14.1342258453,-1.4419112206,-17.3730220795
        0.3986449242,        0.1505414844,-0.1777694672,-0.0711956024,17.0181369781,-1.7776045799,-20.1501216888
        0.4013469219,        0.1505414844,-0.1777694672,-0.0711956024,17.0181369781,-1.7776045799,-20.1501216888
        0.4040489197,        0.1505414844,-0.1777694672,-0.0711956024,19.7189426422,-2.2811446190,-24.8193111420
        0.4067568779,        0.1505414844,-0.1777694672,-0.0814495087,19.7189426422,-2.2811446190,-24.8193111420
        0.4094710350,        0.1388227344,-0.2143905610,-0.0814495087,20.7107639313,-2.8914961815,-30.5718746185
        0.4121799469,        0.1388227344,-0.2143905610,-0.0814495087,20.7107639313,-2.8914961815,-30.5718746185
        0.4149658680,        0.1388227344,-0.2143905610,-0.0814495087,19.7799777985,-3.6086592674,-36.4159927368
        0.4180290699,        0.1271039844,-0.3008163571,-0.1009807587,19.7799777985,-3.6086592674,-36.4159927368
        0.4206140041,        0.1271039844,-0.3008163571,-0.1009807587,17.3690891266,-4.2647871971,-41.3598403931
        0.4231920242,        0.1271039844,-0.3008163571,-0.1009807587,17.3690891266,-4.2647871971,-41.3598403931
        0.4257719517,        0.1271039844,-0.3008163571,-0.1009807587,13.6764621735,-5.0277266502,-46.1663589478
        0.4284360409,        0.1300336719,-0.3154647946,-0.1229534149,13.6764621735,-5.0277266502,-46.1663589478
        0.4311418533,        0.1300336719,-0.3154647946,-0.1229534149,9.8465061188,-5.2718672752,-50.8813247681
        0.4338538647,        0.1300336719,-0.3154647946,-0.1229534149,9.8465061188,-5.2718672752,-50.8813247681
        0.4365589619,        0.1300336719,-0.3154647946,-0.1229534149,6.4895725250,-5.4702315331,-55.3826675415
        0.4393799305,        0.1363813281,-0.2930038571,-0.1297893524,6.4895725250,-5.4702315331,-55.3826675415
        0.4420888424,        0.1363813281,-0.2930038571,-0.1297893524,2.9190158844,-5.4549727440,-59.5025405884
        0.4447979927,        0.1363813281,-0.2930038571,-0.1297893524,2.9190158844,-5.4549727440,-59.5025405884
        0.4475219250,        0.1363813281,-0.2890976071,-0.1493206024,-0.8041286469,-5.9432539940,-63.6071548462
        0.4500989914,        0.1422407031,-0.2890976071,-0.1493206024,-0.8041286469,-5.9432539940,-63.6071548462
        0.4526760578,        0.1422407031,-0.2890976071,-0.1493206024,-4.7103786469,-6.4010176659,-68.0627212524
        0.4552578926,        0.1422407031,-0.2890976071,-0.1493206024,-4.4662380219,-6.4010176659,-68.0627212524
        0.4578440189,        0.1422407031,-0.2837265134,-0.1581096649,-4.4662380219,-6.4010176659,-72.6708755493
        0.4604189396,        0.1329633594,-0.2837265134,-0.1581096649,-8.1130886078,-6.6298995018,-72.6708755493
        0.4629950523,        0.1329633594,-0.2837265134,-0.1581096649,-8.1130886078,-6.6298995018,-77.1722183228
        0.4655740261,        0.1329633594,-0.2837265134,-0.1581096649,-12.0803737640,-6.1263594627,-77.1722183228
        0.4683179855,        0.1114789844,-0.2822616696,-0.1532268524,-12.0803737640,-6.1263594627,-81.6125259399
        0.4708909988,        0.1114789844,-0.2822616696,-0.1532268524,-14.6133327484,-5.4091963768,-81.6125259399
        0.4734668732,        0.1114789844,-0.2822616696,-0.1532268524,-14.6133327484,-5.4091963768,-81.6125259399
        0.4760508537,        0.1114789844,-0.2822616696,-0.1532268524,-17.1310329437,-5.9890303612,-85.7018814087
        0.4787828922,        0.0865766406,-0.2661483884,-0.1546916962,-17.1310329437,-5.9890303612,-85.7018814087
        0.4814729691,        0.0865766406,-0.2661483884,-0.1546916962,-19.6029567719,-5.7296309471,-90.0201187134
        0.4841659069,        0.0865766406,-0.2661483884,-0.1546916962,-19.6029567719,-5.7296309471,-90.0201187134
        0.4868068695,        0.0865766406,-0.2661483884,-0.1546916962,-21.3729763031,-4.9819502831,-93.8958511353
        0.4895689487,        0.0748578906,-0.2422225922,-0.1654338837,-21.3729763031,-4.9819502831,-93.8958511353
        0.4922399521,        0.0748578906,-0.2422225922,-0.1654338837,-23.9517116547,-4.2647871971,-97.7105484009
        0.4951250553,        0.0748578906,-0.2422225922,-0.1654338837,-23.9517116547,-4.2647871971,-97.7105484009
        0.4977848530,        0.0748578906,-0.2422225922,-0.1644573212,-25.5386257172,-3.7459883690,-101.2963638306
        0.5003619194,        0.0587446094,-0.2173202485,-0.1644573212,-25.5386257172,-3.7459883690,-101.2963638306
        0.5030400753,        0.0587446094,-0.2173202485,-0.1644573212,-26.8203639984,-3.3950362206,-104.1344985962
        0.5056178570,        0.0587446094,-0.2173202485,-0.1644573212,-26.8203639984,-3.3950362206,-104.1344985962
        0.5082290173,        0.0587446094,-0.1948593110,-0.1566448212,-28.7887477875,-2.1285567284,-107.1252212524
        0.5108058453,        0.0440961719,-0.1948593110,-0.1566448212,-28.7887477875,-2.1285567284,-107.1252212524
        0.5133759975,        0.0440961719,-0.1948593110,-0.1566448212,-30.0704860687,-1.1672530174,-110.1769790649
        0.5159480572,        0.0440961719,-0.1948593110,-0.1566448212,-30.0704860687,-1.1672530174,-110.1769790649
        0.5185718536,        0.0440961719,-0.1655624360,-0.1634807587,-30.4824733734,-0.3890547752,-112.4047622681
        0.5211448669,        0.0367719531,-0.1655624360,-0.1634807587,-30.4824733734,-0.3890547752,-112.4047622681
        0.5237209797,        0.0367719531,-0.1655624360,-0.1634807587,-31.0775661469,0.4959549904,-115.0597915649
        0.5262899399,        0.0367719531,-0.1655624360,-0.1634807587,-31.0775661469,0.4959549904,-115.0597915649
        0.5288698673,        0.0289594531,-0.1728866547,-0.1683635712,-31.0775661469,1.4114823341,-117.7453384399
        0.5314450264,        0.0289594531,-0.1728866547,-0.1683635712,-31.3980007172,1.4114823341,-117.7453384399
        0.5340158939,        0.0289594531,-0.1728866547,-0.1683635712,-31.3980007172,1.4114823341,-120.4461441040
        0.5365869999,        0.0289594531,-0.1728866547,-0.1683635712,-31.3217067719,1.5945878029,-120.4461441040
        0.5392868519,        0.0113813281,-0.1904647797,-0.1629924774,-31.3217067719,1.5945878029,-122.5060806274
        0.5418648720,        0.0113813281,-0.1904647797,-0.1629924774,-32.5424118042,2.7542557716,-122.5060806274
        0.5444419384,        0.0113813281,-0.1904647797,-0.1629924774,-32.5424118042,2.7542557716,-126.4123306274
        0.5470199585,        0.0113813281,-0.1904647797,-0.1629924774,-32.7407760620,3.1815018654,-125.0848159790
        0.5498089790,        0.0108930469,-0.1924179047,-0.1717815399,-32.7407760620,3.1815018654,-128.9910583496
        0.5525200367,        0.0108930469,-0.1924179047,-0.1717815399,-33.0764694214,4.2038407326,-127.8008804321
        0.5552258492,        0.0108930469,-0.1924179047,-0.1717815399,-33.0764694214,4.2038407326,-127.8008804321
        0.5579349995,        0.0108930469,-0.1924179047,-0.2967815399,-34.0530319214,5.4245438576,-129.8760681152
        0.5606420040,       -0.0008257031,-0.1943710297,-0.1786174774,-34.0530319214,5.4245438576,-133.7823181152
        0.5633530617,       -0.0008257031,-0.1943710297,-0.1786174774,-34.9380416870,6.7215409279,-131.9817810059
        0.5661740303,       -0.0008257031,-0.1943710297,-0.1786174774,-34.9380416870,6.7215409279,-131.9817810059
        0.5688300133,       -0.0008257031,-0.1909530610,-0.1800823212,-36.7690963745,7.2555985451,-134.1027526855
        0.5714058876,       -0.0198686719,-0.1909530610,-0.1800823212,-36.7690963745,7.2555985451,-134.1027526855
        0.5739810467,       -0.0198686719,-0.1909530610,-0.1800823212,-38.1271286011,7.9880204201,-136.0101013184
        0.5765609741,       -0.0198686719,-0.1909530610,-0.1800823212,-38.1271286011,7.9880204201,-136.0101013184
        0.5792570114,       -0.0218217969,-0.1894882172,-0.1835002899,-38.8595504761,8.9645824432,-138.3294372559
        0.5819618702,       -0.0218217969,-0.1894882172,-0.1835002899,-38.8595504761,8.9645824432,-138.3294372559
        0.5846700668,       -0.0218217969,-0.1894882172,-0.1835002899,-39.4241256714,10.1242504120,-141.1675720215
        0.5873720646,       -0.0218217969,-0.1894882172,-0.1835002899,-39.4241256714,10.1242504120,-141.1675720215
        0.5900938511,       -0.0403764844,-0.1973007172,-0.1830120087,-40.8737106323,10.8719310760,-143.3343200684
        0.5928020477,       -0.0403764844,-0.1973007172,-0.1830120087,-40.8737106323,10.8719310760,-143.3343200684
        0.5955078602,       -0.0403764844,-0.1973007172,-0.1830120087,-42.3690719604,11.9400463104,-145.6994323730
        0.5982248783,       -0.0403764844,-0.1973007172,-0.0580120049,-42.3690719604,11.9400463104,-145.6994323730
        0.6009309292,       -0.0603960156,-0.1938827485,-0.1712932587,-43.1930465698,13.2217845917,-147.7135925293
        0.6037390232,       -0.0603960156,-0.1938827485,-0.1712932587,-43.1930465698,13.2217845917,-147.7135925293
        0.6065840721,       -0.0603960156,-0.1938827485,-0.1712932587,-44.1390914917,14.4119701385,-149.5751647949
        0.6094329357,       -0.0603960156,-0.1753280610,-0.1581096649,-44.1390914917,14.4119701385,-149.5751647949
        0.6121480465,       -0.0730913281,-0.1753280610,-0.1581096649,-45.0546188354,15.9073314667,-151.1925964355
        0.6148588657,       -0.0730913281,-0.1753280610,-0.1581096649,-45.0546188354,15.9073314667,-151.1925964355
        0.6175770760,       -0.0730913281,-0.1753280610,-0.1581096649,-46.5347213745,17.0212230682,-152.4438171387
        0.6201548576,       -0.0901811719,-0.1450546235,-0.1498088837,-46.5347213745,17.0212230682,-152.4438171387
        0.6227319241,       -0.0901811719,-0.1450546235,-0.1498088837,-47.2976608276,17.6163158417,-152.7642517090
        0.6253039837,       -0.0901811719,-0.1450546235,-0.1498088837,-47.2976608276,17.6163158417,-152.7642517090
        0.6279070377,       -0.0901811719,-0.1450546235,-0.1498088837,-47.8774948120,18.3182201385,-153.0541687012
        0.6307330132,       -0.1141069531,-0.1133163422,-0.1185588837,-47.8774948120,18.3182201385,-153.0541687012
        0.6334409714,       -0.1141069531,-0.1133163422,-0.1185588837,-48.1521530151,19.2032299042,-152.7795104980
        0.6361498833,       -0.1141069531,-0.1133163422,-0.1185588837,-48.1521530151,19.2032299042,-152.7795104980
        0.6388130188,       -0.1141069531,-0.1133163422,-0.1185588837,-48.3657760620,19.7372875214,-152.0013122559
        0.6413919926,       -0.1336382031,-0.1064804047,-0.1073284149,-48.3657760620,19.7372875214,-152.0013122559
        0.6439690590,       -0.1336382031,-0.1064804047,-0.1073284149,-47.9690475464,20.2560863495,-151.6351013184
        0.6465458870,       -0.1336382031,-0.1064804047,-0.1073284149,-47.9690475464,20.2560863495,-151.6351013184
        0.6491789818,       -0.1336382031,-0.1064804047,-0.1014690399,-47.5723190308,21.2784252167,-150.6127624512
        0.6523590088,       -0.1341264844,-0.1059921235,-0.1014690399,-47.5723190308,21.2784252167,-150.6127624512
        0.6549420357,       -0.1341264844,-0.1059921235,-0.1014690399,-48.0300827026,22.0413646698,-149.6972351074
        0.6575410366,       -0.1341264844,-0.1059921235,-0.1014690399,-48.0300827026,22.0413646698,-149.6972351074
        0.6602530479,       -0.1331499219,-0.1240585297,-0.0907268524,-48.3962936401,22.5296459198,-148.8427429199
        0.6629588604,       -0.1331499219,-0.1240585297,-0.0907268524,-48.3962936401,22.5296459198,-148.8427429199
        0.6656658649,       -0.1331499219,-0.1240585297,-0.0907268524,-48.3962936401,23.4146556854,-148.0035095215
        0.6683778763,       -0.1331499219,-0.1240585297,-0.0907268524,-48.3962936401,23.4146556854,-148.0035095215
        0.6709549427,       -0.1170366406,-0.1201522797,-0.0921916962,-47.8164596558,24.6353588104,-146.4623718262
        0.6735260487,       -0.1170366406,-0.1201522797,-0.0921916962,-47.8164596558,24.6353588104,-146.4623718262
        0.6761009693,       -0.1170366406,-0.1201522797,-0.0921916962,-47.0687789917,25.1541576385,-145.5773620605
        0.6787450314,       -0.1170366406,-0.1201522797,-0.0921916962,-47.0687789917,25.1541576385,-145.5773620605
        0.6814589500,       -0.1106889844,-0.1157577485,-0.0921916962,-45.9548873901,26.0696849823,-145.0433044434
        0.6841709614,       -0.1106889844,-0.1157577485,-0.0921916962,-45.9548873901,26.0696849823,-145.0433044434
        0.6868829727,       -0.1106889844,-0.1157577485,-0.0921916962,-44.7494430542,26.9852123260,-144.0667419434
        0.6895029545,       -0.1106889844,-0.1157577485,-0.0687541962,-44.7494430542,26.9852123260,-144.0667419434
        0.6920769215,       -0.0965288281,-0.0967147797,-0.0687541962,-44.7494430542,27.0615062714,-142.6629333496
        0.6947720051,       -0.0965288281,-0.0967147797,-0.0687541962,-43.6813278198,27.0615062714,-142.6629333496
        0.6973478794,       -0.0965288281,-0.0967147797,-0.0687541962,-43.6813278198,27.0157299042,-141.2591247559
        0.7000510693,       -0.0965288281,-0.0796249360,-0.0614299737,-41.6824264526,27.0157299042,-141.2591247559
        0.7026250362,       -0.0926225781,-0.0796249360,-0.0614299737,-41.6824264526,27.0157299042,-140.1452331543
        0.7051980495,       -0.0926225781,-0.0796249360,-0.0614299737,-39.6377487183,26.7410717010,-140.1452331543
        0.7079188824,       -0.0926225781,-0.0796249360,-0.0614299737,-39.6377487183,26.7410717010,-138.4515075684
        0.7106308937,       -0.0662553906,-0.0532577485,-0.0482463799,-37.9135055542,26.2680492401,-138.4515075684
        0.7133450508,       -0.0662553906,-0.0532577485,-0.0482463799,-37.9135055542,26.2680492401,-136.9256286621
        0.7160539627,       -0.0662553906,-0.0532577485,-0.0482463799,-34.5413131714,25.2609691620,-136.9256286621
        0.7187478542,       -0.0662553906,-0.0532577485,-0.0482463799,-34.5413131714,25.2609691620,-134.5147399902
        0.7213270664,       -0.0379350781,-0.0430038422,-0.0418987237,-31.2454128265,25.0931224823,-134.5147399902
        0.7239060402,       -0.0379350781,-0.0430038422,-0.0418987237,-31.2454128265,25.0931224823,-134.5147399902
        0.7264850140,       -0.0379350781,-0.0430038422,-0.0418987237,-28.4225368500,24.8032054901,-132.3785095215
        0.7291488647,       -0.0379350781,-0.0430038422,-0.0418987237,-28.4225368500,24.8032054901,-132.3785095215
        0.7318549156,       -0.0154741406,-0.0410507172,-0.0394573174,-25.4012966156,24.5132884979,-130.2575378418
        0.7345619202,       -0.0154741406,-0.0410507172,-0.0394573174,-25.4012966156,24.5132884979,-130.2575378418
        0.7372710705,       -0.0154741406,-0.0410507172,-0.0394573174,-22.7767848969,23.9792308807,-127.9382095337
        0.7400250435,       -0.0154741406,-0.0410507172,-0.0262737237,-22.7767848969,23.9792308807,-127.9382095337
        0.7427289486,        0.0011274219,-0.0386093110,-0.0262737237,-20.3506374359,23.4146556854,-125.7714614868
        0.7454319000,        0.0011274219,-0.0386093110,-0.0262737237,-20.3506374359,23.4146556854,-125.7714614868
        0.7481379509,        0.0011274219,-0.0386093110,-0.0262737237,-18.6416530609,22.6364574432,-123.3300552368
        0.7508449554,        0.0123578906,-0.0244491547,-0.0233440362,-18.6416530609,22.6364574432,-123.3300552368
        0.7535500526,        0.0123578906,-0.0244491547,-0.0233440362,-16.9479274750,21.9955883026,-120.5834732056
        0.7562539577,        0.0123578906,-0.0244491547,-0.0233440362,-16.9479274750,21.9955883026,-120.5834732056
        0.7591109276,        0.0123578906,-0.0244491547,-0.0233440362,-15.2847194672,21.6904125214,-117.5164566040
        0.7618179321,        0.0187055469,0.0038711578,-0.0111370049,-15.2847194672,21.6904125214,-117.5164566040
        0.7646088600,        0.0187055469,0.0038711578,-0.0111370049,-13.2095241547,20.8511791229,-114.5409927368
        0.7673158646,        0.0187055469,0.0038711578,-0.0111370049,-13.2095241547,20.8511791229,-114.5409927368
        0.7699139118,        0.0187055469,0.0038711578,-0.0111370049,-10.6918239594,19.3100414276,-111.3824234009
        0.7724909782,        0.0265180469,0.0155899078,-0.0018596612,-10.6918239594,19.3100414276,-111.3824234009
        0.7750668526,        0.0265180469,0.0155899078,-0.0018596612,-7.6095485687,18.2724437714,-108.0712661743
        0.7778129578,        0.0265180469,0.0155899078,-0.0018596612,-7.6095485687,18.2724437714,-108.0712661743
        0.7805800438,        0.0265180469,0.0180313140,-0.0033245049,-4.7714138031,17.4026927948,-104.6075210571
        0.7837769985,        0.0397016406,0.0180313140,-0.0033245049,-4.7714138031,17.4026927948,-100.7012710571
        0.7864849567,        0.0397016406,0.0180313140,-0.0033245049,-3.0319118500,16.2888011932,-100.8233413696
        0.7891950607,        0.0397016406,0.0180313140,-0.0033245049,-3.0319118500,16.2888011932,-96.9170913696
        0.7923209667,        0.0553266406,0.0077774078,-0.0047893487,-1.3076686859,15.4190502167,-97.1917495728
        0.7955110073,        0.0553266406,0.0077774078,-0.0047893487,-1.3076686859,15.0070629120,-93.1481704712
        0.7982008457,        0.0553266406,0.0077774078,-0.0047893487,-0.4684352875,15.0070629120,-93.1481704712
        0.8007688522,        0.0553266406,0.0263320953,0.0127887763,-0.4684352875,15.0070629120,-88.4332046509
        0.8033409119,        0.0768110156,0.0263320953,0.0127887763,0.3097629547,13.9084300995,-88.4332046509
        0.8059160709,        0.0768110156,0.0263320953,0.0127887763,0.3097629547,13.9084300995,-83.5046157837
        0.8084959984,        0.0768110156,0.0263320953,0.0127887763,2.3239231110,12.8403148651,-83.5046157837
        0.8110730648,        0.0768110156,0.0605117828,0.0357379951,2.3239231110,12.8403148651,-79.5983657837
        0.8136470318,        0.1085492969,0.0605117828,0.0357379951,4.7500705719,11.1771068573,-78.2098159790
        0.8162260056,        0.1085492969,0.0605117828,0.0357379951,4.7500705719,11.1771068573,-78.2098159790
        0.8188149929,        0.1085492969,0.0605117828,0.0357379951,6.5506076813,9.7275218964,-72.5640640259
        0.8213899136,        0.1280805469,0.0815078765,0.0547809638,6.5506076813,9.7275218964,-72.5640640259
        0.8240730762,        0.1280805469,0.0815078765,0.0547809638,8.6563205719,8.6136302948,-67.0861587524
        0.8266539574,        0.1280805469,0.0815078765,0.0547809638,8.6563205719,8.6136302948,-67.0861587524
        0.8294899464,        0.1280805469,0.0815078765,0.0547809638,11.0519504547,7.1487870216,-61.6692886353
        0.8320679665,        0.1417524219,0.0907852203,0.0723590851,11.0519504547,7.1487870216,-61.6692886353
        0.8346469402,        0.1417524219,0.0907852203,0.0723590851,14.1037082672,5.9128251076,-56.1303482056
        0.8372218609,        0.1417524219,0.0907852203,0.0723590851,14.1037082672,5.9128251076,-56.1303482056
        0.8399279118,        0.1417524219,0.0907852203,0.0723590851,17.6590061188,5.0430741310,-50.4693374634
        0.8426308632,        0.1324750781,0.0956680328,0.0816364288,17.6590061188,5.0430741310,-50.4693374634
        0.8453299999,        0.1324750781,0.0956680328,0.0816364288,20.6039524078,3.4103837013,-44.6557388306
        0.8480479717,        0.1324750781,0.0956680328,0.0816364288,20.6039524078,3.4103837013,-44.6557388306
        0.8507549763,        0.1324750781,0.0956680328,0.0874958038,22.9232883453,1.4419999123,-39.8187026978
        0.8534550667,        0.1300336719,0.0795547515,0.0874958038,22.9232883453,1.4419999123,-39.8187026978
        0.8561520576,        0.1300336719,0.0795547515,0.0874958038,25.1663303375,-0.3432784081,-35.0121841431
        0.8588068485,        0.1300336719,0.0795547515,0.0874958038,25.1663303375,-0.3432784081,-35.0121841431
        0.8613760471,        0.1300336719,0.0780899078,0.0791950226,26.7074680328,-2.4795088768,-29.4885005951
        0.8639478683,        0.1144086719,0.0780899078,0.0791950226,26.7074680328,-2.4795088768,-29.4885005951
        0.8665208817,        0.1144086719,0.0780899078,0.0791950226,28.5995578766,-4.1427168846,-25.1244869232
        0.8691549301,        0.1144086719,0.0780899078,0.0791950226,28.5995578766,-4.1427168846,-25.1244869232
        0.8717269897,        0.1144086719,0.0663711578,0.0664997101,28.5995578766,-5.6075606346,-20.0890865326
        0.8743009567,        0.1134321094,0.0663711578,0.0664997101,29.8660373688,-5.6075606346,-20.0890865326
        0.8768730164,        0.1134321094,0.0663711578,0.0664997101,29.8660373688,-5.6075606346,-14.9468746185
        0.8794949055,        0.1134321094,0.0663711578,0.0664997101,29.5761203766,-7.0418868065,-14.9468746185
        0.8820769787,        0.1178266406,0.0732070953,0.0513629951,29.5761203766,-7.0418868065,-10.5981197357
        0.8846559525,        0.1178266406,0.0732070953,0.0513629951,29.1793918610,-7.8811202049,-10.5981197357
        0.8873400688,        0.1178266406,0.0732070953,0.0513629951,29.1793918610,-7.8811202049,-5.9594478607
        0.8902149200,        0.1178266406,0.0732070953,0.0513629951,29.0115451813,-8.8424243927,-5.9594478607
        0.8927948475,        0.1227094531,0.0942031890,0.0455036201,29.0115451813,-8.8424243927,-2.0531978607
        0.8953709602,        0.1227094531,0.0942031890,0.0455036201,29.4387912750,-9.6663990021,-0.7256832123
        0.8981430531,        0.1227094531,0.0942031890,0.0455036201,29.4387912750,-9.6663990021,3.1805667877
        0.9008228779,        0.1227094531,0.0942031890,0.0455036201,29.2709445953,-10.2920093536,4.1113529205
        0.9035990238,        0.1344282031,0.0859024078,0.0435504951,29.2709445953,-10.2920093536,8.0176029205
        0.9061930180,        0.1344282031,0.0859024078,0.0435504951,28.5842990875,-11.0854663849,8.2617435455
        0.9088149071,        0.1344282031,0.0859024078,0.0435504951,28.5842990875,-11.0854663849,8.2617435455
        0.9114000797,        0.1344282031,0.0859024078,0.0406208076,27.1347141266,-11.4974536896,13.4802494049
        0.9139709473,        0.1324750781,0.0839492828,0.0406208076,27.1347141266,-11.4974536896,13.4802494049
        0.9165430069,        0.1324750781,0.0839492828,0.0406208076,23.1826877594,-11.4821949005,18.2867679596
        0.9191730022,        0.1324750781,0.0839492828,0.0406208076,23.1826877594,-11.4821949005,18.2867679596
        0.9217469692,        0.1324750781,0.0839492828,0.0357379951,19.5053195953,-11.5279712677,23.4594974518
        0.9243259430,        0.1031782031,0.0839492828,0.0357379951,19.5053195953,-11.5279712677,23.4594974518
        0.9268999100,        0.1031782031,0.0839492828,0.0357379951,15.6601047516,-13.0080738068,25.1837406158
        0.9295258522,        0.1031782031,0.0839492828,0.0357379951,15.6601047516,-13.0080738068,25.1837406158
        0.9321038723,        0.1031782031,-0.3203476071,0.0284137763,12.6236057281,-14.0456714630,17.7374515533
        0.9346780777,       -0.0208452344,-0.3203476071,0.0284137763,12.6236057281,-14.0456714630,17.7374515533
        0.9372508526,       -0.0208452344,-0.3203476071,0.0284137763,6.3980197906,-5.0735030174,15.6469974518
        0.9398689270,       -0.0208452344,-0.3203476071,0.0284137763,6.3980197906,-5.0735030174,15.6469974518
        0.9424419403,       -0.0208452344,-0.8799179196,-0.2279338837,6.3980197906,0.5417313576,14.5941410065
        0.9450159073,       -0.0857866406,-0.8799179196,-0.2279338837,-1.2771511078,0.5417313576,14.5941410065
        0.9476630688,       -0.0857866406,-0.8799179196,-0.2279338837,-1.2771511078,0.5417313576,10.6726322174
        0.9503560066,       -0.0857866406,-0.8799179196,-0.2279338837,-18.0465602875,0.8469071388,10.6726322174
        0.9529340267,       -0.1033647656,-1.1123397350,-0.2669963837,-18.0465602875,0.8469071388,8.6889896393
        0.9555010796,       -0.1033647656,-1.1123397350,-0.2669963837,-34.5718307495,4.3564286232,8.6889896393
        0.9581990242,       -0.1033647656,-1.1123397350,-0.2669963837,-34.5718307495,4.3564286232,9.8639163971
        0.9607789516,       -0.1033647656,-1.1123397350,-0.2669963837,-46.6720504761,6.1722245216,9.8639163971
        0.9633529186,       -0.1370561719,-0.6665390134,-0.1815471649,-46.6720504761,6.1722245216,9.8639163971
        0.9659280777,       -0.1370561719,-0.6665390134,-0.1815471649,-63.6550827026,6.3095536232,16.4251956940
        0.9686028957,       -0.1370561719,-0.6665390134,-0.1815471649,-63.6550827026,6.3095536232,16.4251956940
        0.9713158607,       -0.1370561719,-0.6665390134,-0.1815471649,-79.7683639526,6.2637772560,24.8327884674
        0.9740228653,       -0.1326616406,-0.1933944672,-0.1146526337,-79.7683639526,6.2637772560,24.8327884674
        0.9767289162,       -0.1326616406,-0.1933944672,-0.1146526337,-84.8953170776,7.2555985451,32.7978744507
        0.9794499874,       -0.1326616406,-0.1933944672,-0.1146526337,-84.8953170776,7.2555985451,32.7978744507
        0.9821619987,       -0.1326616406,0.0566055328,-0.1156291962,-82.9421920776,7.9117264748,38.4131088257
        0.9848649502,       -0.1463335156,0.0307266265,-0.1156291962,-82.9421920776,7.9117264748,38.4131088257
        0.9875888824,       -0.1463335156,0.0307266265,-0.1156291962,-79.7073287964,6.4011063576,42.1820297241
        0.9902980328,       -0.1463335156,0.0307266265,-0.1156291962,-79.7073287964,6.4011063576,42.1820297241
        0.9930050373,       -0.1111772656,0.0024063140,-0.0843791962,-75.9994430542,2.9678788185,44.4098129272
        0.9957098961,       -0.1111772656,0.0024063140,-0.0843791962,-75.9994430542,2.9678788185,44.4098129272
        0.9984319210,       -0.1111772656,0.0024063140,-0.0843791962,-67.7444381714,-0.0533614159,44.3792953491
        1.0011398792,       -0.1111772656,0.0024063140,-0.0843791962,-67.7444381714,-0.0533614159,44.3792953491
        1.0038430691,       -0.1018999219,-0.0635116547,-0.0838909149,-54.4235153198,-2.3421797752,43.1738510132
        1.0065510273,       -0.1018999219,-0.0635116547,-0.0838909149,-54.4235153198,-2.3421797752,43.1738510132
        1.0091998577,       -0.1018999219,-0.0635116547,-0.0838909149,-40.6143112183,-4.1732344627,41.2970199585
        1.0117800236,       -0.1018999219,-0.0635116547,-0.0838909149,-40.6143112183,-4.1732344627,41.2970199585
        1.0146188736,       -0.0516069531,-0.0679061860,-0.1170940399,-30.8029079437,-6.1873946190,39.0539779663
        1.0171968937,       -0.0516069531,-0.0679061860,-0.1170940399,-30.8029079437,-6.1873946190,39.0539779663
        1.0198919773,       -0.0516069531,-0.0679061860,-0.1170940399,-24.6230983734,-9.6816577911,37.4060287476
        1.0225908756,       -0.0516069531,-0.0679061860,-0.1063518524,-24.6230983734,-9.6816577911,37.4060287476
        1.0252850056,        0.0157758594,-0.0932968110,-0.1063518524,-20.5032253265,-12.9165210724,34.8578109741
        1.0280120373,        0.0157758594,-0.0932968110,-0.1063518524,-20.5032253265,-12.9165210724,34.8578109741
        1.0307040215,        0.0157758594,-0.0932968110,-0.1063518524,-17.5277614594,-14.2287769318,32.9352035522
        1.0333869457,        0.0426313281,-0.0732772797,-0.1415081024,-17.5277614594,-14.2287769318,32.9352035522
        1.0360779762,        0.0426313281,-0.0732772797,-0.1415081024,-15.9866237640,-14.3050708771,30.9668216705
        1.0388660431,        0.0426313281,-0.0732772797,-0.1415081024,-15.9866237640,-14.3050708771,30.9668216705
        1.0415329933,        0.0426313281,-0.0732772797,-0.1415081024,-15.3762722015,-14.7017993927,29.3646488190
        1.0442059040,        0.0372602344,-0.1011093110,-0.1771526337,-15.3762722015,-14.7017993927,29.3646488190
        1.0468728542,        0.0372602344,-0.1011093110,-0.1771526337,-15.4830837250,-15.5257740021,27.2589359283
        1.0495228767,        0.0372602344,-0.1011093110,-0.1771526337,-15.4830837250,-15.5257740021,27.2589359283
        1.0521008968,        0.0372602344,-0.1011093110,-0.1771526337,-15.8492946625,-15.1900806427,25.0464115143
        1.0546760559,        0.0362836719,-0.1748397797,-0.1805706024,-15.8492946625,-15.1900806427,25.0464115143
        1.0572540760,        0.0362836719,-0.1748397797,-0.1805706024,-17.7108669281,-15.8156909943,22.3913822174
        1.0598490238,        0.0362836719,-0.1748397797,-0.1805706024,-17.7108669281,-15.8156909943,22.3913822174
        1.0624229908,        0.0362836719,-0.1748397797,-0.1805706024,-21.8612575531,-16.7312183380,20.8502445221
        1.0649950504,        0.0699750781,-0.2016952485,-0.1000041962,-21.8612575531,-16.7312183380,20.8502445221
        1.0676369667,        0.0699750781,-0.2016952485,-0.1000041962,-21.8612575531,-18.0282154083,19.8431644440
        1.0703229904,        0.0699750781,-0.2016952485,-0.1000041962,-26.0726833344,-18.0282154083,19.8431644440
        1.0728979111,        0.0699750781,-0.2016952485,-0.0311565362,-26.0726833344,-18.0282154083,18.7140140533
        1.0754730701,        0.0831586719,-0.1567733735,-0.0311565362,-29.1396999359,-18.0587329865,18.7140140533
        1.0781910419,        0.0831586719,-0.1567733735,-0.0311565362,-29.1396999359,-18.0587329865,17.9205570221
        1.0809009075,        0.0831586719,-0.1567733735,-0.0311565362,-30.7418727875,-18.0587329865,17.9205570221
        1.0836119652,        0.0831586719,-0.1201522797,-0.0116252862,-30.7418727875,-18.0587329865,16.3183841705
        1.0863170624,        0.0670453906,-0.1201522797,-0.0116252862,-32.6339645386,-17.4788990021,16.3183841705
        1.0890350342,        0.0670453906,-0.1201522797,-0.0116252862,-32.6339645386,-17.4788990021,14.0753421783
        1.0917420387,        0.0670453906,-0.1201522797,-0.0116252862,-33.5647506714,-16.5328540802,14.0753421783
        1.0946178436,        0.0265180469,-0.0972030610,0.0039997138,-33.5647506714,-16.5328540802,12.7478275299
        1.0971980095,        0.0265180469,-0.0972030610,0.0039997138,-34.1903610229,-15.9225025177,12.7478275299
        1.0998959541,        0.0265180469,-0.0972030610,0.0039997138,-34.1903610229,-15.9225025177,11.3897953033
        1.1024780273,        0.0265180469,-0.0972030610,0.0039997138,-35.0448532104,-16.4107837677,11.3897953033
        1.1051709652,       -0.0096147656,-0.0576522797,0.0772418976,-35.0448532104,-16.4107837677,11.0693607330
        1.1080348492,       -0.0096147656,-0.0576522797,0.0772418976,-35.3500289917,-17.0363941193,11.0693607330
        1.1107459068,       -0.0096147656,-0.0576522797,0.0772418976,-35.3500289917,-17.0363941193,10.8404788971
        1.1134560108,       -0.0096147656,-0.0576522797,0.0801715851,-33.8546676636,-17.1889820099,10.8404788971
        1.1161689758,       -0.0345171094,-0.0107772797,0.0801715851,-33.8546676636,-17.1889820099,9.5587406158
        1.1188929081,       -0.0345171094,-0.0107772797,0.0801715851,-28.7887477875,-16.1513843536,9.5587406158
        1.1216030121,       -0.0345171094,-0.0107772797,0.0801715851,-28.7887477875,-16.1513843536,8.0023441315
        1.1243100166,       -0.0286577344,-0.0371444672,0.0284137763,-22.9904079437,-15.6478443146,8.0023441315
        1.1270170212,       -0.0286577344,-0.0371444672,0.0284137763,-22.9904079437,-15.6478443146,6.5985355377
        1.1297318935,       -0.0286577344,-0.0371444672,0.0284137763,-18.4127712250,-15.2511157990,6.5985355377
        1.1324439049,       -0.0286577344,-0.0371444672,0.0284137763,-18.4127712250,-15.2511157990,4.7827396393
        1.1351499557,        0.0182172656,-0.0962264985,0.0103473701,-14.6133327484,-15.2663745880,4.7827396393
        1.1378669739,        0.0182172656,-0.0962264985,0.0103473701,-14.6133327484,-15.2663745880,2.8296146393
        1.1404318810,        0.0182172656,-0.0962264985,0.0103473701,-11.3021755219,-15.3121509552,2.8296146393
        1.1430099010,        0.0182172656,-0.0962264985,0.0103473701,-11.3021755219,-15.3121509552,0.8612308502
        1.1460480690,        0.0416547656,-0.0806014985,0.0196247138,-8.3419704437,-15.2511157990,0.8612308502
        1.1486320496,        0.0416547656,-0.0806014985,0.0196247138,-8.3419704437,-15.2511157990,0.8612308502
        1.1512179375,        0.0416547656,-0.0806014985,0.0196247138,-4.1763210297,-14.8543872833,-1.0308589935
        1.1537959576,        0.0416547656,-0.0806014985,0.0059528388,-4.1763210297,-14.8543872833,-1.0308589935
        1.1563708782,        0.0353071094,-0.0757186860,0.0059528388,-1.4602565765,-14.5034351349,-2.1447505951
        1.1591038704,        0.0353071094,-0.0757186860,0.0059528388,-1.4602565765,-14.5034351349,-2.1447505951
        1.1616790295,        0.0353071094,-0.0757186860,0.0059528388,-0.5142116547,-13.7404956818,-2.2668209076
        1.1642589569,        0.0353071094,-0.1064804047,-0.0160198174,-0.5142116547,-13.7404956818,-2.2668209076
        1.1668429375,        0.0245649219,-0.1064804047,-0.0160198174,-0.1937770844,-13.6031665802,-3.0297603607
        1.1696209908,        0.0245649219,-0.1064804047,-0.0160198174,-0.1937770844,-13.6031665802,-3.0297603607
        1.1723439693,        0.0245649219,-0.1064804047,-0.0160198174,-0.8346462250,-13.8320484161,-2.8924312592
        1.1750550270,        0.0362836719,-0.1260116547,-0.0394573174,-0.8346462250,-13.8320484161,-2.8924312592
        1.1778030396,        0.0362836719,-0.1260116547,-0.0394573174,-2.9708766937,-14.3050708771,-2.9687252045
        1.1805129051,        0.0362836719,-0.1260116547,-0.0394573174,-2.9708766937,-14.3050708771,-2.9687252045
        1.1832239628,        0.0362836719,-0.1260116547,-0.0394573174,-6.0836696625,-14.7017993927,-2.7398433685
        1.1859359741,        0.0392133594,-0.1006210297,-0.0238323174,-6.0836696625,-14.7017993927,-2.7398433685
        1.1886548996,        0.0392133594,-0.1006210297,-0.0238323174,-8.8760280609,-14.6407642365,-2.2820796967
        1.1913578510,        0.0392133594,-0.1006210297,-0.0238323174,-8.8760280609,-14.6407642365,-2.2820796967
        1.1942160130,        0.0392133594,-0.1006210297,-0.0140666924,-11.0885524750,-14.5644702911,-2.2363033295
        1.1967890263,        0.0372602344,-0.1094100922,-0.0140666924,-11.0885524750,-14.5644702911,-2.2363033295
        1.1994590759,        0.0372602344,-0.1094100922,-0.0140666924,-11.8209743500,-14.4423999786,-2.5567378998
        1.2020339966,        0.0372602344,-0.1094100922,-0.0140666924,-11.8209743500,-14.4423999786,-2.5567378998
        1.2054948807,        0.0289594531,-0.1240585297,-0.0135784112,-12.7059841156,-14.1372241974,-3.0755367279
        1.2082049847,        0.0289594531,-0.1240585297,-0.0135784112,-12.7059841156,-14.1372241974,-3.0755367279
        1.2108850479,        0.0289594531,-0.1240585297,-0.0135784112,-12.7059841156,-13.8167896271,-3.3196773529
        1.2134568691,        0.0289594531,-0.1240585297,-0.0135784112,-12.7059841156,-13.8167896271,-3.3196773529
        1.2160270214,        0.0460492969,-0.0986679047,-0.0067424737,-11.1343288422,-14.2898120880,-3.8995113373
        1.2186119556,        0.0460492969,-0.0986679047,-0.0067424737,-11.1343288422,-14.2898120880,-3.8995113373
        1.2211799622,        0.0460492969,-0.0986679047,-0.0067424737,-8.8607692719,-15.0069751740,-4.9828853607
        1.2237520218,        0.0460492969,-0.0986679047,-0.0067424737,-8.8607692719,-15.0069751740,-4.9828853607
        1.2263228893,        0.0426313281,-0.0766952485,0.0054645576,-3.2607936859,-15.3731861115,-5.9899654388
        1.2289400101,        0.0426313281,-0.0766952485,0.0054645576,-3.2607936859,-15.3731861115,-5.9899654388
        1.2315099239,        0.0426313281,-0.0766952485,0.0054645576,3.7277317047,-14.5949878693,-6.5087642670
        1.2340860367,        0.0426313281,-0.0766952485,0.0054645576,3.7277317047,-14.5949878693,-6.5087642670
        1.2366609573,        0.0260297656,-0.1103866547,-0.0043010674,9.0530490875,-14.4576587677,-8.2177486420
        1.2392439842,        0.0260297656,-0.1103866547,-0.0043010674,9.0530490875,-14.4576587677,-8.2177486420
        1.2418160439,        0.0260297656,-0.1103866547,-0.0043010674,9.0530490875,-14.5186939240,-8.7365474701
        1.2443890572,        0.0260297656,-0.1103866547,-0.0003948174,11.7843723297,-14.5186939240,-8.7365474701
        1.2469599247,        0.0309125781,-0.1191757172,-0.0003948174,11.7843723297,-14.5186939240,-8.5839595795
        1.2496759892,        0.0309125781,-0.1191757172,-0.0003948174,13.6612033844,-14.2898120880,-8.5839595795
        1.2522459030,        0.0309125781,-0.1191757172,-0.0003948174,13.6612033844,-14.2898120880,-8.3245601654
        1.2548189163,        0.0309125781,-0.1191757172,0.0157184638,15.6295871735,-13.5421314240,-8.3245601654
        1.2573928833,        0.0245649219,-0.1152694672,0.0157184638,15.6295871735,-13.5421314240,-8.3245601654
        1.2600769997,        0.0245649219,-0.1152694672,0.0157184638,16.9418430328,-12.4129810333,-8.5076656342
        1.2626440525,        0.0245649219,-0.1152694672,0.0157184638,16.9418430328,-12.4129810333,-8.5076656342
        1.2652149200,        0.1495649219,-0.1406600922,0.0362262763,18.2998752594,-11.3906421661,-7.0428218842
        1.2678458691,        0.0250532031,-0.1406600922,0.0362262763,18.2998752594,-11.3906421661,-7.0428218842
        1.2704210281,        0.0250532031,-0.1406600922,0.0362262763,18.8339328766,-10.5056324005,-5.7153072357
        1.2730989456,        0.0250532031,-0.1406600922,0.0362262763,18.8339328766,-10.5056324005,-5.7153072357
        1.2756679058,        0.0211469531,-0.1557968110,0.0201129951,17.2927951813,-9.5748462677,-5.8831539154
        1.2782840729,        0.0211469531,-0.1557968110,0.0201129951,17.2927951813,-9.5748462677,-5.8831539154
        1.2809760571,        0.0211469531,-0.1557968110,0.0201129951,14.5309543610,-9.1323413849,-6.2188472748
        1.2836699486,        0.0211469531,-0.1557968110,0.0201129951,14.5309543610,-9.1323413849,-6.2188472748
        1.2863609791,        0.0401899219,-0.0869491547,0.0206012763,10.4263401031,-8.3694019318,-6.2035884857
        1.2890629768,        0.0401899219,-0.0869491547,0.0206012763,10.4263401031,-8.3694019318,-6.2035884857
        1.2917580605,        0.0401899219,-0.0869491547,0.0206012763,7.8323459625,-8.1252613068,-5.7153072357
        1.2944488525,        0.0401899219,-0.0869491547,0.0206012763,7.8323459625,-8.1252613068,-5.7153072357
        1.2971379757,        0.0626508594,-0.0576522797,0.0206012763,6.7031955719,-7.5912032127,-6.0052242279
        1.2998449802,        0.0626508594,-0.0576522797,0.0206012763,6.7031955719,-7.5912032127,-6.0052242279
        1.3025400639,        0.0626508594,-0.0576522797,0.0206012763,4.9026584625,-6.9198164940,-6.8291988373
        1.3052279949,        0.0626508594,-0.1826522797,0.0127887763,4.9026584625,-6.9198164940,-6.8291988373
        1.3079328537,        0.0484907031,-0.0688827485,0.0127887763,3.6056613922,-6.4010176659,-7.3785152435
        1.3106279373,        0.0484907031,-0.0688827485,0.0127887763,3.6056613922,-6.4010176659,-7.3785152435
        1.3133220673,        0.0484907031,-0.0688827485,0.0127887763,3.6209201813,-5.9279952049,-8.5534420013
        1.3161640167,        0.0377485156,-0.0693710297,0.0074176826,3.6209201813,-5.9279952049,-8.5534420013
        1.3190279007,        0.0377485156,-0.0693710297,0.0074176826,4.0023899078,-5.7601485252,-9.2858638763
        1.3217389584,        0.0377485156,-0.0693710297,0.0074176826,4.0023899078,-5.7601485252,-9.2858638763
        1.3244428635,        0.0377485156,-0.0693710297,0.0074176826,4.6127414703,-5.7601485252,-9.8656978607
        1.3271548748,        0.0484907031,-0.0615585297,0.0127887763,4.6127414703,-5.7601485252,-9.8656978607
        1.3298759460,        0.0484907031,-0.0615585297,0.0127887763,4.8721408844,-5.4244551659,-10.9490718842
        1.3325860500,        0.0484907031,-0.0615585297,0.0127887763,4.8721408844,-5.4244551659,-10.9490718842
        1.3352999687,        0.0484907031,-0.0615585297,0.0206012763,4.6890354156,-5.7906661034,-11.9256343842
        1.3381240368,        0.0504438281,-0.0649764985,0.0206012763,4.6890354156,-5.7906661034,-11.9256343842
        1.3408348560,        0.0504438281,-0.0649764985,0.0206012763,4.6737766266,-5.6075606346,-12.5207271576
        1.3435389996,        0.0504438281,-0.0649764985,0.0206012763,4.6737766266,-5.6075606346,-12.5207271576
        1.3462429047,        0.0646039844,-0.0547225922,0.0279254951,4.6737766266,-5.7601485252,-12.9937496185
        1.3489198685,        0.0646039844,-0.0547225922,0.0279254951,4.6737766266,-5.7601485252,-12.9937496185
        1.3515009880,        0.0646039844,-0.0547225922,0.0279254951,4.9484348297,-5.8974776268,-13.2531490326
        1.3540768623,        0.0646039844,-0.0547225922,0.0279254951,4.9484348297,-5.8974776268,-13.2531490326
        1.3566529751,        0.0655805469,-0.0786483735,0.0279254951,5.3909397125,-5.3023848534,-13.6498775482
        1.3592419624,        0.0655805469,-0.0786483735,0.0279254951,5.3909397125,-5.3023848534,-13.6498775482
        1.3618240356,        0.0655805469,-0.0786483735,0.0279254951,4.7500705719,-4.8446211815,-13.7414302826
        1.3644008636,        0.0655805469,-0.0786483735,0.0279254951,4.7500705719,-4.8446211815,-13.7414302826
        1.3669729233,        0.0480024219,-0.0786483735,0.0235309638,4.7500705719,-4.4784102440,-14.0618648529
        1.3696489334,        0.0480024219,-0.0786483735,0.0235309638,3.7277317047,-4.4784102440,-14.0618648529
        1.3722259998,        0.0480024219,-0.0786483735,0.0235309638,3.7277317047,-0.5721602440,-13.6956539154
        1.3747980595,        0.0480024219,-0.0786483735,0.0235309638,2.6138401031,-3.7765059471,-13.6956539154
        1.3773748875,        0.0494672656,-0.0708358735,0.0284137763,2.6138401031,-3.7765059471,-13.9703121185
        1.3802330494,        0.0494672656,-0.0708358735,0.0284137763,1.6372776031,-3.4102950096,-13.9703121185
        1.3829410076,        0.0494672656,-0.0708358735,0.0284137763,1.6372776031,-3.4102950096,-13.7566890717
        1.3856499195,        0.0494672656,-0.0708358735,0.0381794013,-0.1632595062,-2.9677901268,-13.7566890717
        1.3884019852,        0.0431196094,-0.0766952485,0.0381794013,-0.1632595062,-2.9677901268,-13.2378902435
        1.3911099434,        0.0431196094,-0.0766952485,0.0381794013,-1.4449977875,-2.6320967674,-13.2378902435
        1.3938169479,        0.0431196094,-0.0766952485,0.0381794013,-1.4449977875,-2.6320967674,-12.6122798920
        1.3965158463,        0.0431196094,-0.0830429047,0.0450153388,-1.9485378265,-2.6168379784,-12.6122798920
        1.3991639614,        0.0621625781,-0.0830429047,0.0450153388,-1.9485378265,-2.6168379784,-11.7883052826
        1.4018480778,        0.0621625781,-0.0830429047,0.0450153388,-2.0858669281,-2.1743330956,-11.7883052826
        1.4044220448,        0.0621625781,-0.0830429047,0.0450153388,-2.0858669281,-2.1743330956,-11.7883052826
        1.4069938660,        0.0572797656,-0.0732772797,0.0494098701,-3.2760524750,-1.6860518456,-11.2695064545
        1.4095740318,        0.0572797656,-0.0732772797,0.0494098701,-3.2760524750,-1.6860518456,-11.2695064545
        1.4121420383,        0.0572797656,-0.0732772797,0.0494098701,-4.3136501312,-1.7165694237,-10.7812252045
        1.4147109985,        0.0572797656,-0.0732772797,0.0494098701,-4.3136501312,-1.7165694237,-10.7812252045
        1.4172809124,        0.0685102344,-0.0669296235,0.0357379951,-5.1986598969,-1.1672530174,-10.5065670013
        1.4200360775,        0.0685102344,-0.0669296235,0.0357379951,-5.1986598969,-1.1672530174,-10.5065670013
        1.4227359295,        0.0685102344,-0.0669296235,0.0357379951,-6.1904811859,-0.9994063377,-9.7131099701
        1.4254410267,        0.0685102344,-0.0669296235,0.0357379951,-6.1904811859,-0.9994063377,-9.7131099701
        1.4281878471,        0.0636274219,-0.0727889985,0.0308551826,-7.3196315765,-0.4958662987,-9.3468990326
        1.4308910370,        0.0636274219,-0.0727889985,0.0308551826,-7.3196315765,-0.4958662987,-9.3468990326
        1.4337918758,        0.0636274219,-0.0727889985,0.0308551826,-8.5098171234,-0.2364668846,-8.7518062592
        1.4364829063,        0.0636274219,-0.0498397797,0.0406208076,-8.5098171234,-0.2364668846,-8.7518062592
        1.4396388531,        0.0797407031,-0.0498397797,0.0406208076,-9.6542263031,-0.1906905174,-8.0499019623
        1.4423439503,        0.0797407031,-0.0498397797,0.0406208076,-9.6542263031,-0.1906905174,-8.0499019623
        1.4450440407,        0.0797407031,-0.0498397797,0.0406208076,-10.2645778656,-0.1296553612,-8.3703365326
        1.4477829933,        0.0670453906,-0.0390975922,0.0308551826,-10.2645778656,-0.1296553612,-8.3703365326
        1.4503519535,        0.0670453906,-0.0390975922,0.0308551826,-9.9899196625,0.4044022560,-8.5534420013
        1.4529218674,        0.0670453906,-0.0390975922,0.0308551826,-9.9899196625,0.4044022560,-8.5534420013
        1.4554920197,        0.0670453906,-0.0390975922,0.0308551826,-9.4100856781,0.6485428810,-8.5381832123
        1.4581060410,        0.0680219531,-0.0386093110,0.0245075263,-9.4100856781,0.6485428810,-8.5381832123
        1.4608108997,        0.0680219531,-0.0386093110,0.0245075263,-9.5321559906,1.0910477638,-8.4313716888
        1.4635069370,        0.0680219531,-0.0386093110,0.0245075263,-9.5321559906,1.0910477638,-8.4313716888
        1.4663178921,        0.0680219531,-0.0386093110,0.0303669013,-9.3948268890,0.3128495216,-8.9959468842
        1.4689629078,        0.0748578906,-0.0293319672,0.0303669013,-9.3948268890,0.3128495216,-8.9959468842
        1.4715280533,        0.0748578906,-0.0293319672,0.0303669013,-8.9980983734,0.2212967873,-9.3163814545
        1.4740939140,        0.0748578906,-0.0293319672,0.0303669013,-8.9980983734,0.2212967873,-9.3163814545
        1.4766619205,        0.0748578906,-0.0293319672,0.0191364326,-8.5861110687,1.0147538185,-9.2095699310
        1.4792358875,        0.0787641406,-0.0093124360,0.0191364326,-8.5861110687,1.0147538185,-9.2095699310
        1.4818048477,        0.0787641406,-0.0093124360,0.0191364326,-9.3490505219,2.0370926857,-9.7131099701
        1.4843759537,        0.0787641406,-0.0093124360,0.0191364326,-9.3490505219,2.0370926857,-9.7131099701
        1.4869399071,        0.0787641406,-0.0093124360,-0.0003948174,-10.0051784515,2.7084794044,-10.3539791107
        1.4896659851,        0.0523969531,-0.0117538422,-0.0003948174,-10.0051784515,2.7084794044,-10.3539791107
        1.4922358990,        0.0523969531,-0.0117538422,-0.0003948174,-10.0051784515,2.7084794044,-10.1403560638
        1.4948060513,        0.0523969531,-0.0117538422,-0.0003948174,-9.9441432953,2.7084794044,-10.1403560638
        1.4973790646,        0.0523969531,-0.0215194672,0.0074176826,-9.9441432953,2.7084794044,-10.3844966888
        1.5000839233,        0.0509321094,-0.0215194672,0.0074176826,-9.3795681000,2.3422684669,-10.3844966888
        1.5028150082,        0.0509321094,-0.0215194672,0.0074176826,-9.3795681000,2.3422684669,-10.1403560638
        1.5053870678,        0.0509321094,-0.0215194672,0.0074176826,-8.8607692719,2.0370926857,-10.1403560638
        1.5081548691,        0.0504438281,-0.0420272797,0.0235309638,-8.8607692719,2.0370926857,-10.1403560638
        1.5108258724,        0.0504438281,-0.0420272797,0.0235309638,-8.2351589203,1.6708817482,-10.1403560638
        1.5135779381,        0.0504438281,-0.0420272797,0.0235309638,-8.2351589203,1.6708817482,-9.5452632904
        1.5162749290,        0.0504438281,-0.0420272797,0.0235309638,-7.7316188812,1.5030350685,-9.5452632904
        1.5188429356,        0.0543500781,-0.0420272797,0.0225544013,-7.7316188812,1.5030350685,-8.9654293060
        1.5214109421,        0.0543500781,-0.0420272797,0.0225544013,-7.8079128265,1.0757889748,-8.9654293060
        1.5239799023,        0.0543500781,-0.0420272797,0.0225544013,-7.8079128265,1.0757889748,-8.9654293060
        1.5265419483,        0.0543500781,-0.0420272797,0.0225544013,-8.0825710297,1.1520829201,-9.0417232513
        1.5292680264,        0.0543500781,-0.0244491547,0.0225544013,-8.0825710297,1.1520829201,-9.0417232513
        1.5318360329,        0.0543500781,-0.0244491547,0.0225544013,-8.4487819672,1.1673417091,-9.4384517670
        1.5343990326,        0.0543500781,-0.0244491547,0.0225544013,-8.4487819672,1.1673417091,-9.4384517670
        1.5369720459,        0.0543500781,-0.0244491547,0.0396442451,-8.6013698578,1.2894120216,-9.7741451263
        1.5395410061,        0.0636274219,-0.0132186860,0.0396442451,-8.6013698578,1.2894120216,-9.7741451263
        1.5421090126,        0.0636274219,-0.0132186860,0.0396442451,-8.2199001312,1.1520829201,-9.3163814545
        1.5446839333,        0.0636274219,-0.0132186860,0.0396442451,-8.2199001312,1.1520829201,-9.3163814545
        1.5472500324,        0.0636274219,-0.0132186860,0.0396442451,-8.2046413422,1.2131180763,-9.0722408295
        1.5498209000,        0.0553266406,-0.0264022797,0.0396442451,-8.2046413422,1.2131180763,-9.0722408295
        1.5523889065,        0.0553266406,-0.0264022797,0.0396442451,-7.6705837250,1.0605301857,-9.3316402435
        1.5549490452,        0.0553266406,-0.0264022797,0.0396442451,-7.6705837250,1.0605301857,-9.3316402435
        1.5576429367,        0.0553266406,-0.0117538422,0.0494098701,-7.6705837250,0.7400956154,-9.7741451263
        1.5602109432,        0.0641157031,-0.0117538422,0.0494098701,-6.3125514984,0.7400956154,-9.7741451263
        1.5627770424,        0.0641157031,-0.0117538422,0.0494098701,-6.3125514984,0.7400956154,-10.2471675873
        1.5653479099,        0.0641157031,-0.0117538422,0.0494098701,-4.8171901703,0.2060379982,-10.2471675873
        1.5679359436,        0.0641157031,-0.0224960297,0.0396442451,-4.8171901703,0.2060379982,-10.3997554779
        1.5705049038,        0.0572797656,-0.0224960297,0.0396442451,-3.1997585297,-0.1906905174,-10.3997554779
        1.5730779171,        0.0572797656,-0.0224960297,0.0396442451,-3.1997585297,-0.1906905174,-10.3997554779
        1.5756418705,        0.0572797656,-0.0224960297,0.0396442451,-1.5518093109,0.0839676857,-11.0253658295
        1.5782568455,        0.0514203906,-0.0195663422,0.0440387763,-1.5518093109,0.0839676857,-11.0253658295
        1.5808219910,        0.0514203906,-0.0195663422,0.0440387763,-0.0869655609,0.0534501076,-10.4150142670
        1.5833868980,        0.0514203906,-0.0195663422,0.0440387763,-0.0869655609,0.0534501076,-10.4150142670
        1.5859580040,        0.0514203906,-0.0195663422,0.0440387763,1.6830539703,0.0534501076,-9.8504390717
        1.5885798931,        0.0533735156,-0.0395858735,0.0523395576,1.6830539703,0.0534501076,-9.8504390717
        1.5912718773,        0.0533735156,-0.0395858735,0.0523395576,3.0868625641,0.1144852638,-9.5452632904
        1.5938520432,        0.0533735156,-0.0395858735,0.0523395576,3.0868625641,0.1144852638,-9.5452632904
        1.5964238644,        0.0533735156,-0.0395858735,0.0523395576,3.2394504547,0.5112137794,-8.5839595795
        1.5991010666,        0.0440961719,-0.0513046235,0.0601520576,3.2394504547,0.5112137794,-8.5839595795
        1.6018068790,        0.0440961719,-0.0513046235,0.0601520576,2.7359104156,0.5875077248,-7.4853267670
        1.6045150757,        0.0440961719,-0.0513046235,0.0601520576,2.7359104156,0.5875077248,-7.4853267670
        1.6072280407,        0.0440961719,-0.0513046235,0.0601520576,2.5833225250,0.6027665138,-5.8373775482
        1.6099369526,        0.0523969531,-0.0381210297,0.0372028388,2.5833225250,0.6027665138,-5.8373775482
        1.6126449108,        0.0523969531,-0.0381210297,0.0372028388,3.3004856110,0.6180253029,-4.8913326263
        1.6153500080,        0.0523969531,-0.0381210297,0.0372028388,3.3004856110,0.6180253029,-4.8913326263
        1.6180670261,        0.0523969531,-0.0381210297,0.0498981513,3.7124729156,1.1826004982,-3.2128658295
        1.6207790375,        0.0563032031,-0.0268905610,0.0498981513,3.7124729156,1.1826004982,-3.2128658295
        1.6235280037,        0.0563032031,-0.0268905610,0.0498981513,4.1092014313,1.9150223732,-1.4275875092
        1.6264090538,        0.0563032031,-0.0268905610,0.0498981513,4.1092014313,1.9150223732,-1.4275875092
        1.6291949749,        0.0436078906,-0.0493514985,0.0528278388,4.3228244781,2.4338212013,0.9070072174
        1.6319010258,        0.0436078906,-0.0493514985,0.0528278388,4.3228244781,2.4338212013,0.9070072174
        1.6346089840,        0.0436078906,-0.0493514985,0.0528278388,5.7418918610,2.5864090919,2.0056400299
        1.6373150349,        0.0436078906,-0.0493514985,0.0528278388,5.7418918610,2.5864090919,2.0056400299
        1.6399080753,        0.0357953906,-0.0425155610,0.0542926826,7.2677707672,2.3422684669,3.4552249908
        1.6424880028,        0.0357953906,-0.0425155610,0.0542926826,7.2677707672,2.3422684669,3.4552249908
        1.6450600624,        0.0357953906,-0.0425155610,0.0542926826,8.4426975250,3.2272782326,4.9963626862
        1.6476368904,        0.0357953906,-0.0425155610,0.0542926826,8.4426975250,3.2272782326,4.9963626862
        1.6503469944,        0.0445844531,-0.0273788422,0.0469684638,10.3500461578,3.6545243263,7.5598392487
        1.6530480385,        0.0445844531,-0.0273788422,0.0469684638,10.3500461578,3.6545243263,7.5598392487
        1.6558668613,        0.0445844531,-0.0273788422,0.0469684638,10.5941867828,3.8834061623,9.1314945221
        1.6585659981,        0.0445844531,-0.0371444672,0.0455036201,10.5941867828,3.8834061623,9.1314945221
        1.6611380577,        0.0357953906,-0.0371444672,0.0455036201,10.5941867828,4.1428055763,11.1303958893
        1.6637148857,        0.0357953906,-0.0371444672,0.0455036201,10.7925510406,4.1428055763,11.1303958893
        1.6662838459,        0.0357953906,-0.0371444672,0.0455036201,10.7925510406,4.6768631935,12.8241214752
        1.6688630581,        0.0357953906,-0.0683944672,0.0508747138,10.2432346344,4.6768631935,12.8241214752
        1.6714429855,        0.0226117969,-0.0683944672,0.0508747138,10.2432346344,4.6768631935,14.6093997955
        1.6740159988,        0.0226117969,-0.0683944672,0.0508747138,8.4579563141,4.4784989357,14.6093997955
        1.6765980721,        0.0226117969,-0.0683944672,0.0508747138,8.4579563141,4.4784989357,15.8301029205
        1.6793038845,        0.0157758594,-0.0654647797,0.0704059601,6.8557834625,5.0125565529,15.8301029205
        1.6818759441,        0.0157758594,-0.0654647797,0.0704059601,6.8557834625,5.0125565529,15.8301029205
        1.6844539642,        0.0157758594,-0.0654647797,0.0704059601,5.6503391266,5.2719559669,17.3254642487
        1.6870229244,        0.0157758594,-0.0654647797,0.0704059601,5.6503391266,5.2719559669,17.3254642487
        1.6898200512,        0.0270063281,0.0009414703,0.0381794013,5.0094699860,5.6992020607,18.1799564362
        1.6925349236,        0.0270063281,0.0009414703,0.0381794013,5.0094699860,5.6992020607,18.1799564362
        1.6952359676,        0.0270063281,0.0009414703,0.0381794013,4.7805881500,6.5994706154,19.2633304596
        1.6979470253,        0.0270063281,0.0009414703,0.0381794013,4.7805881500,6.5994706154,19.2633304596
        1.7006480694,        0.0514203906,0.0541641265,0.0445270576,6.0775852203,6.7520585060,19.7516117096
        1.7033569813,        0.0514203906,0.0541641265,0.0445270576,6.0775852203,6.7520585060,19.7516117096
        1.7060630322,        0.0514203906,0.0541641265,0.0445270576,7.6492404938,6.7978348732,19.2022953033
        1.7088160515,        0.0514203906,0.0541641265,0.0381794013,7.6492404938,6.7978348732,19.2022953033
        1.7115218639,        0.0567914844,0.0629531890,0.0381794013,9.3124485016,6.7215409279,18.4393558502
        1.7142288685,        0.0567914844,0.0629531890,0.0381794013,9.3124485016,6.7215409279,18.4393558502
        1.7169320583,        0.0567914844,0.0629531890,0.0381794013,10.5789279938,6.6147294044,18.0731449127
        1.7196519375,        0.0641157031,0.0507461578,0.0318317451,10.5789279938,6.6147294044,18.0731449127
        1.7222268581,        0.0641157031,0.0507461578,0.0318317451,11.2197971344,6.5384354591,18.0426273346
        1.7247979641,        0.0641157031,0.0507461578,0.0318317451,11.2197971344,6.5384354591,18.0426273346
        1.7273778915,        0.0641157031,0.0507461578,0.0318317451,10.5789279938,7.1640458107,17.4475345612
        1.7300410271,        0.0480024219,0.0746719390,0.0494098701,10.5789279938,7.1640458107,17.4475345612
        1.7326149940,        0.0480024219,0.0746719390,0.0494098701,10.7162570953,7.1793045998,17.0508060455
        1.7351958752,        0.0480024219,0.0746719390,0.0494098701,10.7162570953,7.1793045998,17.0508060455
        1.7378270626,        0.0480024219,0.0746719390,0.0494098701,10.7925510406,6.6757645607,17.1118412018
        1.7405200005,        0.0421430469,0.0610000640,0.0420856513,10.7925510406,6.6757645607,17.1118412018
        1.7432088852,        0.0421430469,0.0610000640,0.0420856513,10.2279758453,7.1182694435,17.5390872955
        1.7459919453,        0.0421430469,0.0610000640,0.0420856513,10.2279758453,7.1182694435,17.5390872955
        1.7490210533,        0.0421430469,0.0610000640,0.0362262763,10.1516819000,7.1335282326,18.0121097565
        1.7517318726,        0.0436078906,0.0663711578,0.0362262763,10.1516819000,7.1335282326,18.0121097565
        1.7544479370,        0.0436078906,0.0663711578,0.0362262763,10.3958225250,7.3929276466,18.7140140533
        1.7571499348,        0.0436078906,0.0663711578,0.0362262763,10.3958225250,7.3929276466,18.7140140533
        1.7598679066,        0.0436078906,0.0932266265,0.0411090888,11.2655735016,7.6370682716,19.2785892487
        1.7625739574,        0.0499555469,0.0932266265,0.0411090888,11.2655735016,7.6370682716,19.2785892487
        1.7652769089,        0.0499555469,0.0932266265,0.0411090888,12.2421360016,7.4387040138,18.9276371002
        1.7679998875,        0.0499555469,0.0932266265,0.0411090888,12.2421360016,7.4387040138,18.9276371002
        1.7707078457,        0.0445844531,0.0800430328,0.0230426826,12.5167942047,7.3929276466,19.0039310455
        1.7734110355,        0.0445844531,0.0800430328,0.0230426826,12.5167942047,7.3929276466,19.0039310455
        1.7761259079,        0.0445844531,0.0800430328,0.0230426826,11.8301486969,7.1793045998,19.1412601471
        1.7787840366,        0.0445844531,0.0800430328,0.0230426826,11.8301486969,7.1793045998,19.1412601471
        1.7813549042,        0.0035688281,0.0468399078,0.0103473701,9.8465061188,8.0032787323,20.0262699127
        1.7839310169,        0.0035688281,0.0468399078,0.0103473701,9.8465061188,8.0032787323,20.0262699127
        1.7866070271,        0.0035688281,0.0468399078,0.0103473701,7.4356174469,8.4152660370,21.1401615143
        1.7891888618,        0.0035688281,0.0468399078,0.0103473701,7.4356174469,8.4152660370,21.1401615143
        1.7917640209,        0.0187055469,0.0878555328,-0.0003948174,7.4356174469,8.4000072479,22.2845706940
        1.7943358421,        0.0187055469,0.0878555328,-0.0003948174,5.6198215485,8.4000072479,22.2845706940
        1.7969110012,        0.0187055469,0.0878555328,-0.0003948174,5.6198215485,8.1558666229,22.8186283112
        1.7996399403,        0.0187055469,0.0878555328,0.0020465888,6.0012912750,8.1558666229,22.8186283112
        1.8022110462,        0.0318891406,0.1205703765,0.0020465888,6.0012912750,8.1558666229,22.9101810455
        1.8047900200,        0.0318891406,0.1205703765,0.0020465888,6.6879367828,8.1100902557,22.9101810455
        1.8073589802,        0.0318891406,0.1205703765,0.0020465888,6.6879367828,8.1100902557,22.2693119049
        1.8101530075,        0.0318891406,0.1381485015,-0.0086955987,7.3440647125,8.2779369354,22.2693119049
        1.8128509521,        0.0348188281,0.1381485015,-0.0086955987,7.3440647125,8.2779369354,21.8268070221
        1.8155519962,        0.0348188281,0.1381485015,-0.0086955987,8.6258029938,8.4305248260,21.8268070221
        1.8182718754,        0.0348188281,0.1381485015,-0.0086955987,8.6258029938,8.4305248260,21.6437015533
        1.8209688663,        0.0274946094,0.1259414703,0.0064411201,9.3124485016,8.5373363495,21.6437015533
        1.8236739635,        0.0274946094,0.1259414703,0.0064411201,9.3124485016,8.5373363495,21.7505130768
        1.8263790607,        0.0274946094,0.1259414703,0.0064411201,9.7854709625,8.4915599823,21.7505130768
        1.8290240765,        0.0274946094,0.1259414703,0.0064411201,9.7854709625,8.4915599823,21.7505130768
        1.8315980434,        0.0299360156,0.1239883453,0.0181598701,10.5636692047,8.6288890839,22.1472415924
        1.8341720104,        0.0299360156,0.1239883453,0.0181598701,10.5636692047,8.6288890839,22.1472415924
        1.8367440701,        0.0299360156,0.1239883453,0.0181598701,11.4029026031,8.5983715057,22.7881107330
        1.8394589424,        0.0299360156,0.1239883453,0.0181598701,11.4029026031,8.5983715057,22.7881107330
        1.8421599865,        0.0138227344,0.1191055328,0.0401325263,12.2573947906,8.6441478729,23.1543216705
        1.8448629379,        0.0138227344,0.1191055328,0.0401325263,12.2573947906,8.6441478729,23.1543216705
        1.8475780487,        0.0138227344,0.1191055328,0.0401325263,13.8290500641,8.5220775604,23.6731204987
        1.8503980637,        0.0138227344,0.1215469390,0.0372028388,13.8290500641,8.5220775604,23.6731204987
        1.8531110287,        0.0030805469,0.1215469390,0.0372028388,14.6225070953,8.8272533417,24.5886478424
        1.8558180332,        0.0030805469,0.1215469390,0.0372028388,14.6225070953,8.8272533417,24.5886478424
        1.8585388660,        0.0030805469,0.1215469390,0.0372028388,15.7669162750,9.5291576385,25.9009037018
        1.8612480164,        0.0045453906,0.1215469390,0.0254840888,15.7669162750,9.5291576385,25.9009037018
        1.8639650345,        0.0045453906,0.1215469390,0.0254840888,17.2622776031,9.8648509979,26.8164310455
        1.8666729927,        0.0045453906,0.1215469390,0.0254840888,17.2622776031,9.8648509979,28.4491214752
        1.8698170185,        0.0045453906,0.1215469390,0.0254840888,18.0252170563,10.1395092010,28.4491214752
        1.8725218773,       -0.0203569531,0.1078750640,0.0186481513,18.0252170563,10.1395092010,32.3553695679
        1.8752319813,       -0.0203569531,0.1078750640,0.0186481513,18.6966037750,11.0245189667,30.0512943268
        1.8779230118,       -0.0203569531,0.1078750640,0.0186481513,18.6966037750,11.0245189667,30.0512943268
        1.8804910183,       -0.0203569531,0.1078750640,0.0176715888,19.0628147125,12.0926342010,32.3858871460
        1.8830699921,       -0.0647905469,0.0922500640,0.0176715888,19.0628147125,12.0926342010,32.3858871460
        1.8856449127,       -0.0647905469,0.0922500640,0.0176715888,19.0933322906,13.3285961151,34.3237533569
        1.8882789612,       -0.0647905469,0.0922500640,0.0176715888,19.0933322906,13.3285961151,34.3237533569
        1.8909800053,       -0.1897905469,0.0639297515,0.0313434638,18.9407444000,13.9694652557,36.3226547241
        1.8936810493,       -0.1180132031,0.0639297515,0.0313434638,18.9407444000,13.9694652557,36.3226547241
        1.8963959217,       -0.1180132031,0.0639297515,0.0313434638,18.4829807281,14.4119701385,38.8708724976
        1.8990449905,       -0.1180132031,0.0639297515,0.0313434638,18.4829807281,14.4119701385,38.8708724976
        1.9016170502,       -0.1482866406,0.0785781890,0.0328083076,17.5827121735,14.6866283417,41.8615951538
        1.9041919708,       -0.1482866406,0.0785781890,0.0328083076,17.5827121735,14.6866283417,41.8615951538
        1.9067649841,       -0.1482866406,0.0785781890,0.0328083076,17.6284885406,14.5492992401,43.8452377319
        1.9093859196,       -0.1482866406,0.0785781890,0.0328083076,17.6284885406,14.5492992401,43.8452377319
        1.9126079082,       -0.1722124219,0.0668594390,0.0254840888,18.4066867828,13.8016185760,45.7220687866
        1.9152898788,       -0.1722124219,0.0668594390,0.0254840888,18.4066867828,13.8016185760,45.7220687866
        1.9180300236,       -0.1722124219,0.0668594390,0.0254840888,19.4595432281,13.3133373260,47.6294174194
        1.9206130505,       -0.1722124219,0.0668594390,0.0079059638,19.4595432281,13.3133373260,47.6294174194
        1.9231889248,       -0.2049272656,0.0673477203,0.0079059638,21.3058567047,12.9471263885,50.3149642944
        1.9257569313,       -0.2049272656,0.0673477203,0.0079059638,21.3058567047,12.9471263885,50.3149642944
        1.9283828735,       -0.2049272656,0.0673477203,0.0079059638,23.6862277985,12.1078929901,53.3514633179
        1.9309589863,       -0.2049272656,-0.0576522797,-0.0209026299,23.6862277985,12.1078929901,53.3514633179
        1.9335269928,       -0.2322710156,0.0478164703,-0.0209026299,25.4715061188,10.8719310760,56.3727035522
        1.9361000061,       -0.2322710156,0.0478164703,-0.0209026299,25.4715061188,10.8719310760,56.3727035522
        1.9386799335,       -0.2322710156,0.0478164703,-0.0209026299,25.4715061188,9.5596752167,59.5617904663
        1.9412510395,       -0.2322710156,0.0224258453,-0.0472698174,26.5396213531,9.5596752167,59.5617904663
        1.9438278675,       -0.2635210156,0.0224258453,-0.0472698174,26.5396213531,9.5596752167,64.0783920288
        1.9463908672,       -0.2635210156,0.0224258453,-0.0472698174,27.5009250641,8.5068187714,64.0783920288
        1.9490108490,       -0.2635210156,0.0224258453,-0.0472698174,27.5009250641,8.5068187714,68.0914535522
        1.9515919685,       -0.2635210156,0.0043594390,-0.0467815362,29.4235324860,7.2861161232,68.0914535522
        1.9541618824,       -0.2957475781,0.0043594390,-0.0467815362,29.4235324860,7.2861161232,68.0914535522
        1.9567320347,       -0.2957475781,0.0043594390,-0.0467815362,31.7276096344,5.8975663185,70.8227767944
        1.9594640732,       -0.2957475781,0.0043594390,-0.0467815362,31.7276096344,5.8975663185,70.8227767944
        1.9620339870,       -0.2981889844,-0.0146835297,-0.0287151299,34.5810012817,3.3493485451,73.1268539429
        1.9646079540,       -0.2981889844,-0.0146835297,-0.0287151299,34.5810012817,3.3493485451,73.1268539429
        1.9671750069,       -0.2981889844,-0.0146835297,-0.0287151299,37.5106887817,1.2283768654,75.6750717163
        1.9698710442,       -0.2981889844,-0.0146835297,-0.0287151299,37.5106887817,1.2283768654,75.6750717163
        1.9724440575,       -0.3226030469,-0.0273788422,-0.0331096612,39.0976028442,0.3891434669,77.6587142944
        1.9750149250,       -0.3226030469,-0.0273788422,-0.0331096612,39.0976028442,0.3891434669,77.6587142944
        1.9777600765,       -0.3226030469,-0.0273788422,-0.0331096612,40.6539993286,-0.1601729393,79.4745101929
        1.9803369045,       -0.3226030469,-0.0273788422,-0.0331096612,40.6539993286,-0.1601729393,79.4745101929
        1.9829030037,       -0.3240678906,-0.0220077485,-0.0145549737,43.4005813599,-1.1367354393,80.9698715210
        1.9854800701,       -0.3240678906,-0.0220077485,-0.0145549737,43.4005813599,-1.1367354393,80.9698715210
        1.9880840778,       -0.3240678906,-0.0220077485,-0.0145549737,45.9030227661,-3.8222823143,81.9922103882
        1.9907948971,       -0.3240678906,-0.0220077485,-0.0145549737,45.9030227661,-3.8222823143,81.9922103882
        1.9935009480,       -0.3020952344,0.0028945953,0.0279254951,49.0921096802,-5.5007491112,83.4265365601
        1.9962110519,       -0.3020952344,0.0028945953,0.0279254951,49.0921096802,-5.5007491112,83.4265365601
        1.9989249706,       -0.3020952344,0.0028945953,0.0279254951,49.6414260864,-4.8293623924,82.9077377319
        2.0016410351,       -0.3020952344,0.0028945953,0.0518512763,49.6414260864,-4.8293623924,82.9077377319
        2.0043499470,       -0.3348100781,-0.0019882172,0.0518512763,44.2550735474,-4.2800459862,81.5344467163
        2.0070619583,       -0.3348100781,-0.0019882172,0.0518512763,44.2550735474,-4.2800459862,81.5344467163
        2.0098738670,       -0.3348100781,-0.0019882172,0.0518512763,40.0436477661,-3.9596114159,81.2597885132
        2.0125870705,       -0.2947710156,0.0155899078,0.1050739288,40.0436477661,-3.9596114159,81.2597885132
        2.0153000355,       -0.2947710156,0.0155899078,0.1050739288,41.0202102661,-1.9301924706,81.7938461304
        2.0180180073,       -0.2947710156,0.0155899078,0.1050739288,41.0202102661,-1.9301924706,81.7938461304
        2.0207209587,       -0.2947710156,0.0155899078,0.1050739288,41.5390090942,0.9384598732,82.5873031616
        2.0234310627,       -0.2610796094,0.0209610015,0.1158161163,41.5390090942,0.9384598732,82.5873031616
        2.0262839794,       -0.2610796094,0.0209610015,0.1158161163,40.3335647583,4.4327225685,81.9922103882
        2.0293419361,       -0.2610796094,0.0209610015,0.1158161163,40.3335647583,4.4327225685,81.9922103882
        2.0319149494,       -0.2610796094,0.0209610015,0.1089801788,38.6398391724,7.3166337013,81.3360824585
        2.0344860554,       -0.1868608594,0.0224258453,0.1089801788,38.6398391724,7.3166337013,81.3360824585
        2.0370628834,       -0.1868608594,0.0224258453,0.1089801788,40.3183059692,9.1019115448,80.5578842163
        2.0397160053,       -0.1868608594,0.0224258453,0.1089801788,40.3183059692,9.1019115448,80.5578842163
        2.0425028801,       -0.1868608594,0.1591445953,0.1558551788,45.4300003052,8.4763011932,81.1529769897
        2.0451660156,       -0.1126421094,0.1591445953,0.1558551788,45.4300003052,8.4763011932,81.1529769897
        2.0478520393,       -0.1126421094,0.1591445953,0.1558551788,49.1226272583,6.9961991310,83.1366195679
        2.0505578518,       -0.1126421094,0.1591445953,0.1558551788,49.1226272583,6.9961991310,83.1366195679
        2.0532598495,       -0.0613725781,0.2221328765,0.2217731476,47.1389846802,6.0348954201,83.8537826538
        2.0559668541,       -0.0613725781,0.2221328765,0.2217731476,47.1389846802,6.0348954201,83.8537826538
        2.0586440563,       -0.0613725781,0.2221328765,0.2217731476,44.1024856567,3.6392655373,82.0990219116
        2.0612199306,       -0.0613725781,0.2221328765,0.2217731476,44.1024856567,3.6392655373,82.0990219116
        2.0637998581,        0.0587446094,0.1376602203,0.2925739288,44.1024856567,-0.5569014549,78.3301010132
        2.0663728714,        0.0587446094,0.1376602203,0.2925739288,43.9041213989,-0.5569014549,78.3301010132
        2.0689830780,        0.0587446094,0.1376602203,0.2925739288,43.9041213989,-0.5569014549,70.6854476929
        2.0715630054,        0.0587446094,0.1376602203,0.2925739288,43.7057571411,-3.7002120018,70.6854476929
        2.0741369724,        0.1529828906,-0.1015975922,0.2930622101,43.7057571411,-3.7002120018,59.9890365601
        2.0767168999,        0.1529828906,-0.1015975922,0.2930622101,47.9324417114,-5.7601485252,59.9890365601
        2.0794570446,        0.1529828906,-0.1015975922,0.2930622101,47.9324417114,-5.7601485252,48.2702865601
        2.0820310116,        0.1529828906,-0.1015975922,0.2930622101,50.3891067505,-8.5982837677,48.7280502319
        2.0846128464,        0.2306196094,-0.2392929047,0.2598590851,50.3891067505,-8.5982837677,48.7280502319
        2.0871908665,        0.2306196094,-0.2392929047,0.2598590851,54.0512161255,-11.5890064240,36.4142074585
        2.0899779797,        0.2306196094,-0.2392929047,0.2598590851,54.0512161255,-11.5890064240,36.4142074585
        2.0926899910,        0.2306196094,-0.2866562009,0.1807575226,62.7639846802,-14.2287769318,23.8104496002
        2.0953979492,        0.2516157031,-0.2866562009,0.1807575226,62.7639846802,-14.2287769318,23.8104496002
        2.0981180668,        0.2516157031,-0.2866562009,0.1807575226,70.3018264771,-13.9541187286,10.3674564362
        2.1008288860,        0.2516157031,-0.2866562009,0.1807575226,70.3018264771,-13.9541187286,10.3674564362
        2.1035330296,        0.2638227344,-0.4673202634,0.0396442451,75.0930862427,-11.5584888458,-3.7774410248
        2.1063590050,        0.2638227344,-0.4673202634,0.0396442451,75.0930862427,-11.5584888458,-3.7774410248
        2.1090779305,        0.2638227344,-0.4673202634,0.0396442451,80.2352981567,-9.4069995880,-16.0760250092
        2.1117839813,        0.2638227344,-0.4673202634,0.0396442451,80.2352981567,-9.4069995880,-16.0760250092
        2.1144938469,        0.3282758594,-0.4863632321,-0.0262737237,81.4102249146,-8.2168140411,-25.2007808685
        2.1171929836,        0.3282758594,-0.4863632321,-0.0262737237,81.4102249146,-8.2168140411,-25.2007808685
        2.1199078560,        0.3282758594,-0.4863632321,-0.0262737237,79.3502883911,-7.9268965721,-32.5250015259
        2.1226139069,        0.3282758594,-0.4863632321,-0.0604534112,79.3502883911,-7.9268965721,-32.5250015259
        2.1253190041,        0.3883344531,-0.4658554196,-0.0604534112,75.4592971802,-7.2402510643,-41.1767349243
        2.1280448437,        0.3883344531,-0.4658554196,-0.0604534112,75.4592971802,-7.2402510643,-41.1767349243
        2.1307508945,        0.3883344531,-0.4658554196,-0.0604534112,71.2020950317,-6.3857588768,-51.5679702759
        2.1334600449,        0.4156782031,-0.3681991696,-0.0887737274,71.2020950317,-6.3857588768,-51.5679702759
        2.1361770630,        0.4156782031,-0.3681991696,-0.0887737274,68.4402542114,-4.8141036034,-61.3335952759
        2.1389029026,        0.4156782031,-0.3681991696,-0.0887737274,68.4402542114,-4.8141036034,-61.3335952759
        2.1416120529,        0.4156782031,-0.3681991696,-0.0887737274,65.4495315552,-3.1203780174,-70.0768814087
        2.1444559097,        0.4469282031,-0.2710312009,-0.1014690399,65.4495315552,-3.1203780174,-70.0768814087
        2.1471660137,        0.4469282031,-0.2710312009,-0.1014690399,61.3143997192,-2.1895918846,-77.8436050415
        2.1498858929,        0.4469282031,-0.2710312009,-0.1014690399,61.3143997192,-2.1895918846,-77.8436050415
        2.1525878906,        0.4469282031,-0.2710312009,-0.1014690399,56.2484817505,-1.8386397362,-86.5105972290
        2.1552908421,        0.4269086719,-0.2153671235,-0.1190471649,56.2484817505,-1.8386397362,-86.5105972290
        2.1580069065,        0.4269086719,-0.2153671235,-0.1190471649,49.7482376099,-0.7857832909,-93.5448989868
        2.1607320309,        0.4269086719,-0.2153671235,-0.1190471649,49.7482376099,-0.7857832909,-93.5448989868
        2.1637840271,        0.3863813281,-0.2373397797,-0.1166057587,43.3242874146,-0.7857832909,-101.0064468384
        2.1664988995,        0.3863813281,-0.2373397797,-0.1166057587,43.3242874146,-0.7857832909,-110.2074966431
        2.1692180634,        0.3863813281,-0.2373397797,-0.1166057587,39.8300247192,-0.8925948143,-110.2074966431
        2.1720380783,        0.3863813281,-0.2373397797,-0.1166057587,39.8300247192,-0.8925948143,-120.0494155884
        2.1747460365,        0.3839399219,-0.3013046384,-0.1366252899,34.0316848755,-1.1672530174,-120.0494155884
        2.1774518490,        0.3839399219,-0.3013046384,-0.1366252899,34.0316848755,-1.1672530174,-129.3877868652
        2.1800918579,        0.3839399219,-0.3013046384,-0.1366252899,24.8458957672,-2.3421797752,-129.3877868652
        2.1826629639,        0.3839399219,-0.3013046384,-0.1366252899,24.8458957672,-2.3421797752,-129.3877868652
        2.1852500439,        0.3507367969,-0.3125351071,-0.1429729462,13.8443088531,-2.7999434471,-138.7109069824
        2.1878490448,        0.3507367969,-0.3125351071,-0.1429729462,13.8443088531,-2.7999434471,-138.7109069824
        2.1904258728,        0.3507367969,-0.3125351071,-0.1429729462,1.4389133453,-3.2577071190,-147.1184997559
        2.1930088997,        0.3507367969,-0.3125351071,-0.1429729462,1.4389133453,-3.2577071190,-147.1184997559
        2.1955878735,        0.3116742969,-0.2632187009,-0.1302776337,-10.7223415375,-3.0135664940,-154.1985778809
        2.1982140541,        0.3116742969,-0.2632187009,-0.1302776337,-10.7223415375,-3.0135664940,-154.1985778809
        2.2007830143,        0.3116742969,-0.2632187009,-0.1302776337,-21.3271999359,-2.8609786034,-160.1800231934
        2.2033510208,        0.3116742969,-0.2632187009,-0.1087932587,-21.3271999359,-2.8609786034,-160.1800231934
        2.2059268951,        0.2940961719,-0.1714218110,-0.1087932587,-30.6808376312,-3.5171065331,-165.7189636230
        2.2086939812,        0.2940961719,-0.1714218110,-0.1087932587,-30.6808376312,-3.5171065331,-165.7189636230
        2.2112660408,        0.2940961719,-0.1714218110,-0.1087932587,-39.9581832886,-3.8833174706,-170.9374694824
        2.2138450146,        0.2940961719,-0.1059921235,-0.0614299737,-39.9581832886,-3.8833174706,-170.9374694824
        2.2164230347,        0.2550336719,-0.1059921235,-0.0614299737,-49.9832077026,-4.0969405174,-175.7134704590
        2.2190909386,        0.2550336719,-0.1059921235,-0.0614299737,-49.9832077026,-4.0969405174,-175.7134704590
        2.2217829227,        0.2550336719,-0.1059921235,-0.0614299737,-61.7019577026,-4.3715987206,-180.3979187012
        2.2243568897,        0.2066938281,-0.0732772797,-0.0423870049,-59.5504684448,-4.3715987206,-180.3979187012
        2.2269308567,        0.2066938281,-0.0732772797,-0.0423870049,-67.3629684448,-4.8446211815,-185.0518493652
        2.2296900749,        0.2066938281,-0.0732772797,-0.0423870049,-68.6752243042,-4.8446211815,-185.0518493652
        2.2322669029,        0.2066938281,-0.0732772797,-0.0423870049,-76.4877243042,-4.6767745018,-189.1564636230
        2.2353038788,        0.1461469531,-0.0498397797,-0.0130901299,-77.4185104370,-4.6767745018,-189.1564636230
        2.2378840446,        0.1461469531,-0.0498397797,-0.0130901299,-77.4185104370,-4.9056563377,-193.5357360840
        2.2404620647,        0.1461469531,-0.0498397797,-0.0130901299,-85.7498092651,-4.9056563377,-193.5357360840
        2.2430369854,        0.1461469531,-0.0498397797,-0.0130901299,-85.7498092651,-4.9056563377,-197.0910339355
        2.2456059456,        0.1065961719,0.0248672515,-0.0184612237,-92.0211715698,-4.2342696190,-197.0910339355
        2.2482559681,        0.1065961719,0.0248672515,-0.0184612237,-92.0211715698,-4.2342696190,-200.1733093262
        2.2508339882,        0.1065961719,0.0248672515,-0.0184612237,-96.0494918823,-4.4021162987,-200.1733093262
        2.2534070015,        0.1065961719,0.0248672515,-0.0184612237,-96.0494918823,-4.4021162987,-200.1733093262
        2.2559819221,        0.0665571094,0.0995742828,-0.0140666924,-97.3159713745,-3.7917647362,-204.2016296387
        2.2586019039,        0.0665571094,0.0995742828,-0.0140666924,-97.3159713745,-3.7917647362,-204.2016296387
        2.2611708641,        0.0665571094,0.0995742828,-0.0140666924,-96.5225143433,-2.5405440331,-207.6653747559
        2.2637488842,        0.0665571094,0.0995742828,-0.0140666924,-96.5225143433,-2.5405440331,-207.6653747559
        2.2663168907,        0.0235883594,0.1684219390,-0.0077190362,-93.9437789917,-1.2740645409,-210.7323913574
        2.2689409256,        0.0235883594,0.1684219390,-0.0077190362,-93.9437789917,-1.2740645409,-210.7323913574
        2.2715060711,        0.0235883594,0.1684219390,-0.0077190362,-90.7546920776,-0.0533614159,-213.4331970215
        2.2740750313,        0.0235883594,0.1684219390,0.0137653388,-90.7546920776,-0.0533614159,-213.4331970215
        2.2766458988,       -0.0115678906,0.1869766265,0.0137653388,-88.0081100464,0.3738846779,-215.8898620605
        2.2792899609,       -0.0115678906,0.1869766265,0.0137653388,-88.0081100464,0.3738846779,-215.8898620605
        2.2818629742,       -0.0115678906,0.1869766265,0.0137653388,-84.5138473511,1.1826004982,-218.1023864746
        2.2844290733,       -0.0115678906,0.1972305328,0.0289020576,-84.5138473511,1.1826004982,-218.1023864746
        2.2869989872,       -0.0433061719,0.1972305328,0.0289020576,-82.5454635620,2.3270096779,-219.3078308105
        2.2897858620,       -0.0433061719,0.1972305328,0.0289020576,-82.5454635620,2.3270096779,-219.3078308105
        2.2924950123,       -0.0433061719,0.1972305328,0.0289020576,-78.6392135620,2.9526200294,-220.9557800293
        2.2952039242,       -0.0701616406,0.2040664703,0.0494098701,-81.5231246948,2.9526200294,-220.9557800293
        2.2980289459,       -0.0701616406,0.2040664703,0.0494098701,-80.6533737183,3.4103837013,-222.4511413574
        2.3007390499,       -0.0701616406,0.2040664703,0.0494098701,-80.6533737183,3.4103837013,-222.4511413574
        2.3034410477,       -0.0701616406,0.2040664703,0.0494098701,-79.8446578979,3.9139237404,-223.7328796387
        2.3061459064,       -0.0716264844,0.2245742828,0.0440387763,-79.8446578979,3.9139237404,-223.7328796387
        2.3088619709,       -0.0716264844,0.2245742828,0.0440387763,-78.1204147339,4.0512528419,-225.1977233887
        2.3115739822,       -0.0716264844,0.2245742828,0.0440387763,-78.1204147339,4.0512528419,-225.1977233887
        2.3142838478,       -0.0716264844,0.2245742828,0.0611286201,-78.1204147339,4.0817704201,-226.0674743652
        2.3169889450,       -0.0760210156,0.2314102203,0.0611286201,-76.4419479370,4.0817704201,-226.0674743652
        2.3197090626,       -0.0760210156,0.2314102203,0.0611286201,-74.8855514526,3.5782303810,-226.7083435059
        2.3223688602,       -0.0760210156,0.2314102203,0.0611286201,-74.8855514526,3.5782303810,-226.7083435059
        2.3249549866,       -0.0760210156,0.2221328765,0.0655231476,-74.8855514526,2.6932206154,-227.5628356934
        2.3276660442,       -0.0843217969,0.2221328765,0.0655231476,-73.6190719604,2.6932206154,-227.5628356934
        2.3303389549,       -0.0843217969,0.2221328765,0.0655231476,-73.6190719604,1.8234696388,-228.6156921387
        2.3335759640,       -0.0843217969,0.2221328765,0.0655231476,-72.2762985229,1.8234696388,-228.6156921387
        2.3361549377,       -0.1048296094,0.2055313140,0.0757770538,-70.7504196167,0.9842362404,-229.3481140137
        2.3388068676,       -0.1048296094,0.2055313140,0.0757770538,-70.7504196167,0.9842362404,-229.3481140137
        2.3413770199,       -0.1048296094,0.2055313140,0.0757770538,-70.7504196167,0.1297440529,-230.2331237793
        2.3439400196,       -0.1048296094,0.2055313140,0.0757770538,-70.0942916870,0.1297440529,-230.2331237793
        2.3465168476,       -0.1214311719,0.1689102203,0.0757770538,-70.0942916870,-3.7765059471,-230.7671813965
        2.3491420746,       -0.1214311719,0.1689102203,0.0757770538,-70.5673141479,-1.3656172752,-230.7671813965
        2.3517110348,       -0.1214311719,0.1689102203,0.0757770538,-70.5673141479,-1.3656172752,-230.5382995605
        2.3542900085,       -0.1214311719,0.1689102203,0.0757770538,-72.7035446167,-2.3116621971,-230.5382995605
        2.3568639755,       -0.1443803906,0.1484024078,0.0855426788,-72.7035446167,-2.3116621971,-230.5382995605
        2.3594460487,       -0.1443803906,0.1484024078,0.0855426788,-75.4959030151,-3.1814131737,-231.1028747559
        2.3621299267,       -0.1443803906,0.1484024078,0.0855426788,-75.4959030151,-3.1814131737,-231.1028747559
        2.3647089005,       -0.1443803906,0.1484024078,0.0855426788,-78.0441207886,-4.3563399315,-231.6064147949
        2.3672859669,       -0.1448686719,0.1415664703,0.0865192413,-78.0441207886,-4.3563399315,-231.6064147949
        2.3699049950,       -0.1448686719,0.1415664703,0.0865192413,-80.3176803589,-6.0348067284,-231.4690856934
        2.3724808693,       -0.1448686719,0.1415664703,0.0865192413,-80.3176803589,-6.0348067284,-231.4690856934
        2.3750638962,       -0.1448686719,0.1415664703,0.0689411163,-82.0724411011,-7.2097334862,-231.6064147949
        2.3776750565,       -0.1453569531,0.1288711578,0.0689411163,-82.0724411011,-7.2097334862,-231.6064147949
        2.3802659512,       -0.1453569531,0.1288711578,0.0689411163,-84.3307418823,-8.1862964630,-231.5148620605
        2.3828449249,       -0.1453569531,0.1288711578,0.0689411163,-84.3307418823,-8.1862964630,-231.5148620605
        2.3854229450,       -0.1453569531,0.1347305328,0.0762653351,-86.1160202026,-9.0407886505,-232.3235778809
        2.3881678581,       -0.1702592969,0.1347305328,0.0762653351,-86.1160202026,-9.0407886505,-232.3235778809
        2.3908829689,       -0.1702592969,0.1347305328,0.0762653351,-86.3143844604,-9.5290699005,-232.9797058105
        2.3935980797,       -0.1702592969,0.1347305328,0.0762653351,-86.3143844604,-9.5290699005,-232.9797058105
        2.3963148594,       -0.1976030469,0.1244766265,0.0577106513,-86.6043014526,-10.4903736115,-233.4832458496
        2.3990359306,       -0.1976030469,0.1244766265,0.0577106513,-86.6043014526,-10.4903736115,-233.4832458496
        2.4017529488,       -0.1976030469,0.1244766265,0.0577106513,-87.7944869995,-11.2380542755,-233.2085876465
        2.4044609070,       -0.1976030469,0.1244766265,0.0577106513,-87.7944869995,-11.2380542755,-233.2085876465
        2.4071669579,       -0.2215288281,0.1005508453,0.0435504951,-87.9928512573,-11.6958179474,-233.2848815918
        2.4098968506,       -0.2215288281,0.1005508453,0.0435504951,-87.9928512573,-11.6958179474,-233.2848815918
        2.4126038551,       -0.2215288281,0.1005508453,0.0435504951,-89.1525192261,-11.4821949005,-232.8423767090
        2.4153199196,       -0.2215288281,0.1005508453,0.0313434638,-89.1525192261,-11.4821949005,-232.8423767090
        2.4180400372,       -0.2395952344,0.0785781890,0.0313434638,-90.2816696167,-10.8413257599,-232.8728942871
        2.4207479954,       -0.2395952344,0.0785781890,0.0313434638,-90.2816696167,-10.8413257599,-232.8728942871
        2.4235739708,       -0.2395952344,0.0785781890,0.0313434638,-90.6783981323,-10.4598560333,-232.9797058105
        2.4262678623,       -0.2703569531,0.0566055328,0.0127887763,-90.6783981323,-10.4598560333,-232.9797058105
        2.4289970398,       -0.2703569531,0.0566055328,0.0127887763,-92.5247116089,-9.6969165802,-231.9268493652
        2.4315760136,       -0.2703569531,0.0566055328,0.0127887763,-92.5247116089,-9.6969165802,-231.9268493652
        2.4344959259,       -0.2703569531,0.0566055328,0.0127887763,-94.9356002808,-9.4069995880,-231.2707214355
        2.4370729923,       -0.2903764844,0.0429336578,0.0113239326,-94.9356002808,-9.4069995880,-231.2707214355
        2.4397358894,       -0.2903764844,0.0429336578,0.0113239326,-97.6058883667,-7.9421553612,-230.2941589355
        2.4423148632,       -0.2903764844,0.0429336578,0.0113239326,-97.6058883667,-7.9421553612,-230.2941589355
        2.4448928833,       -0.2903764844,0.0429336578,0.0113239326,-101.5121383667,-6.1111006737,-229.0734558105
        2.4474589825,       -0.3074663281,0.0478164703,-0.0013713799,-100.0320358276,-6.1111006737,-229.0734558105
        2.4500830173,       -0.3074663281,0.0478164703,-0.0013713799,-100.0320358276,-2.2048506737,-227.9290466309
        2.4526529312,       -0.3074663281,0.0478164703,-0.0013713799,-101.2527389526,-3.9138350487,-227.9290466309
        2.4552259445,       -0.3074663281,0.0478164703,-0.0013713799,-101.2527389526,-3.9138350487,-225.3045349121
        2.4578468800,       -0.3133257031,0.0712539703,-0.0072307549,-101.8630905151,-2.3116621971,-225.3045349121
        2.4604220390,       -0.3133257031,0.0712539703,-0.0072307549,-101.8630905151,-2.3116621971,-221.3982849121
        2.4629950523,       -0.3133257031,0.0712539703,-0.0072307549,-104.5486373901,-1.7928633690,-221.5661315918
        2.4655649662,       -0.3133257031,0.0712539703,-0.0072307549,-104.5486373901,-1.7928633690,-221.5661315918
        2.4681818485,       -0.2893999219,0.1156875640,-0.0306682549,-102.9617233276,-0.3127608299,-217.4004821777
        2.4707539082,       -0.2893999219,0.1156875640,-0.0306682549,-102.9617233276,-0.3127608299,-217.4004821777
        2.4733269215,       -0.2893999219,0.1156875640,-0.0306682549,-98.0636520386,4.2648758888,-212.5939636230
        2.4758980274,       -0.2893999219,0.1156875640,-0.0687541962,-98.0636520386,4.2648758888,-212.5939636230
        2.4785330296,       -0.2991655469,0.1425430328,-0.0687541962,-94.3252487183,7.8201737404,-205.6206970215
        2.4811148643,       -0.2991655469,0.1425430328,-0.0687541962,-94.3252487183,7.8201737404,-205.6206970215
        2.4836859703,       -0.2991655469,0.1425430328,-0.0687541962,-94.0658493042,9.3613109589,-197.7624206543
        2.4862639904,       -0.2991655469,0.1425430328,-0.0399455987,-94.0658493042,9.3613109589,-197.7624206543
        2.4890089035,       -0.2649858594,0.1293594390,-0.0399455987,-93.6691207886,10.2920970917,-190.4382019043
        2.4918289185,       -0.2649858594,0.1293594390,-0.0399455987,-93.6691207886,10.2920970917,-190.4382019043
        2.4945380688,       -0.2649858594,0.1293594390,-0.0399455987,-92.9366989136,10.6430492401,-183.2360534668
        2.4972419739,       -0.2054155469,0.2265274078,0.0225544013,-92.9366989136,10.6430492401,-183.2360534668
        2.4999520779,       -0.2054155469,0.2265274078,0.0225544013,-89.5950241089,10.4599437714,-175.4540710449
        2.5026528835,       -0.2054155469,0.2265274078,0.0225544013,-89.5950241089,10.4599437714,-175.4540710449
        2.5053620338,       -0.2054155469,0.2265274078,0.0225544013,-86.7721481323,8.8272533417,-167.0312194824
        2.5080819130,       -0.0755327344,0.3471328616,0.0914020538,-86.7721481323,8.8272533417,-167.0312194824
        2.5107829571,       -0.0755327344,0.3471328616,0.0914020538,-83.2015914917,5.8670487404,-159.1576843262
        2.5134830475,       -0.0755327344,0.3471328616,0.0914020538,-83.2015914917,5.8670487404,-159.1576843262
        2.5161919594,       -0.0755327344,0.3471328616,0.1827106476,-76.1367721558,1.4572587013,-151.4825134277
        2.5188510418,        0.0304242969,0.4701797366,0.1827106476,-76.1367721558,1.4572587013,-151.4825134277
        2.5214269161,        0.0304242969,0.4701797366,0.1827106476,-63.0447311401,-3.2424483299,-142.4035339355
        2.5240058899,        0.0304242969,0.4701797366,0.1827106476,-63.0447311401,-3.2424483299,-142.4035339355
        2.5265789032,        0.0304242969,0.5951797366,0.1753864288,-43.5134811401,-8.0642261505,-132.1343688965
        2.5292580128,        0.0978071094,0.6484023929,0.1753864288,-45.1614303589,-8.0642261505,-132.1343688965
        2.5319609642,        0.0978071094,0.6484023929,0.1753864288,-25.6301784515,-12.3824634552,-121.0564956665
        2.5346679688,        0.0978071094,0.6484023929,0.1753864288,-25.5233669281,-12.3824634552,-121.0564956665
        2.5373718739,        0.1339399219,0.7279922366,0.0948200226,-5.9921169281,-15.9682788849,-107.9339370728
        2.5400879383,        0.1339399219,0.7279922366,0.0948200226,-6.6177272797,-15.9682788849,-107.9339370728
        2.5427958965,        0.1339399219,0.7279922366,0.0948200226,12.4862766266,-18.5012378693,-94.1857681274
        2.5455999374,        0.1339399219,0.7279922366,0.0948200226,12.4862766266,-18.5012378693,-94.1857681274
        2.5484058857,        0.1095258594,0.6757461429,0.0220661201,30.2322483063,-19.1268482208,-80.2850112915
        2.5511338711,        0.1095258594,0.6757461429,0.0220661201,30.2322483063,-19.1268482208,-80.2850112915
        2.5538408756,        0.1095258594,0.6757461429,0.0220661201,43.1259231567,-17.7077808380,-66.9946060181
        2.5566630363,        0.1095258594,0.6757461429,-0.0233440362,43.1259231567,-17.7077808380,-66.9946060181
        2.5594198704,        0.0231000781,0.5776016116,-0.0233440362,51.7318801880,-14.8696460724,-52.5903091431
        2.5621259212,        0.0231000781,0.5776016116,-0.0233440362,51.7318801880,-14.8696460724,-52.5903091431
        2.5648329258,        0.0231000781,0.5776016116,-0.0233440362,55.3939895630,-11.3906421661,-38.5064468384
        2.5675480366,        0.0045453906,0.4980117679,-0.0799846649,55.3939895630,-11.3906421661,-38.5064468384
        2.5701279640,        0.0045453906,0.4980117679,-0.0799846649,55.3939895630,-6.3705000877,-25.7348384857
        2.5727028847,        0.0045453906,0.4980117679,-0.0799846649,55.5465774536,-6.3705000877,-25.7348384857
        2.5752758980,        0.0045453906,0.4980117679,-0.0799846649,55.5465774536,-2.4642500877,-13.0090084076
        2.5778660774,        0.0030805469,0.4325820804,-0.1107463837,52.7237014771,-1.2740645409,-13.0090084076
        2.5804450512,        0.0030805469,0.4325820804,-0.1107463837,52.7237014771,-1.2740645409,0.4034671783
        2.5830159187,        0.0030805469,0.4325820804,-0.1107463837,47.6883010864,3.8528885841,0.4034671783
        2.5855920315,        0.0030805469,0.4325820804,-0.1107463837,47.6883010864,3.8528885841,16.0284671783
        2.5882148743,        0.0152875781,0.4052383304,-0.1263713837,40.8981399536,7.6218094826,14.3194828033
        2.5907900333,        0.0152875781,0.4052383304,-0.1263713837,40.8981399536,7.6218094826,14.3194828033
        2.5933659077,        0.0152875781,0.4052383304,-0.1263713837,32.3227005005,10.6888256073,27.4725589752
        2.5959448814,        0.0152875781,0.4052383304,-0.1263713837,32.3227005005,10.6888256073,27.4725589752
        2.5986859798,        0.0133344531,0.3593398929,-0.1029338837,22.4655246735,12.6114330292,40.1068344116
        2.6012599468,        0.0133344531,0.3593398929,-0.1029338837,22.4655246735,12.6114330292,40.1068344116
        2.6038339138,        0.0133344531,0.3593398929,-0.1029338837,13.2492160797,13.5422191620,52.7258529663
        2.6064119339,        0.0133344531,0.3593398929,-0.1029338837,13.2492160797,13.5422191620,52.7258529663
        2.6091558933,        0.0079633594,0.3188125491,-0.0643596649,4.2465305328,14.1373119354,64.4140853882
        2.6118569374,        0.0079633594,0.3188125491,-0.0643596649,4.2465305328,14.1373119354,64.4140853882
        2.6145570278,        0.0079633594,0.3188125491,-0.0643596649,-3.8558864594,13.6337718964,75.3393783569
        2.6172568798,        0.0079633594,0.3188125491,0.0635700226,-3.8558864594,13.6337718964,75.3393783569
        2.6199948788,        0.0050336719,0.1415664703,0.0635700226,-11.3937282562,10.5514965057,79.1540756226
        2.6225659847,        0.0050336719,0.1415664703,0.0635700226,-11.3937282562,10.5514965057,79.1540756226
        2.6251380444,        0.0050336719,0.1415664703,0.0635700226,-20.2285671234,4.0665116310,74.7442855835
        2.6277909279,        0.0050336719,-0.2964218259,0.1831989288,-20.2285671234,4.0665116310,74.7442855835
        2.6304869652,       -0.0477007031,-0.2964218259,0.1831989288,-32.6644821167,5.2566971779,76.1786117554
        2.6331889629,       -0.0477007031,-0.2964218259,0.1831989288,-32.6644821167,5.2566971779,76.1786117554
        2.6358990669,       -0.0477007031,-0.2964218259,0.1831989288,-31.5811061859,6.4621415138,73.1878890991
        2.6386110783,       -0.0960405469,-1.0390975475,0.0274372138,-31.5811061859,6.4621415138,73.1878890991
        2.6413118839,       -0.0960405469,-1.0390975475,0.0274372138,-38.3407516479,9.0256175995,61.6217269897
        2.6440150738,       -0.0960405469,-1.0390975475,0.0274372138,-38.3407516479,9.0256175995,61.6217269897
        2.6467258930,       -0.0960405469,-1.0390975475,0.0274372138,-47.8012008667,15.7394847870,52.5732650757
        2.6494479179,       -0.2664507031,-1.4136092663,-0.3856487274,-47.8012008667,15.7394847870,52.5732650757
        2.6521458626,       -0.2664507031,-1.4136092663,-0.3856487274,-60.8474655151,18.9285717010,51.1999740601
        2.6548550129,       -0.2664507031,-1.4136092663,-0.3856487274,-60.8474655151,18.9285717010,51.1999740601
        2.6575739384,       -0.2664507031,-1.4136092663,-0.3661174774,-86.9399948120,17.7383861542,58.6004867554
        2.6601510048,       -0.1868608594,-0.7314804196,-0.3661174774,-86.9399948120,17.7383861542,58.6004867554
        2.6627240181,       -0.1868608594,-0.7314804196,-0.3661174774,-117.8848190308,15.6631908417,73.3404769897
        2.6655209064,       -0.1868608594,-0.7314804196,-0.3661174774,-117.8848190308,15.6631908417,73.3404769897
        2.6684439182,       -0.1932085156,-0.0737655610,-0.1918010712,-133.8912811279,15.6174144745,87.0428695679
        2.6711509228,       -0.1932085156,-0.0737655610,-0.1918010712,-133.8912811279,15.6174144745,87.0428695679
        2.6738600731,       -0.1932085156,-0.0737655610,-0.1918010712,-135.9054412842,15.2054271698,95.4504623413
        2.6765639782,       -0.1932085156,-0.0737655610,-0.1918010712,-135.9054412842,15.2054271698,95.4504623413
        2.6792888641,       -0.2161577344,0.2152969390,0.0015583076,-136.5005340576,11.5280590057,98.0291976929
        2.6819989681,       -0.2161577344,0.2152969390,0.0015583076,-136.5005340576,11.5280590057,98.0291976929
        2.6848170757,       -0.2161577344,0.2152969390,0.0015583076,-132.0449676514,3.3035721779,98.1665267944
        2.6875329018,       -0.2161577344,0.2152969390,0.0015583076,-132.0449676514,3.3035721779,98.1665267944
        2.6902480125,       -0.1712358594,0.1596328765,0.0249958076,-116.5878219604,-3.7002120018,97.3120346069
        2.6929609776,       -0.1712358594,0.1596328765,0.0249958076,-116.5878219604,-3.7002120018,97.3120346069
        2.6956648827,       -0.1712358594,0.1596328765,0.0249958076,-93.2418746948,-6.1568770409,97.0984115601
        2.6983819008,       -0.1712358594,0.1537735015,-0.2030315399,-93.2418746948,-6.1568770409,97.0984115601
        2.7009580135,       -0.1448686719,0.1537735015,-0.2030315399,-71.2081832886,-6.3705000877,94.9926986694
        2.7035329342,       -0.1448686719,0.1537735015,-0.2030315399,-71.2081832886,-6.3705000877,94.9926986694
        2.7061128616,       -0.1448686719,0.1537735015,-0.2030315399,-51.6769332886,-7.4386153221,90.6744613647
        2.7086930275,       -0.0198686719,0.1127578765,-0.2298870087,-52.5924606323,-7.4386153221,90.6744613647
        2.7112710476,       -0.0525835156,0.1127578765,-0.2298870087,-52.5924606323,-11.3448657990,84.3268051147
        2.7138490677,       -0.0525835156,0.1127578765,-0.2298870087,-39.3478317261,-10.3683032990,84.3268051147
        2.7164289951,       -0.0525835156,0.1127578765,-0.2298870087,-39.3478317261,-10.3683032990,77.4756088257
        2.7191500664,        0.0265180469,-0.0220077485,-0.0394573174,-30.9249782562,-14.3355884552,77.4756088257
        2.7217309475,        0.0265180469,-0.0220077485,-0.0394573174,-30.9249782562,-14.3355884552,73.5693588257
        2.7243039608,        0.0265180469,-0.0220077485,-0.0394573174,-26.0574245453,-19.4930591583,72.0434799194
        2.7268838882,        0.0265180469,-0.0220077485,-0.0394573174,-26.0574245453,-19.4930591583,68.1372299194
        2.7296319008,        0.0274946094,-0.0644882172,0.0933551788,-23.5092067719,-22.4837818146,68.3813705444
        2.7322080135,        0.0274946094,-0.0644882172,0.0933551788,-23.5092067719,-22.4837818146,68.3813705444
        2.7347810268,        0.0274946094,-0.0644882172,0.0933551788,-23.7533473969,-22.0260181427,64.6429672241
        2.7373619080,        0.0274946094,-0.0644882172,0.0933551788,-23.7533473969,-22.0260181427,64.6429672241
        2.7400889397,       -0.0071733594,-0.0464218110,0.1123981476,-26.8966579437,-21.2325611115,61.1944808960
        2.7426588535,       -0.0071733594,-0.0464218110,0.1123981476,-26.8966579437,-21.2325611115,61.1944808960
        2.7452318668,       -0.0071733594,-0.0464218110,0.1123981476,-31.2301540375,-20.3475513458,58.6004867554
        2.7479610443,       -0.0071733594,-0.0464218110,0.1123981476,-31.2301540375,-20.3475513458,58.6004867554
        2.7505359650,       -0.0281694531,-0.0039413422,0.1392536163,-34.2971725464,-19.7219409943,57.7154769897
        2.7530989647,       -0.0281694531,-0.0039413422,0.1392536163,-34.2971725464,-19.7219409943,57.7154769897
        2.7556688786,       -0.0281694531,-0.0039413422,0.1392536163,-35.2889938354,-18.5622730255,56.9372787476
        2.7582459450,       -0.0281694531,-0.0039413422,0.1392536163,-35.2889938354,-18.5622730255,56.9372787476
        2.7608208656,       -0.0359819531,0.0839492828,0.1622028351,-33.2290573120,-17.1432056427,55.9912338257
        2.7633919716,       -0.0359819531,0.0839492828,0.1622028351,-33.2290573120,-17.1432056427,55.9912338257
        2.7659649849,       -0.0359819531,0.0839492828,0.1622028351,-29.3228054047,-14.9917163849,53.6108627319
        2.7686300278,       -0.0359819531,0.0839492828,0.1607379913,-29.4448757172,-14.9917163849,53.6108627319
        2.7712049484,       -0.0120561719,0.0927383453,0.1607379913,-29.4448757172,-14.9917163849,49.9945297241
        2.7737779617,       -0.0120561719,0.0927383453,0.1607379913,-24.4705104828,-14.1219654083,49.9945297241
        2.7763540745,       -0.0120561719,0.0927383453,0.1607379913,-24.4705104828,-14.1219654083,45.6305160522
        2.7790479660,       -0.0120561719,0.1147110015,0.0982379913,-20.2438259125,-13.7252368927,45.6305160522
        2.7817509174,        0.0128461719,0.1147110015,0.0982379913,-20.2438259125,-13.7252368927,41.2054672241
        2.7846760750,        0.0128461719,0.1147110015,0.0982379913,-15.1016139984,-11.8941822052,41.2054672241
        2.7878038883,        0.0128461719,0.1147110015,0.0982379913,-11.1953639984,-9.0865650177,34.6747055054
        2.7905168533,        0.0377485156,0.0302383453,-0.0140666924,-8.3572292328,-9.0865650177,34.6747055054
        2.7932219505,        0.0377485156,0.0302383453,-0.0140666924,-0.5447292328,-7.6064620018,28.4033451080
        2.7959358692,        0.0377485156,0.0302383453,-0.0140666924,-1.3229274750,-7.6064620018,28.4033451080
        2.7986569405,        0.0377485156,0.0302383453,-0.1390666962,2.5833225250,-7.5301680565,23.3221683502
        2.8013648987,        0.0626508594,0.0165664703,-0.0555705987,3.5293674469,-7.5301680565,23.3221683502
        2.8040819168,        0.0626508594,0.0165664703,-0.0555705987,7.4356174469,-9.1476001740,18.4851322174
        2.8067929745,        0.0626508594,0.0165664703,-0.0555705987,5.9707736969,-9.1476001740,18.4851322174
        2.8094270229,        0.0626508594,-0.0039413422,-0.0335979424,5.9707736969,-10.5056324005,13.4192142487
        2.8121140003,        0.0528852344,-0.0039413422,-0.0335979424,9.7549533844,-10.5056324005,13.4192142487
        2.8146948814,        0.0528852344,-0.0039413422,-0.0335979424,9.7549533844,-10.5056324005,8.3075199127
        2.8172788620,        0.0528852344,-0.0039413422,-0.0335979424,13.7832736969,-10.4445972443,8.3075199127
        2.8199079037,        0.0255414844,-0.0088241547,-0.0228557549,13.7832736969,-10.4445972443,3.7909183502
        2.8224868774,        0.0255414844,-0.0088241547,-0.0228557549,17.0028781891,-10.4751148224,3.7909183502
        2.8250670433,        0.0255414844,-0.0088241547,-0.0228557549,17.0028781891,-10.4751148224,-0.1153316498
        2.8276460171,        0.0255414844,-0.0088241547,-0.0228557549,19.1696262360,-10.6277027130,0.1745853424
        2.8302209377,        0.0216352344,-0.0586288422,-0.0301799737,19.1696262360,-10.6277027130,0.1745853424
        2.8327949047,        0.0216352344,-0.0586288422,-0.0301799737,19.5816135406,-11.1312427521,-2.5262203217
        2.8364849091,        0.0216352344,-0.0586288422,-0.0301799737,19.5816135406,-11.1312427521,-4.4030513763
        2.8390629292,        0.0216352344,-0.0586288422,-0.0301799737,17.3080539703,-11.5584888458,-4.4030513763
        2.8416378498,        0.0274946094,-0.1050155610,-0.0345745049,17.3080539703,-11.5584888458,-5.5322017670
        2.8442089558,        0.0274946094,-0.1050155610,-0.0345745049,13.8748264313,-12.6876392365,-5.5322017670
        2.8467779160,        0.0274946094,-0.1050155610,-0.0345745049,13.8748264313,-12.6876392365,-5.5322017670
        2.8493790627,        0.0274946094,-0.1050155610,-0.0218791924,8.7173557281,-13.6794605255,-5.6695308685
        2.8519530296,        0.0357953906,-0.1284530610,-0.0218791924,8.7173557281,-13.6794605255,-5.6695308685
