time_stamp before, time_stamp after, Acceleration x, Acceleration y, Acceleration z, Gyro x, Gyro y, Gyro z
1488916845.0303559303,1488916845.0376229286,        0.6059570312,        0.0756835938,       -0.1723632812,       -1.1291503906,      -16.2811279297,       -0.4577636719
1488916845.0379340649,1488916845.0414869785,        0.6059570312,        0.0756835938,       -0.1723632812,       -0.6103515625,      -16.1132812500,       -0.4577636719
1488916845.0417969227,1488916845.0445520878,        0.6772460938,        0.0971679688,       -0.1586914062,        0.0152587891,      -15.8386230469,       -0.3967285156
1488916845.0448451042,1488916845.0472679138,        0.6772460938,        0.0971679688,       -0.1586914062,        0.0152587891,      -15.8386230469,       -0.3967285156
1488916845.0475530624,1488916845.0499629974,        0.6772460938,        0.0971679688,       -0.1586914062,       -0.4119873047,      -13.9312744141,        0.3509521484
1488916845.0502469540,1488916845.0526568890,        0.6772460938,        0.0971679688,       -0.1586914062,       -0.4119873047,      -13.9312744141,        0.3509521484
1488916845.0529398918,1488916845.0553739071,        0.6269531250,        0.1127929688,       -0.1503906250,       -2.1667480469,      -12.8326416016,        0.9155273438
1488916845.0556581020,1488916845.0580680370,        0.6269531250,        0.1127929688,       -0.1503906250,       -2.1667480469,      -12.8326416016,        0.9155273438
1488916845.0583529472,1488916845.0607678890,        0.6269531250,        0.1127929688,       -0.1503906250,       -3.4942626953,      -13.3514404297,        1.8463134766
1488916845.0610520840,1488916845.0634739399,        0.6269531250,        0.1127929688,       -0.1484375000,       -3.4942626953,      -13.3514404297,        1.8463134766
1488916845.0637500286,1488916845.0660319328,        0.6308593750,        0.0961914062,       -0.1484375000,       -5.1422119141,      -13.9312744141,        2.4871826172
1488916845.0663089752,1488916845.0685958862,        0.6308593750,        0.0961914062,       -0.1484375000,       -5.1422119141,      -13.9312744141,        2.4871826172
1488916845.0688710213,1488916845.0711519718,        0.6308593750,        0.0961914062,       -0.1484375000,       -6.2866210938,      -14.3432617188,        2.6245117188
1488916845.0714259148,1488916845.0738010406,        0.6308593750,        0.0961914062,       -0.1386718750,       -6.2866210938,      -14.3432617188,        2.6245117188
1488916845.0740768909,1488916845.0763680935,        0.6235351562,        0.0966796875,       -0.1386718750,       -6.3171386719,      -14.6636962891,        2.6702880859
1488916845.0766420364,1488916845.0789198875,        0.6235351562,        0.0966796875,       -0.1386718750,       -6.3171386719,      -14.6636962891,        2.6702880859
1488916845.0791940689,1488916845.0814800262,        0.6235351562,        0.0966796875,       -0.1386718750,       -6.9885253906,      -14.8925781250,        2.2888183594
1488916845.0817539692,1488916845.0841259956,        0.6235351562,        0.0971679688,       -0.1435546875,       -6.9885253906,      -14.8925781250,        2.2888183594
1488916845.0844049454,1488916845.0866880417,        0.6215820312,        0.0971679688,       -0.1435546875,       -6.9885253906,      -14.8010253906,        1.8615722656
1488916845.0869669914,1488916845.0892550945,        0.6215820312,        0.0971679688,       -0.1435546875,       -7.5531005859,      -14.8010253906,        1.8615722656
1488916845.0895318985,1488916845.0920140743,        0.6215820312,        0.0971679688,       -0.1435546875,       -7.5531005859,      -14.8010253906,        1.2969970703
1488916845.0922949314,1488916845.0947649479,        0.6303710938,        0.0864257812,       -0.1640625000,       -7.4615478516,      -14.5568847656,        1.2969970703
1488916845.0950438976,1488916845.0973629951,        0.6303710938,        0.0864257812,       -0.1640625000,       -7.4615478516,      -14.1143798828,       -0.1831054688
1488916845.0976409912,1488916845.1000339985,        0.6303710938,        0.0864257812,       -0.1640625000,       -8.3007812500,      -14.1143798828,       -0.1831054688
1488916845.1004738808,1488916845.1027669907,        0.6303710938,        0.0864257812,       -0.1640625000,       -8.3007812500,      -14.7857666016,       -1.0833740234
1488916845.1040959358,1488916845.1063830853,        0.5878906250,        0.0825195312,       -0.1694335938,       -8.2855224609,      -14.7857666016,       -1.0833740234
1488916845.1066660881,1488916845.1089570522,        0.5878906250,        0.0825195312,       -0.1694335938,       -8.2092285156,      -14.4653320312,       -1.2054443359
1488916845.1092360020,1488916845.1115229130,        0.5878906250,        0.0825195312,       -0.1694335938,       -8.2092285156,      -14.4653320312,       -1.2054443359
1488916845.1118021011,1488916845.1140940189,        0.5878906250,        0.0825195312,       -0.1669921875,       -7.3242187500,      -13.6260986328,       -0.5493164062
1488916845.1143729687,1488916845.1166551113,        0.6674804688,        0.0761718750,       -0.1669921875,       -7.3242187500,      -13.6260986328,       -0.5493164062
1488916845.1169331074,1488916845.1192200184,        0.6674804688,        0.0761718750,       -0.1669921875,       -7.3242187500,      -12.2070312500,       -0.4425048828
1488916845.1194989681,1488916845.1217849255,        0.6674804688,        0.0761718750,       -0.1669921875,       -6.7596435547,      -12.2070312500,       -0.4425048828
1488916845.1220641136,1488916845.1244380474,        0.6674804688,        0.0791015625,       -0.1772460938,       -6.7596435547,       -8.3007812500,       -0.5950927734
1488916845.1247150898,1488916845.1270039082,        0.6274414062,        0.0791015625,       -0.1772460938,       -6.3476562500,      -11.5814208984,       -0.5950927734
1488916845.1272850037,1488916845.1295750141,        0.6274414062,        0.0791015625,       -0.1772460938,       -6.3476562500,      -11.5814208984,       -1.1138916016
1488916845.1298520565,1488916845.1321411133,        0.6274414062,        0.0791015625,       -0.1772460938,       -5.8441162109,      -10.8032226562,       -1.1138916016
1488916845.1324191093,1488916845.1347119808,        0.6274414062,        0.0820312500,       -0.1782226562,       -5.8441162109,      -10.8032226562,       -1.1138916016
1488916845.1349918842,1488916845.1372780800,        0.6337890625,        0.0820312500,       -0.1782226562,       -5.8441162109,       -9.7351074219,       -1.6784667969
1488916845.1375520229,1488916845.1398398876,        0.6337890625,        0.0820312500,       -0.1782226562,       -5.8441162109,       -9.7351074219,       -1.6784667969
1488916845.1401140690,1488916845.1424000263,        0.6337890625,        0.0820312500,       -0.1782226562,       -6.2103271484,       -8.7738037109,       -1.7395019531
1488916845.1426749229,1488916845.1450150013,        0.6264648438,        0.0830078125,       -0.1718750000,       -6.2103271484,       -8.7738037109,       -1.7395019531
1488916845.1452889442,1488916845.1475710869,        0.6264648438,        0.0830078125,       -0.1718750000,       -5.8898925781,       -8.1329345703,       -2.5482177734
1488916845.1478450298,1488916845.1501278877,        0.6264648438,        0.0830078125,       -0.1718750000,       -5.8898925781,       -8.1329345703,       -2.5482177734
1488916845.1504020691,1488916845.1526899338,        0.6264648438,        0.0830078125,       -0.1718750000,       -6.0729980469,       -8.4533691406,       -3.2196044922
1488916845.1529641151,1488916845.1553499699,        0.6289062500,        0.0805664062,       -0.1752929688,       -6.0729980469,       -8.4533691406,       -3.2196044922
1488916845.1556270123,1488916845.1579101086,        0.6289062500,        0.0805664062,       -0.1752929688,       -6.3171386719,       -7.8277587891,       -3.2958984375
1488916845.1581840515,1488916845.1604669094,        0.6289062500,        0.0805664062,       -0.1752929688,       -6.3171386719,       -7.8277587891,       -3.2958984375
1488916845.1607410908,1488916845.1630260944,        0.6289062500,        0.0805664062,       -0.1752929688,       -6.6680908203,       -7.1868896484,       -3.7536621094
1488916845.1634089947,1488916845.1659889221,        0.6308593750,        0.0766601562,       -0.1748046875,       -6.6680908203,       -7.1868896484,       -3.7536621094
1488916845.1662690639,1488916845.1686871052,        0.6308593750,        0.0766601562,       -0.1748046875,       -6.8969726562,       -6.6986083984,       -4.3334960938
1488916845.1689670086,1488916845.1713840961,        0.6308593750,        0.0766601562,       -0.1748046875,       -6.8969726562,       -6.6986083984,       -4.3334960938
1488916845.1716649532,1488916845.1740620136,        0.6308593750,        0.0766601562,       -0.1748046875,       -8.0566406250,       -6.2561035156,       -4.6386718750
1488916845.1743369102,1488916845.1766281128,        0.6245117188,        0.0825195312,       -0.1679687500,       -8.0566406250,       -6.2561035156,       -4.6386718750
1488916845.1769011021,1488916845.1791949272,        0.6245117188,        0.0825195312,       -0.1679687500,       -8.0566406250,       -6.3018798828,       -5.2947998047
1488916845.1794679165,1488916845.1817579269,        0.6245117188,        0.0825195312,       -0.1679687500,       -8.6364746094,       -6.3018798828,       -5.2947998047
1488916845.1820309162,1488916845.1843740940,        0.6245117188,        0.0825195312,       -0.1616210938,       -8.6364746094,       -6.3018798828,       -5.5541992188
1488916845.1846539974,1488916845.1870698929,        0.6279296875,        0.0874023438,       -0.1616210938,       -9.0332031250,       -6.0424804688,       -5.5541992188
1488916845.1873528957,1488916845.1897640228,        0.6279296875,        0.0874023438,       -0.1616210938,       -9.0332031250,       -6.0424804688,       -5.8746337891
1488916845.1900460720,1488916845.1924610138,        0.6279296875,        0.0874023438,       -0.1616210938,       -9.4757080078,       -6.2866210938,       -5.8746337891
1488916845.1927421093,1488916845.1950869560,        0.6279296875,        0.0791015625,       -0.1635742188,       -9.4757080078,       -6.2866210938,       -6.4697265625
1488916845.1953620911,1488916845.1976530552,        0.6210937500,        0.0791015625,       -0.1635742188,       -9.9029541016,       -5.7525634766,       -6.4697265625
1488916845.1979289055,1488916845.2002251148,        0.6210937500,        0.0791015625,       -0.1635742188,       -9.9029541016,       -5.7525634766,       -6.9885253906
1488916845.2004990578,1488916845.2027850151,        0.6210937500,        0.0791015625,       -0.1635742188,      -10.1470947266,       -5.3405761719,       -6.9885253906
1488916845.2030630112,1488916845.2055149078,        0.6225585938,        0.0849609375,       -0.1679687500,      -10.1470947266,       -5.3405761719,       -6.9885253906
1488916845.2058010101,1488916845.2082159519,        0.6225585938,        0.0849609375,       -0.1679687500,       -9.7808837891,       -5.5084228516,       -7.6141357422
1488916845.2084989548,1488916845.2109100819,        0.6225585938,        0.0849609375,       -0.1679687500,       -9.7808837891,       -5.5084228516,       -7.6141357422
1488916845.2111909389,1488916845.2136540413,        0.6225585938,        0.0849609375,       -0.1679687500,      -10.0402832031,       -5.0354003906,       -8.4533691406
1488916845.2139410973,1488916845.2163519859,        0.6230468750,        0.0898437500,       -0.1743164062,      -10.0402832031,       -5.0354003906,       -8.4533691406
1488916845.2166368961,1488916845.2190489769,        0.6230468750,        0.0898437500,       -0.1743164062,      -10.6201171875,       -4.6234130859,       -9.1857910156
1488916845.2193360329,1488916845.2218389511,        0.6230468750,        0.0898437500,       -0.1743164062,      -10.6201171875,       -4.6234130859,       -9.1857910156
1488916845.2221260071,1488916845.2245020866,        0.6230468750,        0.0898437500,       -0.1743164062,      -11.1846923828,       -4.6234130859,       -9.3841552734
1488916845.2247800827,1488916845.2270700932,        0.6166992188,        0.0913085938,       -0.1679687500,      -11.1846923828,       -4.6234130859,       -9.3841552734
1488916845.2274599075,1488916845.2297561169,        0.6166992188,        0.0913085938,       -0.1679687500,      -11.4746093750,       -4.0740966797,       -9.5520019531
1488916845.2300350666,1488916845.2323238850,        0.6166992188,        0.0913085938,       -0.1679687500,      -11.4746093750,       -4.0740966797,       -9.5520019531
1488916845.2326040268,1488916845.2349829674,        0.6166992188,        0.0913085938,       -0.1704101562,      -12.3901367188,       -4.1198730469,       -9.5977783203
1488916845.2352690697,1488916845.2376821041,        0.6171875000,        0.0996093750,       -0.1704101562,      -12.3901367188,       -4.1198730469,       -9.5977783203
1488916845.2379701138,1488916845.2403750420,        0.6171875000,        0.0996093750,       -0.1704101562,      -12.6647949219,       -4.2572021484,       -9.8876953125
1488916845.2406609058,1488916845.2430779934,        0.6171875000,        0.0996093750,       -0.1704101562,      -12.6647949219,       -4.2572021484,       -9.8876953125
1488916845.2433640957,1488916845.2457818985,        0.6171875000,        0.0957031250,       -0.1748046875,      -13.3361816406,       -4.0130615234,      -10.1165771484
1488916845.2460711002,1488916845.2484889030,        0.6196289062,        0.0957031250,       -0.1748046875,      -13.3361816406,       -4.0130615234,      -10.1165771484
1488916845.2487800121,1488916845.2512021065,        0.6196289062,        0.0957031250,       -0.1748046875,      -14.5263671875,       -3.6773681641,      -10.7574462891
1488916845.2514920235,1488916845.2538950443,        0.6196289062,        0.0957031250,       -0.1748046875,      -14.5263671875,       -3.6773681641,      -10.7574462891
1488916845.2541770935,1488916845.2564690113,        0.6196289062,        0.0908203125,       -0.1660156250,      -14.7552490234,       -3.6163330078,      -10.7269287109
1488916845.2567501068,1488916845.2590420246,        0.6196289062,        0.0908203125,       -0.1660156250,      -14.7552490234,       -3.6163330078,      -10.7269287109
1488916845.2593219280,1488916845.2616100311,        0.6196289062,        0.0908203125,       -0.1660156250,      -15.2740478516,       -3.6315917969,      -11.3067626953
1488916845.2618920803,1488916845.2643370628,        0.6196289062,        0.0908203125,       -0.1660156250,      -15.2740478516,       -3.6315917969,      -11.3067626953
1488916845.2646191120,1488916845.2669041157,        0.6259765625,        0.0908203125,       -0.1645507812,      -15.7318115234,       -3.7841796875,      -11.9323730469
1488916845.2671859264,1488916845.2694749832,        0.6259765625,        0.0908203125,       -0.1645507812,      -15.7318115234,       -3.7841796875,      -11.9323730469
1488916845.2697570324,1488916845.2720499039,        0.6259765625,        0.0908203125,       -0.1645507812,      -15.7165527344,       -3.8299560547,      -12.8173828125
1488916845.2723319530,1488916845.2747519016,        0.6259765625,        0.0908203125,       -0.1645507812,      -15.7165527344,       -3.8299560547,      -12.8173828125
1488916845.2750339508,1488916845.2773320675,        0.6298828125,        0.0844726562,       -0.1616210938,      -15.3503417969,       -3.6163330078,      -13.7176513672
1488916845.2776129246,1488916845.2799010277,        0.6298828125,        0.0844726562,       -0.1616210938,      -15.3503417969,       -3.6163330078,      -13.7176513672
1488916845.2801830769,1488916845.2824730873,        0.6298828125,        0.0844726562,       -0.1616210938,      -15.3503417969,       -3.5858154297,      -14.8925781250
1488916845.2827529907,1488916845.2851569653,        0.6298828125,        0.0844726562,       -0.1616210938,      -15.8386230469,       -3.5858154297,      -14.8925781250
1488916845.2854468822,1488916845.2878639698,        0.6269531250,        0.0986328125,       -0.1591796875,      -15.8386230469,       -3.8909912109,      -15.7165527344
1488916845.2881519794,1488916845.2905650139,        0.6269531250,        0.0986328125,       -0.1591796875,      -15.2130126953,       -3.8909912109,      -15.7165527344
1488916845.2909710407,1488916845.2933940887,        0.6269531250,        0.0986328125,       -0.1591796875,      -15.2130126953,       -4.2266845703,      -16.1743164062
1488916845.2937400341,1488916845.2961530685,        0.5019531250,        0.1010742188,       -0.1635742188,      -14.7552490234,       -4.2266845703,      -16.1743164062
1488916845.2964429855,1488916845.2988569736,        0.6220703125,        0.1010742188,       -0.1635742188,      -14.7552490234,       -4.1656494141,      -16.7236328125
1488916845.2991449833,1488916845.3015620708,        0.6220703125,        0.1010742188,       -0.1635742188,      -14.0686035156,       -4.1656494141,      -16.7236328125
1488916845.3018500805,1488916845.3042759895,        0.6220703125,        0.1010742188,       -0.1635742188,      -14.0686035156,       -4.1809082031,      -16.9525146484
1488916845.3045670986,1488916845.3069839478,        0.6196289062,        0.1088867188,       -0.1547851562,      -14.1143798828,       -4.1809082031,      -16.9525146484
1488916845.3072741032,1488916845.3096919060,        0.6196289062,        0.1088867188,       -0.1547851562,      -14.1143798828,       -4.2266845703,      -17.1966552734
1488916845.3099820614,1488916845.3123970032,        0.6196289062,        0.1088867188,       -0.1547851562,      -14.2059326172,       -4.2266845703,      -17.1966552734
1488916845.3126859665,1488916845.3151199818,        0.6196289062,        0.1088867188,       -0.1547851562,      -14.2059326172,       -4.3487548828,      -17.4102783203
1488916845.3154089451,1488916845.3178191185,        0.6171875000,        0.1123046875,       -0.1567382812,      -14.1754150391,       -4.3487548828,      -17.4102783203
1488916845.3181099892,1488916845.3205280304,        0.6171875000,        0.1123046875,       -0.1567382812,      -14.1754150391,       -4.7302246094,      -17.4560546875
1488916845.3208150864,1488916845.3232278824,        0.6171875000,        0.1123046875,       -0.1567382812,      -14.5111083984,       -4.7302246094,      -17.4560546875
1488916845.3235290051,1488916845.3258190155,        0.6171875000,        0.1123046875,       -0.1611328125,      -14.5111083984,       -4.7302246094,      -17.6849365234
1488916845.3261010647,1488916845.3283970356,        0.6123046875,        0.1079101562,       -0.1611328125,      -15.1062011719,       -4.5013427734,      -17.6849365234
1488916845.3286790848,1488916845.3309700489,        0.6123046875,        0.1079101562,       -0.1611328125,      -15.1062011719,       -4.5013427734,      -18.1579589844
1488916845.3312509060,1488916845.3335618973,        0.6123046875,        0.1079101562,       -0.1611328125,      -14.6484375000,       -4.5471191406,      -18.1579589844
1488916845.3338520527,1488916845.3362650871,        0.6123046875,        0.1166992188,       -0.1694335938,      -14.6484375000,       -4.5471191406,      -18.1579589844
1488916845.3365540504,1488916845.3389689922,        0.6259765625,        0.1166992188,       -0.1694335938,      -14.3737792969,       -4.9133300781,      -18.5089111328
1488916845.3392579556,1488916845.3416769505,        0.6259765625,        0.1166992188,       -0.1694335938,      -14.3737792969,       -4.9133300781,      -18.5089111328
1488916845.3419659138,1488916845.3443830013,        0.6259765625,        0.1166992188,       -0.1694335938,      -14.7705078125,       -5.1727294922,      -19.1650390625
1488916845.3446729183,1488916845.3470880985,        0.6176757812,        0.1098632812,       -0.1542968750,      -14.7705078125,       -5.1727294922,      -19.1650390625
1488916845.3473770618,1488916845.3497960567,        0.6176757812,        0.1098632812,       -0.1542968750,      -14.8925781250,       -5.2795410156,      -19.4091796875
1488916845.3500831127,1488916845.3524949551,        0.6176757812,        0.1098632812,       -0.1542968750,      -14.8925781250,       -5.2795410156,      -23.3154296875
1488916845.3527851105,1488916845.3552019596,        0.6176757812,        0.1098632812,       -0.1542968750,      -14.8925781250,       -5.1879882812,      -20.4010009766
1488916845.3555989265,1488916845.3580160141,        0.6264648438,        0.1113281250,       -0.1591796875,      -14.8925781250,       -5.1879882812,      -20.4010009766
1488916845.3583030701,1488916845.3607149124,        0.6264648438,        0.1113281250,       -0.1591796875,      -15.2587890625,       -5.4168701172,      -21.5301513672
1488916845.3610041142,1488916845.3634610176,        0.6264648438,        0.1113281250,       -0.1591796875,      -15.2587890625,       -5.4168701172,      -21.5301513672
1488916845.3637499809,1488916845.3661630154,        0.6264648438,        0.1113281250,       -0.1601562500,      -15.6250000000,       -6.1340332031,      -22.0642089844
1488916845.3664519787,1488916845.3688669205,        0.6323242188,        0.1206054688,       -0.1601562500,      -15.6250000000,       -6.1340332031,      -22.0642089844
1488916845.3691558838,1488916845.3715751171,        0.6323242188,        0.1206054688,       -0.1601562500,      -15.5944824219,       -6.4697265625,      -22.5982666016
1488916845.3718640804,1488916845.3742458820,        0.6323242188,        0.1206054688,       -0.1601562500,      -15.5944824219,       -6.4697265625,      -22.5982666016
1488916845.3745279312,1488916845.3768169880,        0.6323242188,        0.1240234375,       -0.1611328125,      -16.2353515625,       -6.9580078125,      -23.1628417969
1488916845.3770980835,1488916845.3793940544,        0.6313476562,        0.1240234375,       -0.1611328125,      -16.2353515625,       -6.9580078125,      -23.1628417969
1488916845.3796749115,1488916845.3819611073,        0.6313476562,        0.1240234375,       -0.1611328125,      -16.3574218750,       -7.2326660156,      -23.7274169922
1488916845.3822410107,1488916845.3846011162,        0.6313476562,        0.1240234375,       -0.1611328125,      -16.3574218750,       -7.2326660156,      -23.7274169922
1488916845.3848910332,1488916845.3873031139,        0.6381835938,        0.1381835938,       -0.1479492188,      -17.0135498047,       -8.2550048828,      -24.2462158203
1488916845.3875920773,1488916845.3900051117,        0.6381835938,        0.1381835938,       -0.1479492188,      -17.0135498047,       -8.2550048828,      -24.2462158203
1488916845.3902919292,1488916845.3927080631,        0.6381835938,        0.1381835938,       -0.1479492188,      -17.4407958984,       -8.9263916016,      -24.9023437500
1488916845.3929960728,1488916845.3954570293,        0.6381835938,        0.1381835938,       -0.1479492188,      -17.4407958984,       -8.9263916016,      -24.9023437500
1488916845.3957440853,1488916845.3981609344,        0.6381835938,        0.1401367188,       -0.1542968750,      -18.1274414062,       -9.1400146484,      -25.7263183594
1488916845.3984498978,1488916845.4008660316,        0.6381835938,        0.1401367188,       -0.1542968750,      -18.1274414062,       -9.1400146484,      -25.7263183594
1488916845.4011549950,1488916845.4035758972,        0.6381835938,        0.1401367188,       -0.1542968750,      -19.5159912109,       -9.7808837891,      -26.1688232422
1488916845.4038660526,1488916845.4062790871,        0.6381835938,        0.1401367188,       -0.1455078125,      -19.5159912109,       -9.7808837891,      -26.1688232422
1488916845.4065670967,1488916845.4089839458,        0.6489257812,        0.1455078125,       -0.1455078125,      -20.4925537109,      -10.0555419922,      -26.6418457031
1488916845.4092750549,1488916845.4116899967,        0.6489257812,        0.1455078125,       -0.1455078125,      -20.4925537109,      -10.0555419922,      -26.6418457031
1488916845.4119811058,1488916845.4144029617,        0.6489257812,        0.1455078125,       -0.1455078125,      -20.8282470703,      -10.2233886719,      -27.0385742188
1488916845.4146950245,1488916845.4171071053,        0.6489257812,        0.1416015625,       -0.1015625000,      -20.8282470703,      -10.2233886719,      -27.0385742188
1488916845.4174010754,1488916845.4198169708,        0.6513671875,        0.1416015625,       -0.1015625000,      -21.1486816406,      -10.4217529297,      -27.9541015625
1488916845.4202079773,1488916845.4226279259,        0.6513671875,        0.1416015625,       -0.1015625000,      -21.1486816406,      -10.4217529297,      -27.9541015625
1488916845.4229209423,1488916845.4252569675,        0.6513671875,        0.1416015625,       -0.1015625000,      -19.0734863281,      -10.0097656250,      -30.0903320312
1488916845.4255409241,1488916845.4278340340,        0.6645507812,        0.0966796875,       -0.1401367188,      -19.0734863281,      -10.0097656250,      -30.0903320312
1488916845.4281189442,1488916845.4304080009,        0.6645507812,        0.0966796875,       -0.1401367188,      -14.9078369141,      -10.3912353516,      -31.9824218750
1488916845.4306929111,1488916845.4329810143,        0.6645507812,        0.0966796875,       -0.1401367188,      -14.9078369141,      -10.3912353516,      -31.9824218750
1488916845.4332671165,1488916845.4357140064,        0.6645507812,        0.0966796875,       -0.1401367188,      -12.9547119141,      -11.1389160156,      -33.9202880859
1488916845.4360070229,1488916845.4384200573,        0.6279296875,        0.1137695312,       -0.1547851562,      -12.9547119141,      -11.1389160156,      -33.9202880859
1488916845.4387109280,1488916845.4411189556,        0.6279296875,        0.1137695312,       -0.1547851562,      -12.1612548828,      -12.9089355469,      -34.2102050781
1488916845.4414091110,1488916845.4438719749,        0.6279296875,        0.1137695312,       -0.1547851562,      -12.1612548828,      -12.9089355469,      -34.2102050781
1488916845.4441649914,1488916845.4465830326,        0.6279296875,        0.1137695312,       -0.1547851562,      -12.2375488281,      -14.1143798828,      -35.2325439453
1488916845.4468760490,1488916845.4492979050,        0.6552734375,        0.1674804688,       -0.1611328125,      -12.2375488281,      -14.1143798828,      -35.2325439453
1488916845.4495890141,1488916845.4520020485,        0.6552734375,        0.1674804688,       -0.1611328125,      -13.4887695312,      -14.3280029297,      -37.6739501953
1488916845.4522919655,1488916845.4547119141,        0.6552734375,        0.1674804688,       -0.1611328125,      -13.4887695312,      -14.3280029297,      -37.6739501953
1488916845.4550030231,1488916845.4574210644,        0.6552734375,        0.1059570312,       -0.2133789062,      -14.6026611328,      -15.2740478516,      -39.5965576172
1488916845.4577119350,1488916845.4601290226,        0.6503906250,        0.1059570312,       -0.2133789062,      -14.6026611328,      -15.2740478516,      -39.5965576172
1488916845.4604220390,1488916845.4628379345,        0.6503906250,        0.1059570312,       -0.2133789062,      -14.6942138672,      -15.8843994141,      -40.9393310547
1488916845.4631290436,1488916845.4655609131,        0.6503906250,        0.1059570312,       -0.2133789062,      -14.6942138672,      -15.8843994141,      -40.9393310547
1488916845.4658529758,1488916845.4682650566,        0.6503906250,        0.0859375000,       -0.2343750000,      -13.8397216797,      -16.4337158203,      -41.8395996094
1488916845.4685580730,1488916845.4709761143,        0.6503906250,        0.0859375000,       -0.2343750000,      -13.8397216797,      -16.4337158203,      -41.8395996094
1488916845.4712700844,1488916845.4736819267,        0.6503906250,        0.0859375000,       -0.2343750000,      -16.8609619141,      -14.0533447266,      -42.2363281250
1488916845.4739680290,1488916845.4762539864,        0.6503906250,        0.0859375000,       -0.2343750000,      -16.8609619141,      -14.0533447266,      -42.2363281250
1488916845.4765388966,1488916845.4788300991,        0.7221679688,        0.1074218750,       -0.2207031250,      -18.4173583984,      -11.0473632812,      -43.2586669922
1488916845.4791140556,1488916845.4814050198,        0.7221679688,        0.1074218750,       -0.2207031250,      -18.4173583984,      -11.0473632812,      -43.2586669922
1488916845.4816889763,1488916845.4840691090,        0.7221679688,        0.1074218750,       -0.2207031250,      -18.4173583984,       -9.4757080078,      -44.8913574219
1488916845.4843590260,1488916845.4867749214,        0.7221679688,        0.1074218750,       -0.2207031250,      -17.7612304688,       -9.4757080078,      -44.8913574219
1488916845.4871718884,1488916845.4895880222,        0.7133789062,        0.1040039062,       -0.2260742188,      -17.3187255859,       -9.1705322266,      -47.3480224609
1488916845.4898769855,1488916845.4922928810,        0.7133789062,        0.1040039062,       -0.2260742188,      -17.3187255859,       -9.1705322266,      -47.3480224609
1488916845.4925830364,1488916845.4950010777,        0.7133789062,        0.1040039062,       -0.2260742188,      -17.3187255859,       -9.2163085938,      -48.7976074219
1488916845.4952909946,1488916845.4977068901,        0.7133789062,        0.1298828125,       -0.1835937500,      -18.0664062500,       -9.2163085938,      -48.7976074219
1488916845.4979960918,1488916845.5004119873,        0.6992187500,        0.1298828125,       -0.1835937500,      -18.0664062500,       -9.0789794922,      -49.8504638672
1488916845.5006999969,1488916845.5031120777,        0.6992187500,        0.1298828125,       -0.1835937500,      -16.6931152344,       -9.0789794922,      -49.8504638672
1488916845.5034000874,1488916845.5058510303,        0.6992187500,        0.1298828125,       -0.1835937500,      -16.6931152344,       -8.9416503906,      -51.9866943359
1488916845.5061399937,1488916845.5085520744,        0.7387695312,        0.1308593750,       -0.1201171875,      -15.9912109375,       -8.9416503906,      -51.9866943359
1488916845.5088410378,1488916845.5112540722,        0.7387695312,        0.1308593750,       -0.1201171875,      -12.0849609375,       -8.3770751953,      -54.6417236328
1488916845.5115439892,1488916845.5139770508,        0.7387695312,        0.1308593750,       -0.1201171875,      -14.9841308594,       -8.3770751953,      -54.6417236328
1488916845.5142669678,1488916845.5166800022,        0.7387695312,        0.1308593750,       -0.1201171875,      -14.9841308594,       -7.6446533203,      -58.2580566406
1488916845.5169689655,1488916845.5193810463,        0.7519531250,        0.1284179688,       -0.1264648438,      -12.6647949219,       -7.6446533203,      -58.2580566406
1488916845.5196700096,1488916845.5220839977,        0.7519531250,        0.1284179688,       -0.1264648438,       -8.7585449219,       -8.2092285156,      -62.0880126953
1488916845.5223701000,1488916845.5247170925,        0.7519531250,        0.1284179688,       -0.1264648438,      -11.4898681641,       -8.2092285156,      -62.0880126953
1488916845.5249979496,1488916845.5272860527,        0.7519531250,        0.1284179688,       -0.1533203125,      -11.4898681641,       -8.2092285156,      -64.2852783203
1488916845.5275690556,1488916845.5298609734,        0.7500000000,        0.1044921875,       -0.1533203125,       -9.0484619141,       -8.8195800781,      -64.2852783203
1488916845.5301399231,1488916845.5324299335,        0.7500000000,        0.1044921875,       -0.1533203125,       -9.0484619141,       -8.8195800781,      -67.1997070312
1488916845.5327110291,1488916845.5351119041,        0.7500000000,        0.1044921875,       -0.1533203125,       -5.7678222656,       -9.4604492188,      -67.1997070312
1488916845.5353989601,1488916845.5378119946,        0.7500000000,        0.2294921875,       -0.1811523438,       -5.7678222656,       -9.4604492188,      -71.7010498047
1488916845.5380969048,1488916845.5405108929,        0.7866210938,        0.1308593750,       -0.1811523438,       -4.4555664062,       -9.4451904297,      -71.7010498047
1488916845.5407979488,1488916845.5432150364,        0.7866210938,        0.1308593750,       -0.1811523438,       -4.4555664062,       -9.4451904297,      -74.4171142578
1488916845.5435109138,1488916845.5459260941,        0.7866210938,        0.1308593750,       -0.1811523438,       -3.1738281250,       -9.3841552734,      -74.4171142578
1488916845.5462129116,1488916845.5486309528,        0.7885742188,        0.1191406250,       -0.1816406250,       -3.1738281250,       -9.3841552734,      -76.3244628906
1488916845.5489170551,1488916845.5513329506,        0.7885742188,        0.1191406250,       -0.1816406250,       -2.9602050781,       -9.0332031250,      -76.3244628906
1488916845.5517249107,1488916845.5541501045,        0.7885742188,        0.1191406250,       -0.1816406250,       -2.9602050781,       -9.0332031250,      -77.8961181641
1488916845.5544390678,1488916845.5568549633,        0.7885742188,        0.1191406250,       -0.1816406250,       -2.5329589844,       -7.5836181641,      -77.8961181641
1488916845.5571401119,1488916845.5595519543,        0.8027343750,        0.1640625000,       -0.1459960938,       -2.5329589844,       -7.5836181641,      -82.8857421875
1488916845.5598349571,1488916845.5622439384,        0.8027343750,        0.1640625000,       -0.1459960938,       -3.7078857422,       -6.6833496094,      -82.8857421875
1488916845.5625278950,1488916845.5649580956,        0.8027343750,        0.1640625000,       -0.1459960938,       -3.7078857422,       -6.6833496094,      -87.9058837891
1488916845.5652430058,1488916845.5676569939,        0.8027343750,        0.1640625000,       -0.0209960938,       -6.8817138672,       -6.3018798828,      -87.9058837891
1488916845.5679440498,1488916845.5703530312,        0.8100585938,        0.1909179688,       -0.1103515625,       -6.8817138672,       -6.3018798828,      -91.8121337891
1488916845.5706388950,1488916845.5730550289,        0.8100585938,        0.1909179688,       -0.1103515625,      -13.2598876953,       -4.8065185547,      -90.6829833984
1488916845.5733430386,1488916845.5756530762,        0.8100585938,        0.1909179688,       -0.1103515625,      -13.2598876953,       -4.8065185547,      -90.6829833984
1488916845.5759339333,1488916845.5782430172,        0.8100585938,        0.1772460938,       -0.0742187500,      -19.6380615234,       -5.0506591797,      -90.5914306641
1488916845.5785250664,1488916845.5808160305,        0.8413085938,        0.1772460938,       -0.0742187500,      -19.6380615234,       -5.0506591797,      -90.5914306641
1488916845.5810980797,1488916845.5833868980,        0.8413085938,        0.1772460938,       -0.0742187500,      -25.6195068359,       -6.1035156250,      -86.7919921875
1488916845.5837340355,1488916845.5861499310,        0.8413085938,        0.1772460938,       -0.0742187500,      -25.6195068359,       -6.1035156250,      -86.7919921875
1488916845.5864379406,1488916845.5888469219,        0.9003906250,        0.1596679688,       -0.0307617188,      -30.3649902344,       -6.2713623047,      -86.8072509766
1488916845.5891370773,1488916845.5915489197,        0.9003906250,        0.1596679688,       -0.0307617188,      -30.3649902344,       -6.2713623047,      -86.8072509766
1488916845.5918369293,1488916845.5942630768,        0.9003906250,        0.1596679688,       -0.0307617188,      -33.8745117188,       -5.0659179688,      -88.2110595703
1488916845.5945510864,1488916845.5969638824,        0.9003906250,        0.1596679688,       -0.0307617188,      -33.8745117188,       -5.0659179688,      -88.2110595703
1488916845.5972540379,1488916845.5996720791,        0.8750000000,        0.0634765625,       -0.0532226562,      -36.5295410156,       -3.6163330078,      -91.4764404297
1488916845.5999610424,1488916845.6023709774,        0.8750000000,        0.0634765625,       -0.0532226562,      -36.5295410156,       -3.6163330078,      -91.4764404297
1488916845.6026639938,1488916845.6050889492,        0.8750000000,        0.0634765625,       -0.0532226562,      -37.4298095703,       -1.7089843750,      -94.2687988281
1488916845.6053779125,1488916845.6077940464,        0.8750000000,        0.0634765625,       -0.0532226562,      -37.4298095703,       -1.7089843750,      -94.2687988281
1488916845.6080820560,1488916845.6104960442,        0.8676757812,       -0.0107421875,       -0.1020507812,      -36.9720458984,       -0.6408691406,      -96.1303710938
1488916845.6107869148,1488916845.6131999493,        0.8676757812,       -0.0107421875,       -0.1020507812,      -36.9720458984,       -0.6408691406,      -96.1303710938
1488916845.6134979725,1488916845.6157920361,        0.8676757812,       -0.0107421875,       -0.1020507812,      -36.5447998047,       -1.1749267578,      -97.1069335938
1488916845.6161808968,1488916845.6184720993,        0.8676757812,       -0.0600585938,       -0.1547851562,      -36.5447998047,       -1.1749267578,      -97.1069335938
1488916845.6187529564,1488916845.6210479736,        0.8227539062,       -0.0600585938,       -0.1547851562,      -36.2548828125,       -2.4871826172,      -98.7243652344
1488916845.6213281155,1488916845.6236770153,        0.8227539062,       -0.0600585938,       -0.1547851562,      -36.2548828125,       -2.4871826172,      -98.7243652344
1488916845.6239659786,1488916845.6263749599,        0.8227539062,       -0.0600585938,       -0.1547851562,      -34.7747802734,       -4.0893554688,      -99.9603271484
1488916845.6266639233,1488916845.6290779114,        0.8227539062,       -0.1479492188,       -0.1494140625,      -34.7747802734,       -4.0893554688,      -99.9603271484
1488916845.6293671131,1488916845.6317780018,        0.7680664062,       -0.1479492188,       -0.1494140625,      -35.3546142578,       -2.9602050781,      -99.4720458984
1488916845.6320669651,1488916845.6344950199,        0.7680664062,       -0.1479492188,       -0.1494140625,      -35.3546142578,       -2.9602050781,      -99.4720458984
1488916845.6347839832,1488916845.6372039318,        0.7680664062,       -0.1479492188,       -0.1494140625,      -37.7197265625,        1.1291503906,     -100.9216308594
1488916845.6374919415,1488916845.6399040222,        0.8247070312,       -0.1391601562,       -0.1616210938,      -37.7197265625,        1.1291503906,     -100.9216308594
1488916845.6401910782,1488916845.6426079273,        0.8247070312,       -0.1391601562,       -0.1616210938,      -37.1093750000,        2.3498535156,     -104.3548583984
1488916845.6428959370,1488916845.6453170776,        0.8247070312,       -0.1391601562,       -0.1616210938,      -37.1093750000,        2.3498535156,     -104.3548583984
1488916845.6456069946,1488916845.6480159760,        0.8247070312,       -0.1391601562,       -0.1616210938,      -37.9791259766,        2.4108886719,     -106.7962646484
1488916845.6483058929,1488916845.6507210732,        0.7939453125,       -0.2124023438,       -0.1376953125,      -37.9791259766,        2.4108886719,     -106.7962646484
1488916845.6510090828,1488916845.6534590721,        0.7939453125,       -0.2124023438,       -0.1376953125,      -41.4733886719,        4.9591064453,     -108.3526611328
1488916845.6537480354,1488916845.6561660767,        0.7939453125,       -0.2124023438,       -0.1376953125,      -41.4733886719,        4.9591064453,     -108.3526611328
1488916845.6564540863,1488916845.6588699818,        0.7939453125,       -0.3374023438,       -0.1269531250,      -43.4112548828,        6.6528320312,     -109.5581054688
1488916845.6591579914,1488916845.6615691185,        0.7890625000,       -0.2724609375,       -0.1269531250,      -43.4112548828,        6.6528320312,     -109.5581054688
1488916845.6618580818,1488916845.6642410755,        0.7890625000,       -0.2724609375,       -0.1269531250,      -44.0979003906,        6.7901611328,     -110.1379394531
1488916845.6645228863,1488916845.6668109894,        0.7890625000,       -0.2724609375,       -0.1269531250,      -44.0979003906,        6.7901611328,     -110.1379394531
1488916845.6670930386,1488916845.6693849564,        0.8432617188,       -0.2827148438,       -0.1132812500,      -44.6014404297,        6.8206787109,     -111.2976074219
1488916845.6696670055,1488916845.6719589233,        0.8432617188,       -0.2827148438,       -0.1132812500,      -44.6014404297,        6.8206787109,     -111.2976074219
1488916845.6722419262,1488916845.6745960712,        0.8432617188,       -0.2827148438,       -0.1132812500,      -44.6014404297,        6.1645507812,     -115.6005859375
1488916845.6748869419,1488916845.6772999763,        0.8432617188,       -0.2827148438,       -0.1132812500,      -44.3725585938,        6.1645507812,     -115.6005859375
1488916845.6775898933,1488916845.6800050735,        0.8750000000,       -0.2192382812,       -0.1186523438,      -52.1850585938,        6.5002441406,     -121.4752197266
1488916845.6804029942,1488916845.6828100681,        0.8750000000,       -0.2192382812,       -0.1186523438,      -50.9033203125,        6.5002441406,     -121.4752197266
1488916845.6830990314,1488916845.6855249405,        0.8750000000,       -0.2192382812,       -0.1186523438,      -54.8095703125,        5.0048828125,     -126.5258789062
1488916845.6858170033,1488916845.6882300377,        0.8750000000,       -0.2192382812,       -0.1186523438,      -58.1665039062,        5.0048828125,     -126.5258789062
1488916845.6885199547,1488916845.6909348965,        0.8969726562,       -0.1220703125,       -0.0961914062,      -50.3540039062,       -1.5563964844,     -139.0228271484
1488916845.6912250519,1488916845.6936869621,        0.8969726562,       -0.1220703125,       -0.0961914062,      -50.6286621094,       -1.5563964844,     -139.0228271484
1488916845.6939780712,1488916845.6963860989,        0.8969726562,       -0.1220703125,       -0.0961914062,      -27.1911621094,       -4.3182373047,     -159.0270996094
1488916845.6966769695,1488916845.6990900040,        0.8969726562,        0.2529296875,       -0.0458984375,      -25.0396728516,       -4.3182373047,     -159.0270996094
1488916845.6993789673,1488916845.7017900944,        0.9555664062,        0.2792968750,       -0.0458984375,       -1.6021728516,       -6.3934326172,     -181.7626953125
1488916845.7020750046,1488916845.7044980526,        0.9555664062,        0.2792968750,       -0.0458984375,       -2.0446777344,       -6.3934326172,     -181.7626953125
1488916845.7047839165,1488916845.7071979046,        0.9555664062,        0.2792968750,       -0.0458984375,       -9.8571777344,      -16.3726806641,     -203.7506103516
1488916845.7074871063,1488916845.7098999023,        0.8837890625,        0.4804687500,       -0.4174804688,      -10.8642578125,      -16.3726806641,     -203.7506103516
1488916845.7101919651,1488916845.7126009464,        0.8837890625,        0.4804687500,       -0.4174804688,      -38.2080078125,      -23.4069824219,     -212.3565673828
1488916845.7128930092,1488916845.7152268887,        0.8837890625,        0.4804687500,       -0.4174804688,      -36.6973876953,      -23.4069824219,     -212.3565673828
1488916845.7155110836,1488916845.7178039551,        0.8837890625,        0.4804687500,       -0.4174804688,      -36.6973876953,      -23.4069824219,     -209.7167968750
1488916845.7180879116,1488916845.7203838825,        1.1870117188,       -0.2993164062,       -0.2656250000,      -36.1938476562,      -20.7366943359,     -209.7167968750
1488916845.7206668854,1488916845.7229619026,        1.1870117188,       -0.2993164062,       -0.2656250000,      -36.1938476562,      -20.7366943359,     -210.5102539062
1488916845.7232449055,1488916845.7257049084,        1.1870117188,       -0.2993164062,       -0.2656250000,      -18.5699462891,      -22.2015380859,     -210.5102539062
1488916845.7259950638,1488916845.7284150124,        1.1870117188,       -0.2993164062,       -0.2656250000,      -18.5699462891,      -22.2015380859,     -198.2727050781
1488916845.7287080288,1488916845.7311210632,        0.8916015625,       -0.2392578125,       -0.2094726562,        2.3040771484,      -15.2740478516,     -198.2727050781
1488916845.7314090729,1488916845.7338640690,        0.8916015625,       -0.2392578125,       -0.2094726562,        2.3040771484,      -15.2740478516,     -178.1158447266
1488916845.7341530323,1488916845.7365689278,        0.8916015625,       -0.2392578125,       -0.2094726562,       21.2860107422,      -15.9606933594,     -178.1158447266
1488916845.7368600368,1488916845.7392709255,        0.8916015625,       -0.2392578125,       -0.2700195312,       21.2860107422,      -15.9606933594,     -210.0067138672
1488916845.7395620346,1488916845.7419760227,        1.3623046875,        0.1103515625,       -0.2700195312,       23.7274169922,      -41.9158935547,     -210.0067138672
1488916845.7422690392,1488916845.7446999550,        1.3623046875,        0.1103515625,       -0.2700195312,       23.7274169922,      -41.9158935547,     -251.9378662109
1488916845.7451050282,1488916845.7475209236,        1.3623046875,        0.1103515625,       -0.2700195312,       13.8397216797,      -44.4488525391,     -251.9378662109
1488916845.7478129864,1488916845.7502288818,        1.2250976562,        0.3164062500,       -0.3383789062,       13.8397216797,      -44.4488525391,     -239.0136718750
1488916845.7505190372,1488916845.7529261112,        1.2250976562,        0.3164062500,       -0.3383789062,       18.6004638672,      -18.2800292969,     -239.0136718750
1488916845.7532160282,1488916845.7556788921,        1.2250976562,        0.3164062500,       -0.3383789062,       18.6004638672,      -18.2800292969,     -212.8601074219
1488916845.7559709549,1488916845.7583870888,        1.2250976562,        0.3164062500,       -0.3383789062,       15.3045654297,      -10.5285644531,     -212.8601074219
1488916845.7586789131,1488916845.7610859871,        0.9111328125,        0.1005859375,       -0.2294921875,       15.3045654297,      -10.5285644531,     -197.8607177734
1488916845.7613799572,1488916845.7637789249,        0.9111328125,        0.1005859375,       -0.2294921875,       10.4980468750,      -20.4925537109,     -197.8607177734
1488916845.7640628815,1488916845.7663550377,        0.9111328125,        0.1005859375,       -0.2294921875,       10.4980468750,      -20.4925537109,     -174.7741699219
1488916845.7666389942,1488916845.7689290047,        0.9111328125,        0.1005859375,       -0.2294921875,       14.1601562500,      -23.7426757812,     -174.7741699219
1488916845.7692139149,1488916845.7715098858,        0.9047851562,        0.3588867188,       -0.3745117188,       14.1601562500,      -23.7426757812,     -174.7741699219
1488916845.7717940807,1488916845.7741270065,        0.9047851562,        0.3588867188,       -0.3745117188,       19.6228027344,      -21.1486816406,     -146.3623046875
1488916845.7744209766,1488916845.7768340111,        0.9047851562,        0.3588867188,       -0.3745117188,       19.6228027344,      -21.1486816406,     -146.3623046875
1488916845.7771229744,1488916845.7795369625,        0.9047851562,        0.3588867188,       -0.3291015625,       20.7672119141,      -19.4549560547,     -128.1738281250
1488916845.7798280716,1488916845.7822420597,        0.6250000000,        0.5073242188,       -0.3291015625,       20.7672119141,      -19.4549560547,     -128.1738281250
1488916845.7825329304,1488916845.7849609852,        0.6250000000,        0.5073242188,       -0.3291015625,       25.9857177734,       -9.9487304688,     -123.1231689453
1488916845.7852489948,1488916845.7876670361,        0.6250000000,        0.5073242188,       -0.3291015625,       25.9857177734,       -9.9487304688,     -123.1231689453
1488916845.7879579067,1488916845.7903668880,       -0.1250000000,        0.9829101562,       -0.3178710938,       21.7895507812,       -1.2512207031,     -110.8398437500
1488916845.7906548977,1488916845.7930710316,       -0.0053710938,        0.9829101562,       -0.3178710938,       21.7895507812,       -1.2512207031,     -110.8398437500
1488916845.7933609486,1488916845.7957789898,       -0.0053710938,        0.9829101562,       -0.3178710938,       32.3944091797,       -3.3264160156,      -81.6040039062
1488916845.7960689068,1488916845.7984828949,       -0.0053710938,        0.9829101562,       -0.3178710938,       32.3944091797,       -3.3264160156,      -81.6040039062
1488916845.7987740040,1488916845.8011910915,        0.9174804688,        1.2265625000,       -0.2993164062,       30.6243896484,      -36.1938476562,      -50.5981445312
1488916845.8014810085,1488916845.8039009571,        0.9174804688,        1.2265625000,       -0.2993164062,       30.6243896484,      -36.1938476562,      -50.5981445312
1488916845.8041911125,1488916845.8066051006,        0.9174804688,        1.2265625000,       -0.2993164062,        5.9967041016,      -34.5306396484,       -1.3732910156
1488916845.8068890572,1488916845.8093070984,        0.9174804688,        1.2265625000,       -0.2993164062,        5.9967041016,      -34.5306396484,       -1.3732910156
1488916845.8097000122,1488916845.8121149540,        0.6699218750,       -0.2353515625,       -0.2397460938,       -2.7160644531,       11.2457275391,       53.6956787109
1488916845.8124029636,1488916845.8147919178,        0.6699218750,       -0.2353515625,       -0.2397460938,       -2.7160644531,       11.2457275391,       53.6956787109
1488916845.8150730133,1488916845.8173620701,        0.6699218750,       -0.2353515625,       -0.2397460938,      -44.9676513672,       43.1518554688,       95.0775146484
1488916845.8176479340,1488916845.8199350834,        0.6699218750,       -0.2353515625,       -0.0029296875,      -44.9676513672,       43.1518554688,       95.0775146484
1488916845.8202209473,1488916845.8225159645,        0.2749023438,       -0.9936523438,       -0.0029296875,      -92.6666259766,       35.7513427734,       91.6290283203
1488916845.8228011131,1488916845.8251919746,        0.2749023438,       -0.9936523438,       -0.0029296875,      -92.6666259766,       35.7513427734,       91.6290283203
1488916845.8254849911,1488916845.8278970718,        0.2749023438,       -0.9936523438,       -0.0029296875,      -82.8857421875,       13.2141113281,       50.3540039062
1488916845.8281900883,1488916845.8306009769,        0.2749023438,       -0.7578125000,       -0.0473632812,      -82.8857421875,       13.2141113281,       50.3540039062
1488916845.8308930397,1488916845.8333001137,        0.3647460938,       -0.7578125000,       -0.0473632812,      -24.2614746094,        8.0261230469,       13.4429931641
1488916845.8335919380,1488916845.8360109329,        0.3647460938,       -0.7578125000,       -0.0473632812,      -24.2614746094,        8.0261230469,       13.4429931641
1488916845.8363020420,1488916845.8387169838,        0.3647460938,       -0.7578125000,       -0.0473632812,       22.6593017578,       15.5029296875,       12.7410888672
1488916845.8390100002,1488916845.8414230347,        0.4301757812,       -0.6020507812,       -0.0698242188,       22.6593017578,       15.5029296875,       12.7410888672
1488916845.8417160511,1488916845.8441460133,        0.4301757812,       -0.6020507812,       -0.0698242188,       35.8123779297,       21.8963623047,       36.6210937500
1488916845.8444380760,1488916845.8468561172,        0.4301757812,       -0.6020507812,       -0.0698242188,       35.8123779297,       21.8963623047,       36.6210937500
1488916845.8471460342,1488916845.8495619297,        0.4301757812,       -0.6020507812,       -0.0698242188,       37.9333496094,       24.4750976562,       60.4248046875
1488916845.8498539925,1488916845.8522729874,        0.2407226562,       -0.2465820312,       -0.0727539062,       37.9333496094,       24.4750976562,       60.4248046875
1488916845.8525640965,1488916845.8549859524,        0.2407226562,       -0.2465820312,       -0.0727539062,       38.2995605469,       26.6113281250,       79.6813964844
1488916845.8552780151,1488916845.8576960564,        0.2407226562,       -0.2465820312,       -0.0727539062,       38.2995605469,       26.6113281250,       79.6813964844
1488916845.8579869270,1488916845.8603999615,        0.2407226562,       -0.2465820312,        0.0083007812,       34.1796875000,       29.1595458984,       91.5679931641
1488916845.8606920242,1488916845.8631029129,        0.3383789062,       -0.0473632812,        0.0083007812,       34.1796875000,       29.1595458984,       91.5679931641
1488916845.8633949757,1488916845.8656909466,        0.3383789062,       -0.0473632812,        0.0083007812,       26.3214111328,       37.7502441406,       93.3685302734
1488916845.8659780025,1488916845.8682661057,        0.3383789062,       -0.0473632812,        0.0083007812,       26.3214111328,       37.7502441406,       93.3685302734
1488916845.8685519695,1488916845.8708400726,        0.3383789062,       -0.0717773438,        0.0527343750,       15.9912109375,       40.3900146484,       98.9837646484
1488916845.8711240292,1488916845.8735070229,        0.2631835938,       -0.0717773438,        0.0527343750,       15.9912109375,       40.3900146484,       98.9837646484
1488916845.8739058971,1488916845.8762769699,        0.2631835938,       -0.0717773438,        0.0527343750,       10.1165771484,       35.6597900391,      112.0300292969
1488916845.8765659332,1488916845.8789470196,        0.2631835938,       -0.0717773438,        0.0527343750,       10.1165771484,       35.6597900391,      112.0300292969
1488916845.8792350292,1488916845.8816061020,        0.2050781250,       -0.1308593750,        0.0502929688,        7.9498291016,       34.3933105469,      123.1536865234
1488916845.8818941116,1488916845.8843100071,        0.2050781250,       -0.1308593750,        0.0502929688,        7.9498291016,       34.3933105469,      123.1536865234
1488916845.8845999241,1488916845.8870229721,        0.2050781250,       -0.1308593750,        0.0502929688,        6.6986083984,       34.8510742188,      132.8887939453
1488916845.8873128891,1488916845.8897249699,        0.2050781250,       -0.1308593750,        0.0502929688,        6.6986083984,       34.8510742188,      132.8887939453
1488916845.8900129795,1488916845.8924241066,        0.2963867188,       -0.1293945312,        0.0346679688,        4.2572021484,       35.9802246094,      143.9514160156
1488916845.8927140236,1488916845.8951389790,        0.2963867188,       -0.1293945312,        0.0346679688,        4.2572021484,       35.9802246094,      143.9514160156
1488916845.8954279423,1488916845.8978419304,        0.2963867188,       -0.1293945312,        0.0346679688,        2.4108886719,       36.4685058594,      155.1818847656
1488916845.8981299400,1488916845.9005470276,        0.2963867188,       -0.1293945312,        0.0346679688,        2.4108886719,       36.4685058594,      155.1818847656
1488916845.9008359909,1488916845.9032499790,        0.3540039062,       -0.1059570312,        0.0029296875,       -1.4953613281,       40.3747558594,      168.5333251953
1488916845.9035480022,1488916845.9058339596,        0.3540039062,       -0.1059570312,        0.0029296875,       -0.6103515625,       40.3747558594,      168.5333251953
1488916845.9061179161,1488916845.9084138870,        0.3540039062,       -0.1059570312,        0.0029296875,       -0.6103515625,       40.4510498047,      183.3648681641
1488916845.9086968899,1488916845.9109859467,        0.3540039062,       -0.2309570312,        0.0214843750,       -5.0811767578,       40.4510498047,      183.3648681641
1488916845.9112670422,1488916845.9135699272,        0.3051757812,       -0.1269531250,        0.0214843750,       -5.0811767578,       40.4510498047,      195.7550048828
1488916845.9138600826,1488916845.9162790775,        0.3051757812,       -0.1269531250,        0.0214843750,       -7.0037841797,       37.5213623047,      195.7550048828
1488916845.9165680408,1488916845.9189779758,        0.3051757812,       -0.1269531250,        0.0214843750,       -7.0037841797,       37.5213623047,      204.2846679688
1488916845.9192669392,1488916845.9216809273,        0.3798828125,       -0.0859375000,        0.0473632812,       -6.1950683594,       37.6586914062,      204.2846679688
1488916845.9219689369,1488916845.9243860245,        0.3798828125,       -0.0859375000,        0.0473632812,       -6.1950683594,       37.6586914062,      211.8835449219
1488916845.9246749878,1488916845.9270930290,        0.3798828125,       -0.0859375000,        0.0473632812,       -5.8746337891,       37.1093750000,      211.8835449219
1488916845.9273819923,1488916845.9297990799,        0.3798828125,       -0.0859375000,        0.0473632812,       -5.8746337891,       37.1093750000,      221.0693359375
1488916845.9300870895,1488916845.9325020313,        0.4184570312,       -0.0727539062,        0.0771484375,       -6.1035156250,       36.3769531250,      221.0693359375
1488916845.9327919483,1488916845.9352109432,        0.4184570312,       -0.0727539062,        0.0771484375,       -6.1035156250,       36.3769531250,      230.6060791016
1488916845.9354989529,1488916845.9379150867,        0.4184570312,       -0.0727539062,        0.0771484375,       -6.2866210938,       36.1480712891,      230.6060791016
1488916845.9383111000,1488916845.9407200813,        0.4184570312,       -0.0727539062,        0.0771484375,       -6.2866210938,       36.1480712891,      240.2038574219
1488916845.9410090446,1488916845.9434700012,        0.4599609375,       -0.0644531250,        0.0844726562,       -6.9427490234,       35.6292724609,      240.2038574219
1488916845.9437530041,1488916845.9460420609,        0.4599609375,       -0.0644531250,        0.0844726562,       -6.9427490234,       35.6292724609,      248.2452392578
1488916845.9463229179,1488916845.9486160278,        0.4599609375,       -0.0644531250,        0.0844726562,       -6.2103271484,       35.4919433594,      248.2452392578
1488916845.9488968849,1488916845.9511930943,        0.4599609375,       -0.0644531250,        0.0991210938,       -6.2103271484,       35.4919433594,      256.0577392578
1488916845.9514729977,1488916845.9537611008,        0.5322265625,       -0.0410156250,        0.0991210938,       -4.7912597656,       35.3698730469,      255.6152343750
1488916845.9540419579,1488916845.9563319683,        0.5322265625,       -0.0410156250,        0.0991210938,       -4.7912597656,       35.3698730469,      255.6152343750
1488916845.9566130638,1488916845.9589040279,        0.5322265625,       -0.0410156250,        0.0991210938,       -3.5858154297,       35.5529785156,      263.4887695312
1488916845.9591848850,1488916845.9614748955,        0.5322265625,       -0.0156250000,        0.0937500000,       -3.5858154297,       35.5529785156,      263.4887695312
1488916845.9617559910,1488916845.9641139507,        0.5815429688,       -0.0156250000,        0.0937500000,       -2.4566650391,       35.7360839844,      270.7519531250
1488916845.9644041061,1488916845.9668009281,        0.5815429688,       -0.0156250000,        0.0937500000,       -2.4566650391,       35.7360839844,      270.7519531250
1488916845.9670889378,1488916845.9694890976,        0.5815429688,       -0.0156250000,        0.0937500000,       -0.2288818359,       35.1104736328,      277.2979736328
1488916845.9697759151,1488916845.9721789360,        0.6210937500,       -0.0029296875,        0.0859375000,       -0.2288818359,       35.1104736328,      277.2979736328
1488916845.9724700451,1488916845.9748671055,        0.6210937500,       -0.0029296875,        0.0859375000,        3.4332275391,       34.3322753906,      283.7219238281
1488916845.9751560688,1488916845.9775400162,        0.6210937500,       -0.0029296875,        0.0859375000,        3.4332275391,       34.3322753906,      283.7219238281
1488916845.9778280258,1488916845.9802100658,        0.6210937500,       -0.0029296875,        0.0859375000,        8.0566406250,       34.4696044922,      289.3981933594
1488916845.9804968834,1488916845.9828770161,        0.7177734375,       -0.0039062500,        0.0820312500,        8.0566406250,       34.4696044922,      289.3981933594
1488916845.9831659794,1488916845.9855809212,        0.7177734375,       -0.0039062500,        0.0820312500,       12.7105712891,       35.6292724609,      294.2504882812
1488916845.9858729839,1488916845.9882869720,        0.7177734375,       -0.0039062500,        0.0820312500,       12.7105712891,       35.6292724609,      294.2504882812
1488916845.9885809422,1488916845.9909920692,        0.7177734375,       -0.0039062500,        0.0820312500,       17.1966552734,       36.6210937500,      299.1485595703
1488916845.9912838936,1488916845.9937200546,        0.8022460938,       -0.0039062500,        0.0800781250,       17.1966552734,       36.6210937500,      299.1485595703
1488916845.9940109253,1488916845.9964179993,        0.8022460938,       -0.0039062500,        0.0800781250,       20.9655761719,       37.3840332031,      303.6193847656
1488916845.9967110157,1488916845.9991199970,        0.8022460938,       -0.0039062500,        0.0800781250,       20.9655761719,       37.3840332031,      303.6193847656
1488916845.9994130135,1488916846.0018351078,        0.8022460938,        0.1210937500,        0.0756835938,       24.3988037109,       38.2385253906,      307.8918457031
1488916846.0022430420,1488916846.0046091080,        0.8847656250,        0.0019531250,        0.0756835938,       24.3988037109,       38.2385253906,      307.8918457031
1488916846.0048949718,1488916846.0071880817,        0.8847656250,        0.0019531250,        0.0756835938,       27.8625488281,       39.9932861328,      311.8591308594
1488916846.0074710846,1488916846.0097560883,        0.8847656250,        0.0019531250,        0.0756835938,       27.8625488281,       39.9932861328,      311.8591308594
1488916846.0100409985,1488916846.0123269558,        0.8847656250,        0.0131835938,        0.0722656250,       32.1044921875,       41.2597656250,      316.4062500000
1488916846.0126090050,1488916846.0149960518,        0.9814453125,        0.0131835938,        0.0722656250,       32.1044921875,       41.2597656250,      316.4062500000
1488916846.0154349804,1488916846.0177319050,        0.9814453125,        0.0131835938,        0.0722656250,       36.8957519531,       43.0908203125,      320.3277587891
1488916846.0180180073,1488916846.0203080177,        0.9814453125,        0.0131835938,        0.0722656250,       36.8957519531,       43.0908203125,      320.3277587891
1488916846.0205919743,1488916846.0228800774,        1.0981445312,        0.0351562500,        0.0776367188,       40.8020019531,       44.7082519531,      323.6999511719
1488916846.0231640339,1488916846.0256340504,        1.0981445312,        0.0351562500,        0.0776367188,       42.9382324219,       44.7082519531,      323.6999511719
1488916846.0259230137,1488916846.0283019543,        1.0981445312,        0.0351562500,        0.0776367188,       50.7507324219,       46.2341308594,      326.3397216797
1488916846.0285921097,1488916846.0310599804,        1.0981445312,        0.0351562500,        0.0776367188,       49.5300292969,       46.2341308594,      326.3397216797
1488916846.0313489437,1488916846.0343949795,        1.2138671875,        0.1000976562,        0.0410156250,       57.3425292969,       49.0112304688,      327.9113769531
1488916846.0346848965,1488916846.0369699001,        1.2138671875,        0.1000976562,        0.0410156250,       56.5643310547,       49.0112304688,      327.9113769531
1488916846.0372569561,1488916846.0395400524,        1.2138671875,        0.1000976562,        0.0410156250,       64.0411376953,       51.4373779297,      329.5440673828
1488916846.0398240089,1488916846.0421030521,        1.2138671875,        0.2250976562,        0.0063476562,       64.0411376953,       51.4373779297,      329.5440673828
1488916846.0423889160,1488916846.0447609425,        1.3354492188,        0.1660156250,        0.0063476562,       70.4498291016,       54.1229248047,      329.4219970703
1488916846.0450470448,1488916846.0473361015,        1.3354492188,        0.1660156250,        0.0063476562,       70.4498291016,       54.1229248047,      329.4219970703
1488916846.0476229191,1488916846.0499091148,        1.3354492188,        0.1660156250,        0.0063476562,       70.4498291016,       57.5103759766,      328.8574218750
1488916846.0501930714,1488916846.0524790287,        1.3354492188,        0.2587890625,       -0.0292968750,       76.8280029297,       57.5103759766,      328.8574218750
1488916846.0527629852,1488916846.0550560951,        1.4467773438,        0.2587890625,       -0.0292968750,       76.8280029297,       57.5103759766,      328.1707763672
1488916846.0553400517,1488916846.0576300621,        1.4467773438,        0.2587890625,       -0.0292968750,       80.9326171875,       60.6079101562,      328.1707763672
1488916846.0579140186,1488916846.0601971149,        1.4467773438,        0.2587890625,       -0.0292968750,       80.9326171875,       60.6079101562,      324.2645263672
1488916846.0604820251,1488916846.0627679825,        1.5717773438,        0.3876953125,       -0.0620117188,       82.7941894531,       65.0634765625,      326.4617919922
1488916846.0630519390,1488916846.0653800964,        1.5722656250,        0.3876953125,       -0.0620117188,       82.7941894531,       65.0634765625,      326.4617919922
1488916846.0657749176,1488916846.0680611134,        1.5722656250,        0.3876953125,       -0.0620117188,       81.8328857422,       69.7021484375,      323.0590820312
1488916846.0683479309,1488916846.0706360340,        1.5722656250,        0.3876953125,       -0.0620117188,       81.8328857422,       69.7021484375,      323.0590820312
1488916846.0709199905,1488916846.0732040405,        1.7119140625,        0.5209960938,       -0.1049804688,       80.0476074219,       74.3255615234,      319.5953369141
1488916846.0735020638,1488916846.0757849216,        1.7119140625,        0.5209960938,       -0.1049804688,       80.0476074219,       74.3255615234,      319.5953369141
1488916846.0760700703,1488916846.0783538818,        1.7119140625,        0.5209960938,       -0.1049804688,       79.7576904297,       77.6824951172,      314.8040771484
1488916846.0786380768,1488916846.0809230804,        1.7119140625,        0.5209960938,       -0.1049804688,       79.7576904297,       77.6824951172,      314.8040771484
1488916846.0812070370,1488916846.0836079121,        1.8144531250,        0.6572265625,       -0.2143554688,       80.9326171875,       80.2459716797,      306.5185546875
1488916846.0838930607,1488916846.0861840248,        1.8144531250,        0.6572265625,       -0.2143554688,       80.9326171875,       80.2459716797,      306.5185546875
1488916846.0864679813,1488916846.0887529850,        1.8144531250,        0.6572265625,       -0.2143554688,       82.8552246094,       82.2296142578,      294.5709228516
1488916846.0890369415,1488916846.0913250446,        1.8144531250,        0.6572265625,       -0.2143554688,       82.8552246094,       82.2296142578,      294.5709228516
1488916846.0916080475,1488916846.0939919949,        1.7163085938,        0.7861328125,       -0.3056640625,       83.5876464844,       83.0688476562,      279.8156738281
1488916846.0942790508,1488916846.0965631008,        1.7163085938,        0.7861328125,       -0.3056640625,       83.5876464844,       83.0688476562,      279.8156738281
1488916846.0968489647,1488916846.0991370678,        1.7163085938,        0.7861328125,       -0.3056640625,       83.5876464844,       81.4971923828,      263.1683349609
1488916846.0994219780,1488916846.1017060280,        1.7163085938,        0.7861328125,       -0.3056640625,       83.0841064453,       81.4971923828,      263.1683349609
1488916846.1019909382,1488916846.1042840481,        1.4843750000,        0.8422851562,       -0.4677734375,       83.0841064453,       76.8737792969,      244.9340820312
1488916846.1045689583,1488916846.1068570614,        1.4843750000,        0.8422851562,       -0.4677734375,       79.4525146484,       76.8737792969,      244.9340820312
1488916846.1071400642,1488916846.1094288826,        1.4843750000,        0.8422851562,       -0.4677734375,       79.4525146484,       76.8737792969,      226.5777587891
1488916846.1097130775,1488916846.1119990349,        1.4843750000,        0.8422851562,       -0.4677734375,       70.4803466797,       70.0073242188,      226.5777587891
1488916846.1122829914,1488916846.1146979332,        1.2119140625,        0.9941406250,       -0.5854492188,       70.4803466797,       70.0073242188,      210.4034423828
1488916846.1149899960,1488916846.1174070835,        1.2119140625,        0.9941406250,       -0.5854492188,       51.3305664062,       62.9272460938,      210.4034423828
1488916846.1177000999,1488916846.1201159954,        1.2119140625,        0.9941406250,       -0.5854492188,       51.3305664062,       62.9272460938,      194.7784423828
1488916846.1204080582,1488916846.1228220463,        1.2119140625,        1.3691406250,       -0.5981445312,       24.8413085938,       55.1300048828,      193.8629150391
1488916846.1231119633,1488916846.1255409718,        0.9311523438,        1.2539062500,       -0.5981445312,       24.8413085938,       55.1300048828,      178.2379150391
1488916846.1258320808,1488916846.1282439232,        0.9311523438,        1.2539062500,       -0.5981445312,       -0.5035400391,       45.1507568359,      176.5899658203
1488916846.1286339760,1488916846.1310501099,        0.9311523438,        1.2539062500,       -0.5981445312,       -0.5035400391,       45.1507568359,      156.7993164062
1488916846.1313390732,1488916846.1337668896,        0.7836914062,        1.5786132812,       -0.5253906250,      -22.3388671875,       35.2020263672,      156.7993164062
1488916846.1340599060,1488916846.1364738941,        0.7836914062,        1.5786132812,       -0.5253906250,      -22.3388671875,       35.2020263672,      131.7138671875
1488916846.1367640495,1488916846.1391749382,        0.7836914062,        1.5786132812,       -0.5253906250,      -39.3676757812,       27.4658203125,      131.7138671875
1488916846.1394650936,1488916846.1418809891,        0.7836914062,        1.5786132812,       -0.5253906250,      -39.3676757812,       27.4658203125,      100.4638671875
1488916846.1421730518,1488916846.1446011066,        0.7148437500,        1.7968750000,       -0.3452148438,      -47.6226806641,       21.8353271484,      100.0061035156
1488916846.1448929310,1488916846.1473100185,        0.7148437500,        1.7968750000,       -0.3452148438,      -47.6226806641,       21.8353271484,       60.9436035156
1488916846.1476039886,1488916846.1500890255,        0.7148437500,        1.7968750000,       -0.3452148438,      -47.9583740234,       18.7072753906,       59.5397949219
1488916846.1503810883,1488916846.1528060436,        0.7148437500,        1.7968750000,       -0.2724609375,      -47.9583740234,       18.7072753906,       22.2625732422
1488916846.1530981064,1488916846.1554260254,        0.7402343750,        1.6352539062,       -0.2724609375,      -40.6341552734,       17.5018310547,       22.2625732422
1488916846.1557109356,1488916846.1579949856,        0.7402343750,        1.6352539062,       -0.2724609375,      -40.6341552734,       17.5018310547,       22.2625732422
1488916846.1582770348,1488916846.1605679989,        0.7402343750,        1.6352539062,       -0.2724609375,      -29.4342041016,       17.5323486328,      -14.0380859375
1488916846.1608519554,1488916846.1631519794,        0.7402343750,        1.1352539062,       -0.3583984375,      -29.4342041016,       17.5323486328,      -14.0380859375
1488916846.1634690762,1488916846.1658790112,        0.8120117188,        1.2016601562,       -0.3583984375,      -15.5944824219,       16.4031982422,      -38.3758544922
1488916846.1661710739,1488916846.1685900688,        0.8120117188,        1.2016601562,       -0.3583984375,      -15.5944824219,       16.4031982422,      -38.3758544922
1488916846.1688790321,1488916846.1712939739,        0.8120117188,        1.2016601562,       -0.3583984375,       -2.7465820312,       12.8936767578,      -59.8754882812
1488916846.1715810299,1488916846.1739990711,        0.7075195312,        0.9375000000,       -0.4560546875,       -2.7465820312,       12.8936767578,      -59.8754882812
1488916846.1742858887,1488916846.1767020226,        0.7075195312,        0.9375000000,       -0.4560546875,        8.9874267578,        7.7514648438,      -83.5723876953
1488916846.1769869328,1488916846.1793999672,        0.7075195312,        0.9375000000,       -0.4560546875,        8.9874267578,        7.7514648438,      -83.5723876953
1488916846.1796839237,1488916846.1820940971,        0.7075195312,        0.9375000000,       -0.4560546875,       17.1813964844,        2.7008056641,     -106.3079833984
1488916846.1823840141,1488916846.1847360134,        0.5483398438,        0.9213867188,       -0.5185546875,       17.1813964844,        2.7008056641,     -106.3079833984
1488916846.1850171089,1488916846.1873059273,        0.5483398438,        0.9213867188,       -0.5185546875,       20.5688476562,       -3.1890869141,     -124.1149902344
1488916846.1875870228,1488916846.1898770332,        0.5483398438,        0.9213867188,       -0.5185546875,       20.5688476562,       -3.1890869141,     -124.1149902344
1488916846.1901590824,1488916846.1924479008,        0.5483398438,        0.9213867188,       -0.5185546875,       18.7988281250,       -6.6528320312,     -134.8419189453
1488916846.1927289963,1488916846.1951200962,        0.6699218750,        0.8164062500,       -0.5444335938,       18.7988281250,       -6.6528320312,     -134.8419189453
1488916846.1955149174,1488916846.1978108883,        0.6699218750,        0.8164062500,       -0.5444335938,       13.8702392578,       -5.9051513672,     -150.2685546875
1488916846.1980919838,1488916846.2003850937,        0.6699218750,        0.8164062500,       -0.5444335938,       13.8702392578,       -5.9051513672,     -150.2685546875
1488916846.2006649971,1488916846.2029550076,        0.6699218750,        0.8164062500,       -0.5444335938,      -18.3258056641,      -14.8315429688,     -156.9519042969
1488916846.2032399178,1488916846.2057960033,        0.7099609375,        0.2255859375,       -0.6616210938,      -18.3258056641,      -14.8315429688,     -156.9519042969
1488916846.2060890198,1488916846.2085020542,        0.7099609375,        0.2255859375,       -0.6616210938,      -35.3546142578,      -25.2990722656,     -122.5891113281
1488916846.2087929249,1488916846.2112119198,        0.7099609375,        0.2255859375,       -0.6616210938,      -35.3546142578,      -25.2990722656,     -122.5891113281
1488916846.2115039825,1488916846.2139329910,        0.7099609375,       -0.7329101562,       -0.1049804688,      -27.2674560547,      -13.7939453125,     -115.7989501953
1488916846.2142269611,1488916846.2166409492,        1.1142578125,       -0.7329101562,       -0.1049804688,      -27.2674560547,      -13.7939453125,     -115.7989501953
1488916846.2169320583,1488916846.2193500996,        1.1142578125,       -0.7329101562,       -0.1049804688,       -3.2958984375,      -16.5405273438,     -130.7525634766
1488916846.2196419239,1488916846.2220571041,        1.1142578125,       -0.7329101562,       -0.1049804688,       -3.2958984375,      -16.5405273438,     -130.7525634766
1488916846.2223451138,1488916846.2247641087,        0.9638671875,       -0.5839843750,       -0.0390625000,        9.1552734375,      -27.2674560547,     -146.5606689453
1488916846.2250540257,1488916846.2274720669,        0.9638671875,       -0.5839843750,       -0.0390625000,        9.1552734375,      -27.2674560547,     -146.5606689453
1488916846.2277610302,1488916846.2301731110,        0.9638671875,       -0.5839843750,       -0.0390625000,       30.2734375000,      -39.9169921875,     -151.1230468750
1488916846.2304649353,1488916846.2328839302,        0.9638671875,       -0.5839843750,       -0.0390625000,       30.2734375000,      -39.9169921875,     -151.1230468750
1488916846.2331769466,1488916846.2355880737,        0.9492187500,        0.0727539062,       -0.2260742188,       48.3093261719,      -50.2471923828,     -148.4985351562
1488916846.2358798981,1488916846.2382929325,        0.9492187500,        0.0727539062,       -0.2260742188,       48.3093261719,      -50.2471923828,     -148.4985351562
1488916846.2385849953,1488916846.2409999371,        0.9492187500,        0.0727539062,       -0.2260742188,       62.9425048828,      -57.5408935547,     -141.8151855469
1488916846.2412910461,1488916846.2437019348,        0.9492187500,        0.0727539062,       -0.1997070312,       62.9425048828,      -57.5408935547,     -141.8151855469
1488916846.2439870834,1488916846.2462780476,        1.0078125000,        0.1303710938,       -0.1997070312,       76.6296386719,      -55.7708740234,     -140.3198242188
1488916846.2465629578,1488916846.2488560677,        1.0078125000,        0.1303710938,       -0.1997070312,       76.6296386719,      -55.7708740234,     -140.3198242188
1488916846.2491428852,1488916846.2514269352,        1.0078125000,        0.1303710938,       -0.1997070312,       72.7233886719,      -49.1638183594,     -141.3421630859
1488916846.2517108917,1488916846.2540841103,        1.0078125000,        0.0053710938,       -0.0454101562,       71.1059570312,      -49.1638183594,     -141.3421630859
1488916846.2543759346,1488916846.2567889690,        1.0449218750,        0.0532226562,       -0.0454101562,       71.1059570312,      -49.4079589844,     -144.3786621094
1488916846.2570800781,1488916846.2595009804,        1.0449218750,        0.0532226562,       -0.0454101562,       50.0946044922,      -49.4079589844,     -144.3786621094
1488916846.2599000931,1488916846.2623150349,        1.0449218750,        0.0532226562,       -0.0454101562,       50.0946044922,      -50.6286621094,     -146.0876464844
1488916846.2626059055,1488916846.2650620937,        0.8227539062,        0.3422851562,        0.0522460938,       32.4249267578,      -50.6286621094,     -146.0876464844
1488916846.2653539181,1488916846.2677669525,        0.8227539062,        0.3422851562,        0.0522460938,       24.6124267578,      -49.4689941406,     -143.4478759766
1488916846.2680599689,1488916846.2704820633,        0.8227539062,        0.3422851562,        0.0522460938,       23.9868164062,      -49.4689941406,     -143.4478759766
1488916846.2707729340,1488916846.2731881142,        0.8227539062,        0.3422851562,        0.0522460938,       23.9868164062,      -52.2918701172,     -135.2233886719
1488916846.2734880447,1488916846.2759079933,        0.6943359375,        0.2382812500,       -0.0991210938,       23.2086181641,      -52.2918701172,     -135.2233886719
1488916846.2762010098,1488916846.2786140442,        0.6943359375,        0.2382812500,       -0.0991210938,       23.2086181641,      -56.5032958984,     -126.9836425781
1488916846.2789080143,1488916846.2813179493,        0.6943359375,        0.2382812500,       -0.0991210938,       24.3225097656,      -56.5032958984,     -126.9836425781
1488916846.2816119194,1488916846.2840740681,        0.6943359375,        0.2382812500,       -0.1586914062,       24.3225097656,      -57.6019287109,     -121.1700439453
1488916846.2843658924,1488916846.2867801189,        0.6206054688,       -0.0571289062,       -0.1586914062,       28.3660888672,      -57.6019287109,     -121.1700439453
1488916846.2870719433,1488916846.2894809246,        0.6206054688,       -0.0571289062,       -0.1586914062,       28.3660888672,      -55.3588867188,     -109.2376708984
1488916846.2897720337,1488916846.2921950817,        0.6206054688,       -0.0571289062,       -0.1586914062,       35.5377197266,      -55.3588867188,     -109.2376708984
1488916846.2924880981,1488916846.2948420048,        0.7456054688,        0.1557617188,       -0.3549804688,       35.5377197266,      -52.7648925781,     -100.0518798828
1488916846.2951269150,1488916846.2974259853,        0.6918945312,        0.1557617188,       -0.3549804688,       47.6989746094,      -52.7648925781,     -100.0518798828
1488916846.2977108955,1488916846.3000020981,        0.6918945312,        0.1557617188,       -0.3549804688,       47.6989746094,      -52.7648925781,     -104.2938232422
1488916846.3002860546,1488916846.3025760651,        0.6918945312,        0.1557617188,       -0.3549804688,       50.2624511719,      -45.1965332031,     -104.2938232422
1488916846.3028600216,1488916846.3052940369,        0.8666992188,        0.5029296875,       -0.1582031250,       50.2624511719,      -45.1965332031,     -101.6693115234
1488916846.3055860996,1488916846.3080029488,        0.8666992188,        0.5029296875,       -0.1582031250,       27.9235839844,      -39.2608642578,     -101.6693115234
1488916846.3082940578,1488916846.3107030392,        0.8666992188,        0.5029296875,       -0.1582031250,       27.9235839844,      -39.2608642578,      -90.1794433594
1488916846.3109951019,1488916846.3134560585,        0.8666992188,        0.5029296875,       -0.1582031250,       11.3830566406,      -42.9992675781,      -90.1794433594
1488916846.3137469292,1488916846.3161649704,        0.7641601562,        0.1899414062,       -0.0947265625,       11.3830566406,      -42.9992675781,      -86.0137939453
1488916846.3164560795,1488916846.3188679218,        0.7641601562,        0.1899414062,       -0.0947265625,       11.9628906250,      -43.4112548828,      -86.0137939453
1488916846.3191599846,1488916846.3215739727,        0.7641601562,        0.1899414062,       -0.0947265625,       11.9628906250,      -43.4112548828,      -86.1358642578
1488916846.3218660355,1488916846.3242859840,        0.7641601562,        0.1899414062,       -0.1044921875,       15.1519775391,      -41.0919189453,      -86.1358642578
1488916846.3246839046,1488916846.3271050453,        0.7446289062,        0.0830078125,       -0.1044921875,       15.1519775391,      -41.0919189453,      -84.9456787109
1488916846.3273980618,1488916846.3298149109,        0.7446289062,        0.0830078125,       -0.1044921875,       17.5018310547,      -40.0848388672,      -84.9456787109
1488916846.3301079273,1488916846.3325150013,        0.7446289062,        0.0830078125,       -0.1044921875,       17.5018310547,      -40.0848388672,      -80.2001953125
1488916846.3328080177,1488916846.3352799416,        0.6196289062,        0.0869140625,       -0.1323242188,       16.6625976562,      -39.2913818359,      -80.2001953125
1488916846.3355720043,1488916846.3379828930,        0.6240234375,        0.0869140625,       -0.1323242188,       16.6625976562,      -39.2913818359,      -73.2574462891
1488916846.3382771015,1488916846.3406960964,        0.6240234375,        0.0869140625,       -0.1323242188,       13.8854980469,      -37.1398925781,      -73.2574462891
1488916846.3409900665,1488916846.3434040546,        0.6240234375,        0.0869140625,       -0.1323242188,       13.8854980469,      -37.1398925781,      -66.6198730469
1488916846.3437368870,1488916846.3460309505,        0.5878906250,        0.0708007812,       -0.1259765625,        9.5672607422,      -35.1409912109,      -66.6198730469
1488916846.3463129997,1488916846.3486139774,        0.5878906250,        0.0708007812,       -0.1259765625,        9.5672607422,      -35.1409912109,      -58.8073730469
1488916846.3488960266,1488916846.3511869907,        0.5878906250,        0.0708007812,       -0.1259765625,        3.0822753906,      -34.3017578125,      -60.8673095703
1488916846.3514680862,1488916846.3537840843,        0.5878906250,        0.0708007812,       -0.1259765625,        3.0822753906,      -34.3017578125,      -60.8673095703
1488916846.3540720940,1488916846.3564889431,        0.6386718750,        0.0776367188,       -0.1123046875,       -3.8604736328,      -32.7911376953,      -55.6640625000
1488916846.3567800522,1488916846.3591890335,        0.6386718750,        0.0776367188,       -0.1123046875,       -3.8604736328,      -32.7911376953,      -55.6640625000
1488916846.3594779968,1488916846.3618950844,        0.6386718750,        0.0776367188,       -0.1123046875,       -9.7045898438,      -30.7617187500,      -50.2471923828
1488916846.3621840477,1488916846.3646008968,        0.6386718750,        0.0776367188,       -0.1123046875,       -9.7045898438,      -30.7617187500,      -50.2471923828
1488916846.3648910522,1488916846.3673028946,        0.6528320312,        0.0991210938,       -0.1005859375,      -15.4571533203,      -29.6783447266,      -44.5709228516
1488916846.3675971031,1488916846.3700139523,        0.6528320312,        0.0991210938,       -0.1005859375,      -15.4571533203,      -29.6783447266,      -44.5709228516
1488916846.3703079224,1488916846.3727200031,        0.6528320312,        0.0991210938,       -0.1005859375,      -21.8658447266,      -28.1982421875,      -38.6047363281
1488916846.3730139732,1488916846.3754699230,        0.6528320312,        0.0600585938,       -0.1123046875,      -21.8658447266,      -28.1982421875,      -38.6047363281
1488916846.3757619858,1488916846.3781828880,        0.6445312500,        0.0600585938,       -0.1123046875,      -26.4739990234,      -27.0385742188,      -33.8439941406
1488916846.3784759045,1488916846.3808820248,        0.6445312500,        0.0600585938,       -0.1123046875,      -26.4739990234,      -27.0385742188,      -33.8439941406
1488916846.3811728954,1488916846.3835918903,        0.6445312500,        0.0600585938,       -0.1123046875,      -30.5328369141,      -26.1383056641,      -30.6396484375
1488916846.3838839531,1488916846.3862988949,        0.6435546875,        0.0209960938,       -0.0966796875,      -30.5328369141,      -26.1383056641,      -30.6396484375
1488916846.3865919113,1488916846.3890070915,        0.6435546875,        0.0209960938,       -0.0966796875,      -31.6772460938,      -25.1922607422,      -28.2592773438
1488916846.3894050121,1488916846.3918249607,        0.6435546875,        0.0209960938,       -0.0966796875,      -31.6772460938,      -25.1922607422,      -28.2592773438
1488916846.3921160698,1488916846.3944919109,        0.6435546875,        0.0209960938,       -0.0966796875,      -31.0668945312,      -24.9328613281,      -26.2908935547
1488916846.3947770596,1488916846.3970680237,        0.6352539062,        0.0327148438,       -0.0991210938,      -31.0668945312,      -24.9328613281,      -26.2908935547
1488916846.3973519802,1488916846.3996469975,        0.6352539062,        0.0327148438,       -0.0991210938,      -28.9154052734,      -25.1007080078,      -24.8413085938
1488916846.3999309540,1488916846.4022231102,        0.6352539062,        0.0327148438,       -0.0991210938,      -28.9154052734,      -25.1007080078,      -24.8413085938
1488916846.4025070667,1488916846.4049201012,        0.6352539062,        0.0327148438,       -0.0991210938,      -26.7181396484,      -24.8718261719,      -23.5137939453
1488916846.4052119255,1488916846.4076280594,        0.6342773438,        0.0126953125,       -0.0693359375,      -26.7181396484,      -24.8718261719,      -23.5137939453
1488916846.4079189301,1488916846.4103319645,        0.6342773438,        0.0126953125,       -0.0693359375,      -24.0936279297,      -25.2227783203,      -22.5982666016
1488916846.4106218815,1488916846.4130399227,        0.6342773438,        0.0126953125,       -0.0693359375,      -24.0936279297,      -25.2227783203,      -22.5982666016
1488916846.4133329391,1488916846.4157559872,        0.6342773438,        0.0097656250,       -0.0913085938,      -21.1029052734,      -25.6805419922,      -22.6898193359
1488916846.4160490036,1488916846.4184610844,        0.6416015625,        0.0097656250,       -0.0913085938,      -21.1029052734,      -25.6805419922,      -22.6898193359
1488916846.4187550545,1488916846.4211750031,        0.6416015625,        0.0097656250,       -0.0913085938,      -18.3715820312,      -24.8260498047,      -23.1323242188
1488916846.4214699268,1488916846.4238970280,        0.6416015625,        0.0097656250,       -0.0913085938,      -18.3715820312,      -24.8260498047,      -23.1323242188
1488916846.4241909981,1488916846.4266090393,        0.6372070312,        0.0166015625,       -0.1083984375,      -16.0064697266,      -23.5595703125,      -23.1475830078
1488916846.4268999100,1488916846.4293129444,        0.6372070312,        0.0166015625,       -0.1083984375,      -16.0064697266,      -23.5595703125,      -23.1475830078
1488916846.4296059608,1488916846.4320158958,        0.6372070312,        0.0166015625,       -0.1083984375,      -15.6402587891,      -22.7661132812,      -22.2320556641
1488916846.4323101044,1488916846.4347360134,        0.6372070312,        0.0166015625,       -0.1083984375,      -15.6402587891,      -22.7661132812,      -22.2320556641
1488916846.4350290298,1488916846.4374420643,        0.6333007812,        0.0180664062,       -0.1093750000,      -17.2729492188,      -21.2249755859,      -20.7214355469
1488916846.4377360344,1488916846.4401459694,        0.6333007812,        0.0180664062,       -0.1093750000,      -17.2729492188,      -21.2249755859,      -20.7214355469
1488916846.4404399395,1488916846.4428598881,        0.6333007812,        0.0180664062,       -0.1093750000,      -19.2871093750,      -21.0113525391,      -19.3939208984
1488916846.4431540966,1488916846.4454700947,        0.6333007812,        0.0180664062,       -0.1108398438,      -19.2871093750,      -21.0113525391,      -19.3939208984
1488916846.4457569122,1488916846.4480550289,        0.6235351562,        0.0302734375,       -0.1108398438,      -21.5759277344,      -21.4080810547,      -18.0969238281
1488916846.4483420849,1488916846.4506309032,        0.6235351562,        0.0302734375,       -0.1108398438,      -21.5759277344,      -21.4080810547,      -18.0969238281
1488916846.4509170055,1488916846.4532060623,        0.6235351562,        0.0302734375,       -0.1108398438,      -23.2696533203,      -20.8435058594,      -16.6473388672
1488916846.4536039829,1488916846.4560279846,        0.6235351562,        0.0283203125,       -0.1044921875,      -23.2696533203,      -20.8435058594,      -16.6473388672
1488916846.4563200474,1488916846.4587299824,        0.6289062500,        0.0283203125,       -0.1044921875,      -26.0314941406,      -20.6909179688,      -15.7623291016
1488916846.4590220451,1488916846.4614338875,        0.6289062500,        0.0283203125,       -0.1044921875,      -26.0314941406,      -20.6909179688,      -15.7623291016
1488916846.4617280960,1488916846.4641549587,        0.6289062500,        0.0283203125,       -0.1044921875,      -29.1748046875,      -20.2484130859,      -15.4418945312
1488916846.4644498825,1488916846.4668660164,        0.6474609375,        0.0156250000,       -0.1220703125,      -29.1748046875,      -20.2484130859,      -15.4418945312
1488916846.4671580791,1488916846.4695711136,        0.6474609375,        0.0156250000,       -0.1220703125,      -32.8521728516,      -18.9666748047,      -15.3198242188
1488916846.4698638916,1488916846.4722781181,        0.6474609375,        0.0156250000,       -0.1220703125,      -32.8521728516,      -18.9666748047,      -15.3198242188
1488916846.4725699425,1488916846.4749860764,        0.6474609375,        0.0156250000,       -0.1220703125,      -35.8276367188,      -18.1884765625,      -15.3808593750
1488916846.4752779007,1488916846.4776959419,        0.6362304688,        0.0190429688,       -0.1166992188,      -35.8276367188,      -18.1884765625,      -15.3808593750
1488916846.4779899120,1488916846.4804000854,        0.6362304688,        0.0190429688,       -0.1166992188,      -37.0025634766,      -18.5241699219,      -15.7470703125
1488916846.4806919098,1488916846.4831089973,        0.6362304688,        0.0190429688,       -0.1166992188,      -37.0025634766,      -18.5241699219,      -15.7470703125
1488916846.4834029675,1488916846.4857389927,        0.6362304688,        0.0190429688,       -0.1025390625,      -35.8123779297,      -19.1955566406,      -16.7236328125
1488916846.4860239029,1488916846.4883129597,        0.6376953125,        0.0126953125,       -0.1025390625,      -35.8123779297,      -19.1955566406,      -16.7236328125
1488916846.4885959625,1488916846.4908969402,        0.6376953125,        0.0126953125,       -0.1025390625,      -31.9061279297,      -19.0734863281,      -17.8985595703
1488916846.4911799431,1488916846.4935059547,        0.6376953125,        0.0126953125,       -0.1025390625,      -34.7290039062,      -19.0734863281,      -17.8985595703
1488916846.4937989712,1488916846.4962129593,        0.6376953125,        0.0126953125,       -0.1030273438,      -34.7290039062,      -19.0734863281,      -19.3328857422
1488916846.4965040684,1488916846.4989271164,        0.6298828125,        0.0063476562,       -0.1030273438,      -34.4543457031,      -19.2260742188,      -19.3328857422
1488916846.4992220402,1488916846.5016698837,        0.6298828125,        0.0063476562,       -0.1030273438,      -34.4543457031,      -19.2260742188,      -21.1944580078
1488916846.5019650459,1488916846.5043880939,        0.6298828125,        0.0063476562,       -0.1030273438,      -34.0118408203,      -19.2260742188,      -21.1944580078
1488916846.5046820641,1488916846.5070970058,        0.6420898438,       -0.0029296875,       -0.1127929688,      -34.0118408203,      -19.2260742188,      -23.6358642578
1488916846.5073900223,1488916846.5098059177,        0.6420898438,       -0.0029296875,       -0.1127929688,      -33.2183837891,      -18.7377929688,      -23.6358642578
1488916846.5100989342,1488916846.5125188828,        0.6420898438,       -0.0029296875,       -0.1127929688,      -33.2183837891,      -18.7377929688,      -25.5737304688
1488916846.5128140450,1488916846.5152699947,        0.6420898438,       -0.0029296875,       -0.1127929688,      -31.6314697266,      -18.5241699219,      -25.5737304688
1488916846.5155620575,1488916846.5179769993,        0.6440429688,       -0.0014648438,       -0.1162109375,      -31.6314697266,      -18.5241699219,      -27.5115966797
1488916846.5183770657,1488916846.5207979679,        0.6440429688,       -0.0014648438,       -0.1162109375,      -30.4565429688,      -19.0124511719,      -27.5115966797
1488916846.5210919380,1488916846.5235149860,        0.6440429688,       -0.0014648438,       -0.1162109375,      -30.4565429688,      -19.2565917969,      -29.4647216797
1488916846.5238080025,1488916846.5262238979,        0.6440429688,       -0.0014648438,       -0.1381835938,      -30.5175781250,      -19.2565917969,      -29.4647216797
1488916846.5265159607,1488916846.5289289951,        0.6450195312,        0.0039062500,       -0.1381835938,      -30.5175781250,      -19.1040039062,      -30.6396484375
1488916846.5292210579,1488916846.5316369534,        0.6450195312,        0.0039062500,       -0.1381835938,      -32.2570800781,      -19.1040039062,      -30.6396484375
1488916846.5319290161,1488916846.5343220234,        0.6450195312,        0.0039062500,       -0.1381835938,      -32.2570800781,      -18.7683105469,      -31.8603515625
1488916846.5346069336,1488916846.5368990898,        0.6450195312,        0.0214843750,       -0.1352539062,      -34.0270996094,      -18.7683105469,      -31.8603515625
1488916846.5371840000,1488916846.5394771099,        0.6372070312,        0.0214843750,       -0.1352539062,      -34.0270996094,      -18.7683105469,      -33.7982177734
1488916846.5397601128,1488916846.5420548916,        0.6372070312,        0.0214843750,       -0.1352539062,      -34.5916748047,      -18.6309814453,      -33.7982177734
1488916846.5423419476,1488916846.5447258949,        0.6372070312,        0.0214843750,       -0.1352539062,      -34.5916748047,      -18.6309814453,      -35.5377197266
1488916846.5450179577,1488916846.5474319458,        0.6328125000,        0.0317382812,       -0.1372070312,      -34.1186523438,      -18.0206298828,      -35.5377197266
1488916846.5477249622,1488916846.5501420498,        0.6328125000,        0.0317382812,       -0.1372070312,      -34.1186523438,      -18.0206298828,      -35.5377197266
1488916846.5504341125,1488916846.5528459549,        0.6328125000,        0.0317382812,       -0.1372070312,      -35.3698730469,      -18.0206298828,      -36.4379882812
1488916846.5531380177,1488916846.5555651188,        0.6328125000,        0.0317382812,       -0.1372070312,      -35.3698730469,      -18.0206298828,      -36.4379882812
1488916846.5558578968,1488916846.5582718849,        0.6279296875,        0.0375976562,       -0.1401367188,      -37.7349853516,      -18.3258056641,      -37.7349853516
1488916846.5585639477,1488916846.5609800816,        0.6279296875,        0.0375976562,       -0.1401367188,      -37.7349853516,      -18.3258056641,      -37.7349853516
1488916846.5612719059,1488916846.5637049675,        0.6279296875,        0.0375976562,       -0.1401367188,      -40.3900146484,      -17.3950195312,      -38.7420654297
1488916846.5639970303,1488916846.5664091110,        0.6279296875,        0.0375976562,       -0.1367187500,      -40.3900146484,      -17.3950195312,      -42.6483154297
1488916846.5667018890,1488916846.5691161156,        0.6274414062,        0.0292968750,       -0.1367187500,      -37.7960205078,      -16.5405273438,      -40.4663085938
1488916846.5694100857,1488916846.5718319416,        0.6274414062,        0.0292968750,       -0.1367187500,      -37.7960205078,      -16.5405273438,      -44.3725585938
1488916846.5721249580,1488916846.5745549202,        0.6274414062,        0.0292968750,       -0.1367187500,      -35.2020263672,      -16.7083740234,      -44.1741943359
1488916846.5748469830,1488916846.5772659779,        0.6274414062,        0.0424804688,       -0.1518554688,      -35.2020263672,      -16.7083740234,      -48.0804443359
1488916846.5775589943,1488916846.5799720287,        0.6357421875,        0.0424804688,       -0.1518554688,      -32.4401855469,      -17.1051025391,      -47.4853515625
1488916846.5802640915,1488916846.5826759338,        0.6357421875,        0.0424804688,       -0.1518554688,      -32.4401855469,      -17.1051025391,      -47.4853515625
1488916846.5830750465,1488916846.5854070187,        0.6357421875,        0.0424804688,       -0.1518554688,      -29.8156738281,      -18.3563232422,      -49.5147705078
1488916846.5856928825,1488916846.5879840851,        0.6450195312,        0.0473632812,       -0.1425781250,      -29.8156738281,      -18.3563232422,      -49.5147705078
1488916846.5882689953,1488916846.5905570984,        0.6450195312,        0.0473632812,       -0.1425781250,      -28.8543701172,      -17.7307128906,      -49.8962402344
1488916846.5908410549,1488916846.5931360722,        0.6450195312,        0.0473632812,       -0.1425781250,      -28.8543701172,      -17.7307128906,      -49.8962402344
1488916846.5934720039,1488916846.5958518982,        0.6450195312,        0.0473632812,       -0.1425781250,      -27.5115966797,      -16.4184570312,      -51.2237548828
1488916846.5961420536,1488916846.5985279083,        0.6333007812,        0.0473632812,       -0.1401367188,      -27.5115966797,      -16.4184570312,      -51.2237548828
1488916846.5988190174,1488916846.6012001038,        0.6333007812,        0.0473632812,       -0.1401367188,      -24.9023437500,      -15.9454345703,      -52.8411865234
1488916846.6014959812,1488916846.6039209366,        0.6333007812,        0.0473632812,       -0.1401367188,      -24.9023437500,      -15.9454345703,      -52.8411865234
1488916846.6042160988,1488916846.6066319942,        0.6333007812,        0.0473632812,       -0.1401367188,      -21.2707519531,      -15.2740478516,      -54.9163818359
1488916846.6069231033,1488916846.6093349457,        0.6459960938,        0.0336914062,       -0.1577148438,      -21.2707519531,      -15.2740478516,      -54.9163818359
1488916846.6096270084,1488916846.6120409966,        0.6459960938,        0.0336914062,       -0.1577148438,      -18.7225341797,      -14.5874023438,      -57.4951171875
1488916846.6123330593,1488916846.6147620678,        0.6459960938,        0.0336914062,       -0.1577148438,      -18.7225341797,      -14.5874023438,      -57.4951171875
1488916846.6150519848,1488916846.6174659729,        0.6459960938,        0.0664062500,       -0.1684570312,      -18.0969238281,      -13.7481689453,      -59.1888427734
1488916846.6177589893,1488916846.6201779842,        0.6318359375,        0.0664062500,       -0.1684570312,      -18.0969238281,      -13.7481689453,      -59.1888427734
1488916846.6204700470,1488916846.6228818893,        0.6318359375,        0.0664062500,       -0.1684570312,      -18.2342529297,      -13.2904052734,      -60.7147216797
1488916846.6231770515,1488916846.6254749298,        0.6318359375,        0.0664062500,       -0.1684570312,      -18.2342529297,      -13.2904052734,      -60.7147216797
1488916846.6257619858,1488916846.6280550957,        0.6489257812,        0.0742187500,       -0.1606445312,      -18.8903808594,      -14.0533447266,      -61.5234375000
1488916846.6283390522,1488916846.6306309700,        0.6489257812,        0.0742187500,       -0.1606445312,      -18.8903808594,      -14.0533447266,      -61.5234375000
1488916846.6309149265,1488916846.6332020760,        0.6489257812,        0.0742187500,       -0.1606445312,      -19.9737548828,      -14.5721435547,      -62.3321533203
1488916846.6334879398,1488916846.6359069347,        0.6489257812,        0.0742187500,       -0.1606445312,      -19.9737548828,      -14.5721435547,      -62.3321533203
1488916846.6361989975,1488916846.6386129856,        0.6547851562,        0.1137695312,       -0.1406250000,      -20.6604003906,      -16.1132812500,      -62.6983642578
1488916846.6389069557,1488916846.6413280964,        0.6547851562,        0.1137695312,       -0.1406250000,      -20.6604003906,      -16.1132812500,      -62.6983642578
1488916846.6416211128,1488916846.6440770626,        0.6547851562,        0.1137695312,       -0.1406250000,      -21.2402343750,      -17.7154541016,      -63.7359619141
1488916846.6443688869,1488916846.6467831135,        0.6547851562,        0.1137695312,       -0.1406250000,      -21.2402343750,      -17.7154541016,      -63.7359619141
1488916846.6471889019,1488916846.6496109962,        0.6318359375,        0.1230468750,       -0.1372070312,      -22.8576660156,      -19.7296142578,      -63.7512207031
1488916846.6499049664,1488916846.6523160934,        0.6318359375,        0.1230468750,       -0.1372070312,      -22.8576660156,      -19.7296142578,      -63.7512207031
1488916846.6526079178,1488916846.6550629139,        0.6318359375,        0.1230468750,       -0.1372070312,      -25.1464843750,      -20.4772949219,      -61.3098144531
1488916846.6553540230,1488916846.6577720642,        0.6318359375,        0.1113281250,       -0.1132812500,      -25.1464843750,      -20.4772949219,      -61.3098144531
1488916846.6580638885,1488916846.6604819298,        0.7011718750,        0.1113281250,       -0.1132812500,      -24.8565673828,      -19.6838378906,      -60.3332519531
1488916846.6607739925,1488916846.6631970406,        0.7011718750,        0.1113281250,       -0.1132812500,      -24.8565673828,      -19.6838378906,      -60.3332519531
1488916846.6634991169,1488916846.6657838821,        0.7011718750,        0.1113281250,       -0.1132812500,      -22.0184326172,      -17.8222656250,      -60.0891113281
1488916846.6660699844,1488916846.6683590412,        0.7333984375,        0.0688476562,       -0.1093750000,      -22.0184326172,      -17.8222656250,      -60.0891113281
1488916846.6686439514,1488916846.6709380150,        0.7333984375,        0.0688476562,       -0.1093750000,      -19.0124511719,      -15.2587890625,      -59.3566894531
1488916846.6712229252,1488916846.6735339165,        0.7333984375,        0.0688476562,       -0.1093750000,      -19.0124511719,      -15.2587890625,      -59.3566894531
1488916846.6738259792,1488916846.6762270927,        0.7333984375,        0.0688476562,       -0.1093750000,      -17.5170898438,      -15.0146484375,      -60.8825683594
1488916846.6765179634,1488916846.6789219379,        0.6850585938,        0.1259765625,       -0.1621093750,      -17.5170898438,      -15.0146484375,      -60.8825683594
1488916846.6792120934,1488916846.6816129684,        0.6850585938,        0.1259765625,       -0.1621093750,      -17.5170898438,      -16.0217285156,      -60.5773925781
1488916846.6819040775,1488916846.6843221188,        0.6850585938,        0.1259765625,       -0.1621093750,      -17.5628662109,      -16.0217285156,      -60.5773925781
1488916846.6846139431,1488916846.6870150566,        0.6850585938,        0.1259765625,       -0.1621093750,      -17.5628662109,      -16.2963867188,      -59.6618652344
1488916846.6873059273,1488916846.6897029877,        0.7265625000,        0.1162109375,       -0.1552734375,      -19.1345214844,      -16.2963867188,      -59.6618652344
1488916846.6899929047,1488916846.6923971176,        0.7265625000,        0.1162109375,       -0.1552734375,      -19.1345214844,      -16.0980224609,      -58.9752197266
1488916846.6926889420,1488916846.6950800419,        0.7265625000,        0.1162109375,       -0.1552734375,      -18.9056396484,      -16.0980224609,      -58.9752197266
1488916846.6953699589,1488916846.6977479458,        0.7265625000,        0.1162109375,       -0.1342773438,      -18.9056396484,      -15.0909423828,      -60.5010986328
1488916846.6980369091,1488916846.7004210949,        0.7333984375,        0.1083984375,       -0.1342773438,      -18.6920166016,      -15.0909423828,      -60.5010986328
1488916846.7007119656,1488916846.7031450272,        0.7333984375,        0.1083984375,       -0.1342773438,      -18.6920166016,      -15.0909423828,      -63.8580322266
1488916846.7034471035,1488916846.7058629990,        0.7333984375,        0.1083984375,       -0.1342773438,      -19.7296142578,      -15.0909423828,      -63.8580322266
1488916846.7061550617,1488916846.7085659504,        0.7456054688,        0.1269531250,       -0.1684570312,      -19.7296142578,      -16.1590576172,      -66.8487548828
1488916846.7088570595,1488916846.7112689018,        0.7456054688,        0.1269531250,       -0.1684570312,      -20.2178955078,      -16.1590576172,      -66.8487548828
1488916846.7116670609,1488916846.7140710354,        0.7456054688,        0.1269531250,       -0.1684570312,      -20.2178955078,      -17.2119140625,      -69.7479248047
1488916846.7143568993,1488916846.7166450024,        0.7456054688,        0.1269531250,       -0.1684570312,      -20.8129882812,      -17.2119140625,      -69.7479248047
1488916846.7169280052,1488916846.7192199230,        0.7700195312,        0.0952148438,       -0.2202148438,      -20.8129882812,      -17.2119140625,      -72.1282958984
1488916846.7195029259,1488916846.7217929363,        0.7700195312,        0.0952148438,       -0.2202148438,      -20.7977294922,      -18.6309814453,      -72.1282958984
1488916846.7220780849,1488916846.7244639397,        0.7700195312,        0.0952148438,       -0.2202148438,      -20.7977294922,      -18.6309814453,      -74.7528076172
1488916846.7247560024,1488916846.7271718979,        0.7700195312,        0.0952148438,       -0.2202148438,      -20.3552246094,      -19.3939208984,      -74.7528076172
1488916846.7274639606,1488916846.7298729420,        0.8007812500,        0.0551757812,       -0.1665039062,      -20.3552246094,      -19.3939208984,      -78.3843994141
1488916846.7301650047,1488916846.7325749397,        0.8007812500,        0.0551757812,       -0.1665039062,      -18.2342529297,      -18.6462402344,      -78.3843994141
1488916846.7328679562,1488916846.7352960110,        0.8007812500,        0.0551757812,       -0.1665039062,      -18.2342529297,      -18.6462402344,      -83.4808349609
1488916846.7355868816,1488916846.7379980087,        0.8007812500,        0.0551757812,       -0.1328125000,      -16.1437988281,      -18.0053710938,      -83.4808349609
1488916846.7382891178,1488916846.7407000065,        0.8154296875,        0.1054687500,       -0.1328125000,      -16.1437988281,      -18.0053710938,      -89.2181396484
1488916846.7409930229,1488916846.7434110641,        0.8154296875,        0.1054687500,       -0.1328125000,      -17.1356201172,      -18.1274414062,      -89.2181396484
1488916846.7437610626,1488916846.7461740971,        0.8154296875,        0.1054687500,       -0.1328125000,      -17.1356201172,      -18.1274414062,      -95.5047607422
1488916846.7464659214,1488916846.7488861084,        0.8593750000,        0.1166992188,       -0.0937500000,      -19.8669433594,      -17.8070068359,      -95.5047607422
1488916846.7491800785,1488916846.7515919209,        0.8593750000,        0.1166992188,       -0.0937500000,      -19.8669433594,      -17.8070068359,      -99.6551513672
1488916846.7518849373,1488916846.7542700768,        0.8593750000,        0.1166992188,       -0.0937500000,      -24.3682861328,      -16.2353515625,      -99.6551513672
1488916846.7545559406,1488916846.7568459511,        0.8593750000,        0.1166992188,       -0.0937500000,      -24.3682861328,      -16.2353515625,     -103.5614013672
1488916846.7571320534,1488916846.7594280243,        0.9257812500,        0.0952148438,       -0.0581054688,      -27.9388427734,      -14.1448974609,     -103.5308837891
1488916846.7597119808,1488916846.7620019913,        0.9257812500,        0.0952148438,       -0.0581054688,      -27.9388427734,      -14.1448974609,     -103.5308837891
1488916846.7622859478,1488916846.7646870613,        0.9257812500,        0.0952148438,       -0.0581054688,      -30.9600830078,      -12.3596191406,     -111.0992431641
1488916846.7649800777,1488916846.7673909664,        0.9257812500,        0.0952148438,       -0.0581054688,      -30.9600830078,      -12.3596191406,     -111.0992431641
1488916846.7676839828,1488916846.7701079845,        0.9907226562,        0.1313476562,       -0.0625000000,      -34.3780517578,      -10.9863281250,     -123.2299804688
1488916846.7703990936,1488916846.7728140354,        0.9907226562,        0.1313476562,       -0.0625000000,      -34.3780517578,      -10.9863281250,     -123.2299804688
1488916846.7731049061,1488916846.7755351067,        0.9907226562,        0.1313476562,       -0.0625000000,      -40.2374267578,       -9.8876953125,     -134.0179443359
1488916846.7759230137,1488916846.7783379555,        0.9907226562,        0.1313476562,       -0.0585937500,      -40.2374267578,       -9.8876953125,     -134.0179443359
1488916846.7786290646,1488916846.7810409069,        1.0307617188,        0.0595703125,       -0.0585937500,      -47.6837158203,       -8.8195800781,     -141.6168212891
1488916846.7813301086,1488916846.7837519646,        1.0307617188,        0.0595703125,       -0.0585937500,      -47.6837158203,       -8.8195800781,     -141.6168212891
1488916846.7840399742,1488916846.7864589691,        1.0307617188,        0.0595703125,       -0.0585937500,      -58.1359863281,       -8.0413818359,     -145.5078125000
1488916846.7867460251,1488916846.7891590595,        1.1557617188,       -0.0336914062,       -0.0102539062,      -58.1359863281,       -8.0413818359,     -145.5078125000
1488916846.7894470692,1488916846.7918639183,        1.2104492188,       -0.0336914062,       -0.0102539062,      -68.4967041016,       -6.9427490234,     -144.2871093750
1488916846.7921540737,1488916846.7945749760,        1.2104492188,       -0.0336914062,       -0.0102539062,      -68.4967041016,       -6.9427490234,     -144.2871093750
1488916846.7948629856,1488916846.7972741127,        1.2104492188,       -0.0336914062,       -0.0102539062,      -77.4230957031,       -3.1280517578,     -145.9197998047
1488916846.7975618839,1488916846.7999789715,        1.2856445312,       -0.1547851562,        0.0073242188,      -77.4230957031,       -3.1280517578,     -145.9197998047
1488916846.8002679348,1488916846.8026790619,        1.2856445312,       -0.1547851562,        0.0073242188,      -82.7941894531,       -1.9378662109,     -152.6489257812
1488916846.8029670715,1488916846.8052790165,        1.2856445312,       -0.1547851562,        0.0073242188,      -82.7941894531,       -1.9378662109,     -152.6489257812
1488916846.8055610657,1488916846.8078548908,        1.2856445312,       -0.1547851562,        0.0073242188,      -82.2601318359,       -4.3334960938,     -158.4014892578
1488916846.8081378937,1488916846.8104259968,        1.1694335938,       -0.3964843750,       -0.0122070312,      -82.2601318359,       -4.3334960938,     -158.4014892578
1488916846.8107089996,1488916846.8130009174,        1.1694335938,       -0.3964843750,       -0.0122070312,      -76.4312744141,       -9.4299316406,     -163.2385253906
1488916846.8132839203,1488916846.8157100677,        1.1694335938,       -0.3964843750,       -0.0122070312,      -76.4312744141,       -9.4299316406,     -163.2385253906
1488916846.8159999847,1488916846.8184099197,        1.1694335938,       -0.3964843750,        0.1127929688,      -67.6727294922,      -12.9394531250,     -164.9475097656
1488916846.8187019825,1488916846.8211200237,        1.1142578125,       -0.7050781250,        0.0068359375,      -67.6727294922,      -12.9394531250,     -164.9475097656
1488916846.8214120865,1488916846.8238670826,        1.1142578125,       -0.7050781250,        0.0068359375,      -63.3850097656,       -8.8958740234,     -160.6750488281
1488916846.8241569996,1488916846.8265678883,        1.1142578125,       -0.7050781250,        0.0068359375,      -63.3850097656,       -8.8958740234,     -160.6750488281
1488916846.8268599510,1488916846.8292748928,        1.1142578125,       -0.8061523438,       -0.0131835938,      -57.6934814453,       -0.6408691406,     -158.3404541016
1488916846.8295660019,1488916846.8319749832,        1.2021484375,       -0.8061523438,       -0.0131835938,      -57.6934814453,       -0.6408691406,     -158.3404541016
1488916846.8322649002,1488916846.8346929550,        1.2021484375,       -0.8061523438,       -0.0131835938,      -43.9453125000,        1.9226074219,     -163.6047363281
1488916846.8349809647,1488916846.8373959064,        1.2021484375,       -0.8061523438,       -0.0131835938,      -43.9453125000,        1.9226074219,     -163.6047363281
1488916846.8376829624,1488916846.8400940895,        1.1811523438,       -0.8427734375,       -0.0747070312,      -36.6363525391,        1.6326904297,     -169.8608398438
1488916846.8403859138,1488916846.8428030014,        1.1811523438,       -0.8427734375,       -0.0747070312,      -36.6363525391,        1.6326904297,     -169.8608398438
1488916846.8431959152,1488916846.8456549644,        1.1811523438,       -0.8427734375,       -0.0747070312,      -31.1584472656,        0.7934570312,     -173.8586425781
1488916846.8459429741,1488916846.8483591080,        1.1811523438,       -0.8427734375,       -0.0747070312,      -31.1584472656,        0.7934570312,     -173.8586425781
1488916846.8486480713,1488916846.8510611057,        1.1708984375,       -0.8139648438,       -0.0825195312,      -30.0140380859,        0.1525878906,     -175.4913330078
1488916846.8513500690,1488916846.8537631035,        1.1708984375,       -0.8139648438,       -0.0825195312,      -30.0140380859,        0.1525878906,     -175.4913330078
1488916846.8540461063,1488916846.8563408852,        1.1708984375,       -0.8139648438,       -0.0825195312,      -41.7633056641,       -1.9683837891,     -176.3763427734
1488916846.8566210270,1488916846.8589088917,        1.1708984375,       -0.8139648438,       -0.0317382812,      -41.7633056641,       -1.9683837891,     -176.3763427734
1488916846.8591890335,1488916846.8614768982,        1.1879882812,       -0.3515625000,       -0.0317382812,      -61.4471435547,       -3.9215087891,     -185.6079101562
1488916846.8617579937,1488916846.8641068935,        1.1879882812,       -0.3515625000,       -0.0317382812,      -61.4471435547,       -3.9215087891,     -185.6079101562
1488916846.8643939495,1488916846.8667919636,        1.1879882812,       -0.3515625000,       -0.0317382812,      -61.0809326172,       -2.9754638672,     -213.7145996094
1488916846.8670790195,1488916846.8694720268,        1.1879882812,        0.5273437500,       -0.3666992188,      -61.0809326172,       -2.9754638672,     -213.7145996094
1488916846.8697590828,1488916846.8721559048,        1.3144531250,        0.5273437500,       -0.3666992188,      -28.4729003906,      -14.2059326172,     -254.8828125000
1488916846.8724460602,1488916846.8748340607,        1.3144531250,        0.5273437500,       -0.3666992188,      -28.4729003906,      -14.2059326172,     -254.8828125000
1488916846.8751220703,1488916846.8775041103,        1.3144531250,        0.5273437500,       -0.3666992188,      -20.6604003906,      -22.7508544922,     -277.6031494141
1488916846.8777918816,1488916846.8801660538,        1.4458007812,       -0.1645507812,       -0.5263671875,      -21.2097167969,      -22.7508544922,     -277.6031494141
1488916846.8804531097,1488916846.8828310966,        1.4458007812,       -0.1645507812,       -0.5263671875,      -36.8347167969,      -18.2952880859,     -272.9492187500
1488916846.8831179142,1488916846.8855450153,        1.4458007812,       -0.1645507812,       -0.5263671875,      -35.6445312500,      -18.2952880859,     -272.9492187500
1488916846.8858370781,1488916846.8882470131,        1.4458007812,       -0.1645507812,       -0.5263671875,      -35.6445312500,      -11.1846923828,     -249.2980957031
1488916846.8885390759,1488916846.8909509182,        1.1191406250,       -0.4077148438,       -0.1440429688,      -29.8004150391,      -11.1846923828,     -249.2980957031
1488916846.8912420273,1488916846.8936700821,        1.1191406250,       -0.4077148438,       -0.1440429688,      -29.8004150391,      -11.8713378906,     -221.0998535156
1488916846.8939619064,1488916846.8963758945,        1.1191406250,       -0.4077148438,       -0.1440429688,       -2.8533935547,      -11.8713378906,     -221.0998535156
1488916846.8966639042,1488916846.8990828991,        1.1191406250,       -0.4077148438,       -0.3940429688,       -2.8533935547,      -52.1697998047,     -268.7988281250
1488916846.8993730545,1488916846.9017860889,        1.7329101562,       -0.2358398438,       -0.4155273438,       10.7269287109,      -52.1697998047,     -268.7988281250
1488916846.9020769596,1488916846.9044539928,        1.7329101562,       -0.2358398438,       -0.4155273438,       10.7269287109,      -39.3066406250,     -323.8525390625
1488916846.9047389030,1488916846.9070320129,        1.7329101562,       -0.2358398438,       -0.4155273438,       11.6271972656,      -39.3066406250,     -323.8525390625
1488916846.9074270725,1488916846.9097208977,        1.7329101562,       -0.3056640625,       -0.2656250000,       11.6271972656,       15.3808593750,     -296.1120605469
1488916846.9100050926,1488916846.9122900963,        1.2211914062,       -0.3056640625,       -0.2656250000,       16.6320800781,       13.4277343750,     -296.1120605469
1488916846.9125730991,1488916846.9151709080,        1.2211914062,       -0.3056640625,       -0.2656250000,       16.6320800781,       13.4277343750,     -238.7695312500
1488916846.9154620171,1488916846.9178650379,        1.2211914062,       -0.3056640625,       -0.2656250000,       12.5579833984,       12.5274658203,     -238.7695312500
1488916846.9181549549,1488916846.9205589294,        0.6098632812,       -0.0434570312,       -0.4165039062,       12.5579833984,       12.5274658203,     -193.6645507812
1488916846.9208500385,1488916846.9232449532,        0.6098632812,       -0.0434570312,       -0.4165039062,        8.9569091797,      -16.0064697266,     -193.6645507812
