time_stamp before, time_stamp after, Acceleration x, Acceleration y, Acceleration z, Gyro x, Gyro y, Gyro z
1488916905.0271699429,1488916905.0367441177,        0.9584960938,        2.1533203125,       -0.4531250000,      -16.0980224609,       -0.5950927734,       51.9714355469
1488916905.0370469093,1488916905.0393290520,        0.9721679688,        2.1337890625,       -0.4531250000,       -1.3580322266,       -1.9531250000,        4.0435791016
1488916905.0396010876,1488916905.0418839455,        0.9721679688,        2.1337890625,       -0.4531250000,       -1.3580322266,       -1.9531250000,        4.0435791016
1488916905.0421519279,1488916905.0445079803,        0.9721679688,        2.1337890625,       -0.4531250000,       18.1732177734,       -3.8757324219,      -39.6118164062
1488916905.0447859764,1488916905.0470631123,        0.9223632812,        1.9169921875,       -0.4921875000,       16.5863037109,       -3.8757324219,      -39.6118164062
1488916905.0473399162,1488916905.0496289730,        0.9223632812,        1.9169921875,       -0.4921875000,       16.5863037109,       -7.7819824219,      -78.5369873047
1488916905.0499069691,1488916905.0522909164,        0.9223632812,        1.9169921875,       -0.4921875000,       34.1186523438,       -7.4310302734,      -78.5369873047
1488916905.0525898933,1488916905.0552101135,        0.9223632812,        1.9169921875,       -0.4921875000,       34.1186523438,      -15.2435302734,     -114.7308349609
1488916905.0555169582,1488916905.0578069687,        0.8100585938,        1.8081054688,       -0.5375976562,       49.1027832031,      -12.5122070312,     -114.7308349609
1488916905.0580899715,1488916905.0603721142,        0.8100585938,        1.8081054688,       -0.5375976562,       49.1027832031,      -12.5122070312,     -147.0336914062
1488916905.0606529713,1488916905.0629420280,        0.8100585938,        1.8081054688,       -0.5375976562,       61.3861083984,      -18.5089111328,     -147.0336914062
1488916905.0632228851,1488916905.0656020641,        0.8100585938,        1.8081054688,       -0.5375976562,       61.3861083984,      -18.5089111328,     -174.3774414062
1488916905.0658829212,1488916905.0681669712,        0.8300781250,        1.8247070312,       -0.5932617188,       68.7866210938,      -24.4903564453,     -173.2788085938
1488916905.0684490204,1488916905.0707399845,        0.8300781250,        1.8247070312,       -0.5932617188,       68.7866210938,      -24.4903564453,     -173.2788085938
1488916905.0710210800,1488916905.0733020306,        0.8300781250,        1.8247070312,       -0.5932617188,       71.5179443359,      -30.3497314453,     -192.5048828125
1488916905.0736510754,1488916905.0759510994,        0.8300781250,        1.8247070312,       -0.5932617188,       71.5179443359,      -30.3497314453,     -192.5048828125
1488916905.0762329102,1488916905.0785210133,        0.9350585938,        1.6909179688,       -0.5781250000,       72.5402832031,      -35.5834960938,     -205.5053710938
1488916905.0788080692,1488916905.0810899734,        0.9350585938,        1.6909179688,       -0.5781250000,       72.5402832031,      -35.5834960938,     -205.5053710938
1488916905.0813748837,1488916905.0838010311,        0.9350585938,        1.6909179688,       -0.5781250000,       75.0579833984,      -33.2489013672,     -197.8912353516
1488916905.0840880871,1488916905.0863759518,        0.9350585938,        1.6909179688,       -0.4531250000,       75.0579833984,      -33.2489013672,     -197.8912353516
1488916905.0866611004,1488916905.0889470577,        1.6269531250,       -0.1889648438,       -0.3803710938,       76.7669677734,      -19.6228027344,     -135.2539062500
1488916905.0892300606,1488916905.0915229321,        1.6269531250,       -0.1889648438,       -0.3803710938,       76.7669677734,      -19.6228027344,     -135.2539062500
1488916905.0918080807,1488916905.0940990448,        1.6269531250,       -0.1889648438,       -0.3803710938,       57.6782226562,       -8.4838867188,     -101.6235351562
1488916905.0943799019,1488916905.0966720581,        1.6269531250,       -0.1889648438,        0.5722656250,       57.6782226562,       -8.4838867188,     -101.6235351562
1488916905.0971219540,1488916905.0994141102,        0.7553710938,       -2.3769531250,        0.5722656250,        8.2702636719,       -6.3781738281,     -132.3242187500
1488916905.0996921062,1488916905.1019730568,        0.7553710938,       -2.3769531250,        0.5722656250,        8.2702636719,       -6.3781738281,     -132.3242187500
1488916905.1022500992,1488916905.1050529480,        0.7553710938,       -2.3769531250,        0.5722656250,       10.1623535156,       -1.2054443359,     -174.5452880859
1488916905.1053550243,1488916905.1083679199,        0.8227539062,       -0.6420898438,        0.6132812500,       10.1623535156,       -1.2054443359,     -174.5452880859
1488916905.1086680889,1488916905.1110830307,        0.8227539062,       -0.6420898438,        0.6132812500,       89.0655517578,       -8.8806152344,     -225.3570556641
1488916905.1113750935,1488916905.1137781143,        0.8227539062,       -0.6420898438,        0.6132812500,       89.0655517578,       -8.8806152344,     -225.3570556641
1488916905.1140599251,1488916905.1163499355,        0.8227539062,       -0.6420898438,        0.6132812500,      124.3743896484,      -17.2424316406,     -251.1138916016
1488916905.1166350842,1488916905.1189270020,        0.9233398438,        0.8427734375,        0.0092773438,      124.3743896484,      -17.2424316406,     -251.1138916016
1488916905.1192119122,1488916905.1215078831,        0.9233398438,        0.8427734375,        0.0092773438,      107.0098876953,      -30.7312011719,     -244.1406250000
1488916905.1217958927,1488916905.1241741180,        0.9233398438,        0.8427734375,        0.0092773438,      107.0098876953,      -30.7312011719,     -244.1406250000
1488916905.1244618893,1488916905.1267559528,        0.9233398438,        0.8427734375,       -0.2407226562,       66.5435791016,      -33.4167480469,     -224.9755859375
1488916905.1270411015,1488916905.1293339729,        0.8618164062,        0.8154296875,       -0.1699218750,       66.5435791016,      -33.4167480469,     -224.9755859375
1488916905.1296200752,1488916905.1319110394,        0.8618164062,        0.8154296875,       -0.1699218750,       33.3862304688,      -29.6173095703,     -206.0089111328
1488916905.1321969032,1488916905.1347270012,        0.8618164062,        0.8154296875,       -0.1699218750,       33.3862304688,      -29.6173095703,     -206.0089111328
1488916905.1350181103,1488916905.1373949051,        0.8618164062,        0.1123046875,       -0.1000976562,       31.3568115234,      -31.4483642578,     -193.9849853516
1488916905.1376869678,1488916905.1402990818,        1.0126953125,        0.1123046875,       -0.1000976562,       31.3568115234,      -31.4483642578,     -193.9849853516
1488916905.1405930519,1488916905.1429979801,        1.0126953125,        0.1123046875,       -0.1000976562,       44.6472167969,      -36.9262695312,     -186.6302490234
1488916905.1437549591,1488916905.1461379528,        1.0126953125,        0.1123046875,       -0.1000976562,       44.6472167969,      -36.9262695312,     -186.6302490234
1488916905.1464309692,1488916905.1488189697,        0.5341796875,       -0.2016601562,       -0.2270507812,       56.8084716797,      -44.2199707031,     -173.5229492188
1488916905.1491100788,1488916905.1514859200,        0.5341796875,       -0.2016601562,       -0.2270507812,       56.8084716797,      -44.2199707031,     -173.5229492188
1488916905.1517770290,1488916905.1543169022,        0.5341796875,       -0.2016601562,       -0.2270507812,       68.5272216797,      -46.7681884766,     -152.9083251953
1488916905.1546099186,1488916905.1570219994,        0.5341796875,       -0.2016601562,       -0.2270507812,       68.5272216797,      -46.7681884766,     -152.9083251953
1488916905.1573150158,1488916905.1597259045,        1.0815429688,        0.4736328125,       -0.1821289062,       68.4967041016,      -45.5017089844,     -137.3748779297
1488916905.1600170135,1488916905.1624341011,        1.0815429688,        0.4736328125,       -0.1821289062,       68.4967041016,      -45.5017089844,     -137.3748779297
1488916905.1628398895,1488916905.1652679443,        1.0815429688,        0.4736328125,       -0.1821289062,       53.2073974609,      -46.2036132812,     -134.3231201172
1488916905.1655600071,1488916905.1679780483,        0.8315429688,        0.5756835938,       -0.0468750000,       53.2073974609,      -46.2036132812,     -134.3231201172
1488916905.1682720184,1488916905.1706910133,        0.7612304688,        0.5756835938,       -0.0468750000,       29.9987792969,      -46.4782714844,     -131.6528320312
1488916905.1709849834,1488916905.1733999252,        0.7612304688,        0.5756835938,       -0.0468750000,       29.9987792969,      -46.4782714844,     -131.6528320312
1488916905.1737370491,1488916905.1760299206,        0.7612304688,        0.5756835938,       -0.0468750000,       14.7705078125,      -46.6766357422,     -124.2980957031
1488916905.1763169765,1488916905.1786069870,        0.5825195312,        0.2485351562,        0.0322265625,       14.7705078125,      -46.6766357422,     -124.2980957031
1488916905.1788930893,1488916905.1811780930,        0.5825195312,        0.2485351562,        0.0322265625,        7.5836181641,      -47.1496582031,     -112.4267578125
1488916905.1814610958,1488916905.1837570667,        0.5825195312,        0.2485351562,        0.0322265625,        7.5836181641,      -47.1496582031,     -112.4267578125
1488916905.1840379238,1488916905.1863229275,        0.5825195312,        0.2485351562,        0.0322265625,       10.1623535156,      -47.2259521484,     -107.1166992188
1488916905.1866068840,1488916905.1888999939,        0.7333984375,        0.2680664062,       -0.2246093750,       10.1623535156,      -47.2259521484,     -107.1166992188
1488916905.1891829967,1488916905.1914820671,        0.7333984375,        0.2680664062,       -0.2246093750,       10.1623535156,      -49.5147705078,     -101.8524169922
1488916905.1917660236,1488916905.1941840649,        0.7333984375,        0.2680664062,       -0.2246093750,        9.2010498047,      -49.5147705078,     -101.8524169922
1488916905.1944680214,1488916905.1967620850,        0.7333984375,        0.2680664062,       -0.2246093750,        9.2010498047,      -49.9114990234,      -95.5657958984
1488916905.1970450878,1488916905.1993339062,        0.7011718750,        0.2128906250,       -0.2846679688,        2.0141601562,      -49.9114990234,      -95.5657958984
1488916905.1996159554,1488916905.2019081116,        0.7011718750,        0.2128906250,       -0.2846679688,        2.0141601562,      -49.9114990234,      -93.0328369141
1488916905.2021880150,1488916905.2046210766,        0.7011718750,        0.2128906250,       -0.2846679688,       -2.3498535156,      -46.0510253906,      -93.0328369141
1488916905.2049109936,1488916905.2073149681,        0.7011718750,        0.2128906250,       -0.2846679688,       -2.3498535156,      -46.0510253906,      -88.3941650391
1488916905.2076020241,1488916905.2100019455,        0.7011718750,        0.1967773438,       -0.1752929688,       -7.5988769531,      -41.6107177734,      -88.3941650391
1488916905.2102899551,1488916905.2126970291,        0.7011718750,        0.1967773438,       -0.1752929688,       -7.5988769531,      -41.6107177734,      -82.5042724609
1488916905.2129850388,1488916905.2153859138,        0.7011718750,        0.1967773438,       -0.1752929688,      -15.5029296875,      -36.9720458984,      -82.5042724609
1488916905.2156770229,1488916905.2180850506,        0.7011718750,        0.3217773438,       -0.1425781250,      -15.5029296875,      -36.9720458984,      -77.1789550781
1488916905.2183749676,1488916905.2207739353,        0.7202148438,        0.2617187500,       -0.1425781250,      -20.2789306641,      -34.0881347656,      -77.1789550781
1488916905.2210640907,1488916905.2234699726,        0.7202148438,        0.2617187500,       -0.1425781250,      -20.2789306641,      -34.0881347656,      -73.2727050781
1488916905.2237610817,1488916905.2261719704,        0.7202148438,        0.2617187500,       -0.1425781250,      -20.7672119141,      -33.2489013672,      -70.8923339844
1488916905.2265810966,1488916905.2289810181,        0.6826171875,        0.1933593750,       -0.2216796875,      -20.7672119141,      -33.2489013672,      -66.1010742188
1488916905.2292730808,1488916905.2316761017,        0.6826171875,        0.1933593750,       -0.2216796875,      -16.7388916016,      -32.1960449219,      -66.1010742188
1488916905.2319679260,1488916905.2343831062,        0.6826171875,        0.1933593750,       -0.2216796875,      -16.7388916016,      -32.1960449219,      -59.2956542969
1488916905.2346730232,1488916905.2370769978,        0.6826171875,        0.1933593750,       -0.2216796875,      -11.2762451172,      -30.5786132812,      -59.2956542969
1488916905.2373669147,1488916905.2397649288,        0.6489257812,        0.0991210938,       -0.2114257812,      -11.2762451172,      -30.5786132812,      -55.3894042969
1488916905.2400569916,1488916905.2424550056,        0.6489257812,        0.0991210938,       -0.2114257812,       -7.7819824219,      -27.3742675781,      -55.4504394531
1488916905.2427461147,1488916905.2451438904,        0.6489257812,        0.0991210938,       -0.2114257812,       -7.7819824219,      -27.3742675781,      -51.5441894531
1488916905.2454309464,1488916905.2478089333,        0.6489257812,        0.0991210938,       -0.2114257812,       -5.8898925781,      -24.1088867188,      -53.6956787109
1488916905.2480959892,1488916905.2504711151,        0.6669921875,        0.1176757812,       -0.1782226562,       -5.8898925781,      -24.1088867188,      -53.6956787109
1488916905.2507579327,1488916905.2531769276,        0.6669921875,        0.1176757812,       -0.1782226562,       -5.2947998047,      -22.0184326172,      -50.4150390625
1488916905.2534739971,1488916905.2558920383,        0.6669921875,        0.1176757812,       -0.1782226562,       -5.2947998047,      -22.0184326172,      -50.4150390625
1488916905.2561810017,1488916905.2585909367,        0.6669921875,        0.0952148438,       -0.1538085938,       -6.2255859375,      -20.8740234375,      -48.5992431641
1488916905.2588820457,1488916905.2615389824,        0.6533203125,        0.0952148438,       -0.1538085938,       -6.2255859375,      -20.8740234375,      -48.5992431641
1488916905.2618288994,1488916905.2646849155,        0.6533203125,        0.0952148438,       -0.1538085938,       -6.1950683594,      -20.8587646484,      -48.0194091797
1488916905.2649760246,1488916905.2673919201,        0.6533203125,        0.0952148438,       -0.1538085938,       -6.1950683594,      -20.8587646484,      -46.3714599609
1488916905.2676799297,1488916905.2700970173,        0.6264648438,        0.0244140625,       -0.1191406250,       -6.5307617188,      -21.6217041016,      -46.3714599609
1488916905.2703869343,1488916905.2728030682,        0.6264648438,        0.0244140625,       -0.1191406250,       -6.5307617188,      -21.6217041016,      -44.6624755859
1488916905.2730920315,1488916905.2754240036,        0.6264648438,        0.0244140625,       -0.1191406250,       -5.9051513672,      -22.0794677734,      -44.6624755859
1488916905.2757060528,1488916905.2779960632,        0.6264648438,        0.0244140625,       -0.1191406250,       -5.9051513672,      -22.0794677734,      -44.9066162109
1488916905.2782781124,1488916905.2805690765,        0.6591796875,        0.0898437500,       -0.1196289062,       -6.1187744141,      -22.4914550781,      -44.9066162109
1488916905.2808530331,1488916905.2831470966,        0.6591796875,        0.0898437500,       -0.1196289062,       -6.1187744141,      -22.4914550781,      -44.9066162109
1488916905.2834711075,1488916905.2858879566,        0.6591796875,        0.0898437500,       -0.1196289062,       -8.6212158203,      -21.6979980469,      -43.2586669922
1488916905.2861781120,1488916905.2885959148,        0.6591796875,        0.0898437500,       -0.1123046875,       -8.6212158203,      -21.6979980469,      -43.2586669922
1488916905.2888870239,1488916905.2913091183,        0.6235351562,        0.0820312500,       -0.1123046875,      -11.7187500000,      -21.3775634766,      -41.0766601562
1488916905.2917089462,1488916905.2941100597,        0.6235351562,        0.0820312500,       -0.1123046875,      -11.7187500000,      -21.3775634766,      -41.0766601562
1488916905.2943959236,1488916905.2966899872,        0.6235351562,        0.0820312500,       -0.1123046875,      -16.0522460938,      -20.8740234375,      -39.5507812500
1488916905.2969739437,1488916905.2992649078,        0.6333007812,        0.0629882812,       -0.1352539062,      -16.0522460938,      -20.8740234375,      -39.5507812500
1488916905.2995491028,1488916905.3018391132,        0.6333007812,        0.0629882812,       -0.1352539062,      -21.9573974609,      -20.0958251953,      -38.9251708984
1488916905.3021240234,1488916905.3044629097,        0.6333007812,        0.0629882812,       -0.1352539062,      -21.9573974609,      -20.0958251953,      -38.9251708984
1488916905.3047471046,1488916905.3070380688,        0.6333007812,        0.0629882812,       -0.1352539062,      -28.3966064453,      -19.8974609375,      -37.7502441406
1488916905.3073220253,1488916905.3096148968,        0.6333007812,        0.0561523438,       -0.1289062500,      -28.3966064453,      -19.8974609375,      -37.7502441406
1488916905.3098990917,1488916905.3121969700,        0.6333007812,        0.0561523438,       -0.1289062500,      -33.7829589844,      -19.7448730469,      -36.0412597656
1488916905.3124809265,1488916905.3149240017,        0.6333007812,        0.0561523438,       -0.1289062500,      -33.7829589844,      -19.7448730469,      -36.0412597656
1488916905.3152101040,1488916905.3175120354,        0.6333007812,        0.0561523438,       -0.1289062500,      -37.9638671875,      -19.9584960938,      -34.8815917969
1488916905.3177959919,1488916905.3200879097,        0.6391601562,        0.0625000000,       -0.1313476562,      -37.9638671875,      -19.9584960938,      -34.8815917969
1488916905.3203721046,1488916905.3226621151,        0.6391601562,        0.0625000000,       -0.1313476562,      -40.0543212891,      -20.4467773438,      -34.1033935547
1488916905.3229479790,1488916905.3262429237,        0.6391601562,        0.0625000000,       -0.1313476562,      -40.0543212891,      -20.4467773438,      -34.1033935547
1488916905.3265450001,1488916905.3299829960,        0.6391601562,        0.0195312500,       -0.1367187500,      -39.6423339844,      -21.3012695312,      -34.6374511719
1488916905.3303029537,1488916905.3330481052,        0.6538085938,        0.0195312500,       -0.1367187500,      -39.6423339844,      -21.7895507812,      -36.2854003906
1488916905.3333659172,1488916905.3357911110,        0.6538085938,        0.0195312500,       -0.1367187500,      -40.6188964844,      -21.7895507812,      -36.2854003906
1488916905.3360860348,1488916905.3385019302,        0.6538085938,        0.0195312500,       -0.1367187500,      -40.6188964844,      -21.4538574219,      -38.3911132812
1488916905.3387949467,1488916905.3412129879,        0.6674804688,       -0.0209960938,       -0.1503906250,      -42.0074462891,      -21.4538574219,      -38.3911132812
1488916905.3415069580,1488916905.3439269066,        0.6674804688,       -0.0209960938,       -0.1503906250,      -42.0074462891,      -21.3623046875,      -40.9240722656
1488916905.3442189693,1488916905.3466310501,        0.6674804688,       -0.0209960938,       -0.1503906250,      -42.2668457031,      -21.3623046875,      -40.9240722656
1488916905.3469240665,1488916905.3493421078,        0.6674804688,        0.1040039062,       -0.1845703125,      -42.2668457031,      -21.1639404297,      -43.4722900391
1488916905.3496339321,1488916905.3520500660,        0.7060546875,        0.0815429688,       -0.1845703125,      -40.6494140625,      -21.1639404297,      -43.4722900391
1488916905.3523430824,1488916905.3547658920,        0.7060546875,        0.0815429688,       -0.1845703125,      -40.6494140625,      -21.0723876953,      -44.3878173828
1488916905.3550570011,1488916905.3574829102,        0.7060546875,        0.0815429688,       -0.1845703125,      -37.8723144531,      -21.0723876953,      -44.3878173828
1488916905.3579299450,1488916905.3603448868,        0.6635742188,       -0.0332031250,       -0.2333984375,      -37.8723144531,      -20.7519531250,      -45.0439453125
1488916905.3606359959,1488916905.3630499840,        0.6635742188,       -0.0332031250,       -0.2333984375,      -35.6750488281,      -20.7519531250,      -45.0439453125
1488916905.3633410931,1488916905.3657770157,        0.6635742188,       -0.0332031250,       -0.2333984375,      -35.6750488281,      -20.7672119141,      -48.3245849609
1488916905.3660700321,1488916905.3684771061,        0.6635742188,       -0.0332031250,       -0.2333984375,      -36.5447998047,      -20.7672119141,      -48.3245849609
1488916905.3687689304,1488916905.3711779118,        0.7006835938,        0.0107421875,       -0.2241210938,      -32.6385498047,      -21.1029052734,      -52.7343750000
1488916905.3714709282,1488916905.3740019798,        0.7006835938,        0.0107421875,       -0.2241210938,      -34.8052978516,      -21.1029052734,      -52.7343750000
1488916905.3742949963,1488916905.3766999245,        0.7006835938,        0.0107421875,       -0.2241210938,      -34.8052978516,      -20.7977294922,      -55.4504394531
1488916905.3769910336,1488916905.3794031143,        0.7006835938,        0.0107421875,       -0.2070312500,      -34.8663330078,      -20.7977294922,      -55.4504394531
1488916905.3797628880,1488916905.3823330402,        0.6494140625,        0.0737304688,       -0.2070312500,      -35.5987548828,      -20.1263427734,      -56.3964843750
1488916905.3826260567,1488916905.3853080273,        0.6494140625,        0.0737304688,       -0.2070312500,      -35.5987548828,      -20.1263427734,      -56.3964843750
1488916905.3856029510,1488916905.3880059719,        0.6494140625,        0.0737304688,       -0.2070312500,      -35.4003906250,      -19.9127197266,      -59.2193603516
1488916905.3882999420,1488916905.3907051086,        0.6562500000,        0.1235351562,       -0.2402343750,      -35.4003906250,      -19.9127197266,      -59.2193603516
1488916905.3909969330,1488916905.3934009075,        0.6562500000,        0.1235351562,       -0.2402343750,      -32.8979492188,      -20.0042724609,      -60.4248046875
1488916905.3937420845,1488916905.3962330818,        0.6562500000,        0.1235351562,       -0.2402343750,      -32.8979492188,      -20.0042724609,      -60.4248046875
1488916905.3965280056,1488916905.3989350796,        0.6562500000,        0.1235351562,       -0.2402343750,      -32.1655273438,      -18.6614990234,      -60.2569580078
1488916905.3992290497,1488916905.4016289711,        0.6503906250,        0.0561523438,       -0.2202148438,      -32.1655273438,      -18.6614990234,      -60.2569580078
1488916905.4019200802,1488916905.4043290615,        0.6503906250,        0.0561523438,       -0.2202148438,      -31.8450927734,      -18.5699462891,      -63.8427734375
1488916905.4046180248,1488916905.4070420265,        0.6503906250,        0.0561523438,       -0.2202148438,      -31.8450927734,      -18.5699462891,      -63.8427734375
1488916905.4073340893,1488916905.4099309444,        0.6503906250,        0.1811523438,       -0.2358398438,      -29.5867919922,      -20.1568603516,      -67.7642822266
1488916905.4102261066,1488916905.4131031036,        0.6367187500,        0.1274414062,       -0.2358398438,      -29.5867919922,      -20.1568603516,      -67.7642822266
1488916905.4133930206,1488916905.4156780243,        0.6367187500,        0.1274414062,       -0.2358398438,      -34.0881347656,      -21.0266113281,      -68.6798095703
1488916905.4159660339,1488916905.4182488918,        0.6367187500,        0.1274414062,       -0.2358398438,      -34.0881347656,      -21.0266113281,      -68.6798095703
1488916905.4185340405,1488916905.4208309650,        0.7983398438,        0.0883789062,       -0.2568359375,      -43.3654785156,      -19.0277099609,      -62.9730224609
1488916905.4211161137,1488916905.4234011173,        0.7983398438,        0.0883789062,       -0.2568359375,      -43.3654785156,      -19.0277099609,      -62.9730224609
1488916905.4238500595,1488916905.4261469841,        0.7983398438,        0.0883789062,       -0.2568359375,      -35.3240966797,      -14.0838623047,      -55.9997558594
1488916905.4264309406,1488916905.4287180901,        0.7983398438,        0.0883789062,       -0.2568359375,      -35.3240966797,      -14.0838623047,      -55.9997558594
1488916905.4290039539,1488916905.4312889576,        0.7675781250,        0.0600585938,       -0.1591796875,      -28.5034179688,      -12.2985839844,      -65.3839111328
1488916905.4315741062,1488916905.4338901043,        0.7675781250,        0.0600585938,       -0.1591796875,      -28.5034179688,      -12.2985839844,      -65.3839111328
1488916905.4341759682,1488916905.4364631176,        0.7675781250,        0.0600585938,       -0.1591796875,      -32.4096679688,      -13.9312744141,      -64.0563964844
1488916905.4367480278,1488916905.4390389919,        0.7675781250,        0.0600585938,       -0.1591796875,      -34.2407226562,      -13.9312744141,      -64.0563964844
1488916905.4393239021,1488916905.4416170120,        0.7290039062,        0.1694335938,       -0.1904296875,      -34.2407226562,      -17.8375244141,      -59.5855712891
1488916905.4419009686,1488916905.4442329407,        0.7290039062,        0.1694335938,       -0.1904296875,      -39.3676757812,      -17.1508789062,      -59.5855712891
1488916905.4445180893,1488916905.4468131065,        0.7290039062,        0.1694335938,       -0.1904296875,      -39.3676757812,      -17.1508789062,      -59.4940185547
1488916905.4470961094,1488916905.4493830204,        0.7290039062,        0.1694335938,       -0.1904296875,      -42.8619384766,      -19.3328857422,      -59.4940185547
1488916905.4496660233,1488916905.4519519806,        0.7636718750,        0.1684570312,       -0.1831054688,      -42.8619384766,      -19.3328857422,      -55.5877685547
1488916905.4522349834,1488916905.4546110630,        0.7636718750,        0.1684570312,       -0.1831054688,      -45.1354980469,      -20.6451416016,      -57.2509765625
1488916905.4548969269,1488916905.4571869373,        0.7636718750,        0.1684570312,       -0.1831054688,      -45.1354980469,      -20.6451416016,      -57.2509765625
1488916905.4574720860,1488916905.4597640038,        0.7636718750,        0.1684570312,       -0.0581054688,      -43.8079833984,      -21.7132568359,      -56.1370849609
1488916905.4600479603,1488916905.4623439312,        0.7880859375,        0.1054687500,       -0.1137695312,      -43.8079833984,      -21.7132568359,      -56.1370849609
1488916905.4626300335,1488916905.4650430679,        0.7880859375,        0.1054687500,       -0.1137695312,      -43.6248779297,      -21.7895507812,      -57.8613281250
1488916905.4653360844,1488916905.4677529335,        0.7880859375,        0.1054687500,       -0.1137695312,      -43.6248779297,      -21.7895507812,      -57.8613281250
1488916905.4680469036,1488916905.4704589844,        0.7880859375,        0.1054687500,       -0.1113281250,      -43.9453125000,      -21.5454101562,      -59.7381591797
1488916905.4707510471,1488916905.4731690884,        0.8393554688,        0.1054687500,       -0.1113281250,      -43.9453125000,      -21.5454101562,      -59.7381591797
1488916905.4734721184,1488916905.4758980274,        0.8393554688,        0.1054687500,       -0.1113281250,      -43.8537597656,      -21.6827392578,      -64.1632080078
1488916905.4761919975,1488916905.4786119461,        0.8393554688,        0.1054687500,       -0.1113281250,      -43.8537597656,      -21.6827392578,      -64.1632080078
1488916905.4789040089,1488916905.4813170433,        0.8559570312,        0.1254882812,       -0.1079101562,      -47.4548339844,      -22.3236083984,      -71.1364746094
1488916905.4816069603,1488916905.4840719700,        0.8559570312,        0.1254882812,       -0.1079101562,      -47.4548339844,      -22.3236083984,      -71.1364746094
1488916905.4843640327,1488916905.4867789745,        0.8559570312,        0.1254882812,       -0.1079101562,      -52.9327392578,      -24.0478515625,      -81.0394287109
1488916905.4870688915,1488916905.4894928932,        0.8559570312,        0.1254882812,       -0.1079101562,      -52.9327392578,      -24.0478515625,      -81.0394287109
1488916905.4898951054,1488916905.4923100471,        0.8735351562,        0.1293945312,       -0.0634765625,      -59.4177246094,      -25.2532958984,      -92.9565429688
1488916905.4926009178,1488916905.4949851036,        0.8735351562,        0.1293945312,       -0.0634765625,      -59.4177246094,      -25.2532958984,      -92.9565429688
1488916905.4952709675,1488916905.4975659847,        0.8735351562,        0.1293945312,       -0.0634765625,      -64.1937255859,      -24.1394042969,     -105.4992675781
1488916905.4978520870,1488916905.5001449585,        0.8735351562,        0.1293945312,       -0.0634765625,      -64.1937255859,      -24.1394042969,     -105.4992675781
1488916905.5004301071,1488916905.5027210712,        0.9370117188,        0.0009765625,       -0.0996093750,      -68.9392089844,      -22.3999023438,     -116.5008544922
1488916905.5030069351,1488916905.5053110123,        0.9370117188,        0.0009765625,       -0.0996093750,      -68.9392089844,      -22.3999023438,     -116.5008544922
1488916905.5055980682,1488916905.5078918934,        0.9370117188,        0.0009765625,       -0.0996093750,      -74.7528076172,      -22.5677490234,     -129.1961669922
1488916905.5081779957,1488916905.5104680061,        0.9370117188,        0.0009765625,       -0.2001953125,      -74.7528076172,      -22.5677490234,     -129.1961669922
1488916905.5107529163,1488916905.5130960941,        0.9775390625,       -0.0244140625,       -0.2001953125,      -79.4219970703,      -24.5513916016,     -143.8140869141
1488916905.5133810043,1488916905.5157999992,        0.9775390625,       -0.0244140625,       -0.2001953125,      -79.4219970703,      -24.5513916016,     -143.8140869141
1488916905.5160930157,1488916905.5185129642,        0.9775390625,       -0.0244140625,       -0.2001953125,      -90.4083251953,      -26.1993408203,     -143.3258056641
1488916905.5188050270,1488916905.5213809013,        0.9775390625,       -0.1391601562,       -0.1904296875,      -90.4083251953,      -26.1993408203,     -143.3258056641
1488916905.5216729641,1488916905.5250871181,        0.9536132812,       -0.1391601562,       -0.1904296875,      -95.0927734375,      -29.6325683594,     -146.8353271484
1488916905.5253748894,1488916905.5276620388,        0.9536132812,       -0.1391601562,       -0.1904296875,      -95.0927734375,      -29.6325683594,     -146.8353271484
1488916905.5279479027,1488916905.5302350521,        0.9536132812,       -0.1391601562,       -0.1904296875,      -95.6878662109,      -31.9061279297,     -155.2886962891
1488916905.5305209160,1488916905.5328159332,        0.9868164062,       -0.1962890625,       -0.1279296875,      -95.6878662109,      -31.9061279297,     -155.2886962891
1488916905.5330998898,1488916905.5354239941,        0.9868164062,       -0.1962890625,       -0.1279296875,      -98.6633300781,      -34.4390869141,     -157.8979492188
1488916905.5357100964,1488916905.5379979610,        0.9868164062,       -0.1962890625,       -0.1279296875,      -98.6633300781,      -34.4390869141,     -157.8979492188
1488916905.5382840633,1488916905.5405740738,        0.9868164062,       -0.1962890625,       -0.0341796875,     -101.0284423828,      -36.3616943359,     -159.2559814453
1488916905.5408589840,1488916905.5431489944,        1.0200195312,       -0.2768554688,       -0.0341796875,     -101.0284423828,      -36.3616943359,     -159.2559814453
1488916905.5434730053,1488916905.5457670689,        1.0200195312,       -0.2768554688,       -0.0341796875,     -104.8889160156,      -34.5306396484,     -163.7725830078
1488916905.5460510254,1488916905.5483388901,        1.0200195312,       -0.2768554688,       -0.0341796875,     -104.8889160156,      -34.5306396484,     -163.7725830078
1488916905.5486230850,1488916905.5509068966,        1.0200195312,       -0.2768554688,        0.0278320312,     -109.6038818359,      -30.2734375000,     -170.2423095703
1488916905.5511910915,1488916905.5535099506,        1.1977539062,       -0.2939453125,        0.0278320312,     -109.6038818359,      -30.2734375000,     -170.2423095703
1488916905.5539059639,1488916905.5561940670,        1.1977539062,       -0.2939453125,        0.0278320312,     -113.5101318359,      -25.6652832031,     -180.9082031250
1488916905.5564789772,1488916905.5587699413,        1.1977539062,       -0.2939453125,        0.0278320312,     -113.9984130859,      -25.6652832031,     -180.9082031250
1488916905.5590550900,1488916905.5613369942,        1.1977539062,       -0.4052734375,        0.0644531250,     -113.9984130859,      -21.7590332031,     -187.5457763672
1488916905.5616219044,1488916905.5639159679,        1.2070312500,       -0.4052734375,        0.0644531250,     -121.7193603516,      -22.1862792969,     -187.5457763672
1488916905.5642011166,1488916905.5664930344,        1.2070312500,       -0.4052734375,        0.0644531250,     -121.7193603516,      -22.1862792969,     -186.4318847656
1488916905.5667760372,1488916905.5690610409,        1.2070312500,       -0.4052734375,        0.0644531250,     -128.2653808594,      -20.8587646484,     -186.4318847656
1488916905.5693449974,1488916905.5716300011,        1.2070312500,       -0.6425781250,        0.1254882812,     -128.2653808594,      -20.8587646484,     -186.4318847656
1488916905.5719139576,1488916905.5743830204,        1.1508789062,       -0.6425781250,        0.1254882812,     -131.2103271484,      -18.7377929688,     -184.8754882812
1488916905.5746679306,1488916905.5769579411,        1.1508789062,       -0.6425781250,        0.1254882812,     -131.2103271484,      -18.7377929688,     -184.8754882812
1488916905.5772440434,1488916905.5795440674,        1.1508789062,       -0.6425781250,        0.1254882812,     -133.0718994141,      -16.0369873047,     -184.2498779297
1488916905.5798270702,1488916905.5821170807,        1.1132812500,       -0.9257812500,        0.1718750000,     -133.0718994141,      -16.0369873047,     -184.2498779297
1488916905.5823988914,1488916905.5848760605,        1.1132812500,       -0.9257812500,        0.1718750000,     -131.8054199219,      -10.8795166016,     -182.3425292969
1488916905.5851700306,1488916905.5875940323,        1.1132812500,       -0.9257812500,        0.1718750000,     -131.8054199219,      -10.8795166016,     -182.3425292969
1488916905.5878849030,1488916905.5902960300,        1.1132812500,       -0.9257812500,        0.1718750000,     -123.4588623047,       -1.5258789062,     -184.0515136719
1488916905.5905840397,1488916905.5930030346,        1.2143554688,       -0.9736328125,        0.2006835938,     -123.4588623047,       -1.5258789062,     -184.0515136719
1488916905.5932929516,1488916905.5957200527,        1.2143554688,       -0.9736328125,        0.2006835938,     -107.5897216797,        4.5013427734,     -192.3370361328
1488916905.5960090160,1488916905.5984199047,        1.2143554688,       -0.9736328125,        0.2006835938,     -107.5897216797,        4.5013427734,     -192.3370361328
1488916905.5987100601,1488916905.6011300087,        1.2143554688,       -0.9736328125,        0.2006835938,      -92.3919677734,        5.4931640625,     -206.5734863281
1488916905.6014189720,1488916905.6038560867,        1.3129882812,       -0.8178710938,        0.1450195312,      -92.3919677734,        5.4931640625,     -206.5734863281
1488916905.6041378975,1488916905.6064269543,        1.3129882812,       -0.8178710938,        0.1450195312,      -94.1314697266,        4.6539306641,     -223.0529785156
1488916905.6067090034,1488916905.6090080738,        1.3129882812,       -0.8178710938,        0.1450195312,      -94.1314697266,        4.6539306641,     -223.0529785156
1488916905.6092889309,1488916905.6115789413,        1.3129882812,       -0.1928710938,       -0.0585937500,     -108.0932617188,        4.4097900391,     -244.0338134766
1488916905.6119310856,1488916905.6144309044,        1.4975585938,       -0.1650390625,       -0.0585937500,     -108.0932617188,        4.4097900391,     -244.0338134766
1488916905.6147220135,1488916905.6171040535,        1.4975585938,       -0.1650390625,       -0.0585937500,      -82.5805664062,       -0.0457763672,     -279.8919677734
1488916905.6175010204,1488916905.6203150749,        1.4975585938,       -0.1650390625,       -0.0585937500,      -82.5805664062,       -0.0457763672,     -279.8919677734
1488916905.6205999851,1488916905.6228890419,        1.8999023438,       -0.1787109375,       -0.3901367188,      -27.0080566406,       -2.7313232422,     -315.6585693359
1488916905.6231720448,1488916905.6254599094,        1.8999023438,       -0.1787109375,       -0.3901367188,      -27.0080566406,       -2.7313232422,     -315.6585693359
1488916905.6257410049,1488916905.6280250549,        1.8999023438,       -0.1787109375,       -0.3901367188,       -6.7596435547,      -11.8255615234,     -327.0721435547
1488916905.6283059120,1488916905.6305940151,        1.8999023438,       -0.1787109375,       -0.3901367188,       -6.7596435547,      -11.8255615234,     -327.0721435547
1488916905.6308751106,1488916905.6331610680,        1.5639648438,       -0.6269531250,       -0.5122070312,      -23.2696533203,      -15.3656005859,     -308.1817626953
1488916905.6334791183,1488916905.6357669830,        1.5639648438,       -0.6269531250,       -0.5122070312,      -23.2696533203,      -15.3656005859,     -308.1817626953
1488916905.6360499859,1488916905.6383368969,        1.5639648438,       -0.6269531250,       -0.5122070312,       -7.6446533203,      -37.1704101562,     -309.0057373047
1488916905.6386189461,1488916905.6408979893,        1.5639648438,       -0.6269531250,       -0.5122070312,       -7.6446533203,      -37.1704101562,     -309.0057373047
1488916905.6411800385,1488916905.6435029507,        2.1210937500,       -0.4350585938,       -0.6743164062,       13.7329101562,      -60.8978271484,     -364.5629882812
1488916905.6437880993,1488916905.6460731030,        2.1210937500,       -0.4350585938,       -0.6743164062,       13.7329101562,      -60.8978271484,     -364.5629882812
1488916905.6463580132,1488916905.6486430168,        2.1210937500,       -0.4350585938,       -0.6743164062,       13.7329101562,      -30.4107666016,     -363.2354736328
1488916905.6489269733,1488916905.6512150764,        2.1210937500,       -0.4350585938,       -0.6743164062,       12.1917724609,      -30.4107666016,     -363.2354736328
1488916905.6514990330,1488916905.6538488865,        1.8725585938,        0.0073242188,       -0.8745117188,       12.1917724609,      -30.4107666016,     -312.6373291016
1488916905.6541349888,1488916905.6564230919,        1.8725585938,        0.0073242188,       -0.8745117188,       11.9476318359,      -22.3083496094,     -312.6373291016
1488916905.6567070484,1488916905.6589920521,        1.8725585938,        0.0073242188,       -0.8745117188,       11.9476318359,      -22.3083496094,     -254.3792724609
1488916905.6592750549,1488916905.6615660191,        1.8725585938,        0.0073242188,       -0.8745117188,       -0.6713867188,      -36.2243652344,     -254.3792724609
1488916905.6618471146,1488916905.6642019749,        1.3793945312,        0.2558593750,       -0.7939453125,       -0.6713867188,      -36.2243652344,     -195.7855224609
1488916905.6644830704,1488916905.6667680740,        1.3793945312,        0.2558593750,       -0.7939453125,      -21.3775634766,      -27.7099609375,     -198.3795166016
1488916905.6670520306,1488916905.6693410873,        1.3793945312,        0.2558593750,       -0.7939453125,      -21.3775634766,      -27.7099609375,     -198.3795166016
1488916905.6696240902,1488916905.6719119549,        1.3793945312,        0.2558593750,       -0.5156250000,      -25.0549316406,       -1.4648437500,     -151.7639160156
1488916905.6721940041,1488916905.6745769978,        0.4184570312,       -0.0629882812,       -0.5156250000,      -25.0549316406,       -1.4648437500,     -151.7639160156
1488916905.6748631001,1488916905.6771519184,        0.4184570312,       -0.0629882812,       -0.5156250000,       17.3492431641,       18.4326171875,     -131.5307617188
1488916905.6774370670,1488916905.6797239780,        0.4184570312,       -0.0629882812,       -0.5156250000,       17.3492431641,       18.4326171875,     -131.5307617188
1488916905.6801249981,1488916905.6824100018,        0.4184570312,        0.3535156250,       -0.1796875000,      109.4360351562,       -3.5705566406,     -118.3929443359
1488916905.6826910973,1488916905.6850299835,        1.6635742188,        0.3535156250,       -0.1796875000,      109.4360351562,       -3.5705566406,     -118.3929443359
1488916905.6853110790,1488916905.6875998974,        1.6635742188,        0.3535156250,       -0.1796875000,      121.4141845703,      -23.4985351562,      -71.9299316406
1488916905.6878829002,1488916905.6901690960,        1.6635742188,        0.3535156250,       -0.1796875000,      121.4141845703,      -23.4985351562,      -71.9299316406
1488916905.6904520988,1488916905.6927409172,        1.0385742188,       -0.5537109375,       -0.2626953125,      121.7193603516,       34.5001220703,       -1.8310546875
1488916905.6930229664,1488916905.6954700947,        1.0424804688,       -0.5537109375,       -0.2626953125,      121.7193603516,       34.5001220703,       -1.8310546875
1488916905.6957600117,1488916905.6981759071,        1.0424804688,       -0.5537109375,       -0.2626953125,       78.6437988281,       81.1767578125,       74.5391845703
1488916905.6984670162,1488916905.7008829117,        1.0424804688,       -0.5537109375,       -0.2626953125,       78.6437988281,       81.1767578125,       74.5391845703
1488916905.7011740208,1488916905.7035830021,        0.4399414062,       -1.4418945312,        0.0708007812,       10.3302001953,       59.3872070312,      115.1580810547
1488916905.7038679123,1488916905.7061610222,        0.4399414062,       -1.4418945312,        0.0708007812,       10.3302001953,       59.3872070312,      115.1580810547
1488916905.7064459324,1488916905.7087368965,        0.4399414062,       -1.4418945312,        0.0708007812,       10.3302001953,       17.1356201172,       79.6356201172
1488916905.7090198994,1488916905.7113099098,        0.4399414062,       -1.4418945312,        0.0708007812,       10.2996826172,       17.1356201172,       79.6356201172
1488916905.7115941048,1488916905.7138960361,        0.4941406250,       -0.8369140625,       -0.1826171875,       10.2996826172,        6.9885253906,       21.7895507812
1488916905.7141780853,1488916905.7164700031,        0.4941406250,       -0.8369140625,       -0.1826171875,       77.1636962891,        6.9885253906,       21.7895507812
1488916905.7167510986,1488916905.7190399170,        0.4941406250,       -0.8369140625,       -0.1826171875,       77.1636962891,        6.9885253906,       12.7258300781
1488916905.7193200588,1488916905.7216110229,        0.4941406250,       -0.8369140625,       -0.1826171875,      124.3743896484,       24.1394042969,       12.7258300781
1488916905.7218959332,1488916905.7243700027,        0.6655273438,       -0.4526367188,       -0.2221679688,      124.3743896484,       24.1394042969,       47.8210449219
1488916905.7246620655,1488916905.7270789146,        0.6655273438,       -0.4526367188,       -0.2221679688,      124.5574951172,       35.8734130859,       47.8210449219
1488916905.7273700237,1488916905.7299170494,        0.6655273438,       -0.4526367188,       -0.2221679688,      124.5574951172,       35.8734130859,       92.5903320312
1488916905.7302219868,1488916905.7326400280,        0.6655273438,       -0.4526367188,       -0.1704101562,      108.3984375000,       41.1987304688,       92.5903320312
1488916905.7333519459,1488916905.7357780933,        0.2636718750,       -0.3188476562,       -0.1704101562,      108.3984375000,       47.1801757812,      131.2255859375
1488916905.7360730171,1488916905.7384879589,        0.2636718750,       -0.3188476562,       -0.1704101562,       87.8448486328,       47.1801757812,      131.2255859375
1488916905.7387809753,1488916905.7412059307,        0.2636718750,       -0.3188476562,       -0.1704101562,       87.8448486328,       54.8095703125,      156.9366455078
1488916905.7414979935,1488916905.7439279556,        0.1562500000,       -0.4033203125,        0.0214843750,       70.0988769531,       54.8095703125,      156.9366455078
1488916905.7443320751,1488916905.7467489243,        0.1562500000,       -0.4033203125,        0.0214843750,       66.1926269531,       66.3909912109,      172.8973388672
1488916905.7470409870,1488916905.7494609356,        0.1562500000,       -0.4033203125,        0.0214843750,       62.5762939453,       66.3909912109,      172.8973388672
1488916905.7497529984,1488916905.7521650791,        0.1562500000,       -0.4033203125,        0.0214843750,       50.8575439453,       73.1353759766,      185.9436035156
1488916905.7524600029,1488916905.7548251152,        0.1191406250,       -0.4101562500,        0.0717773438,       53.3447265625,       73.1353759766,      185.9436035156
1488916905.7551100254,1488916905.7574019432,        0.1191406250,       -0.4101562500,        0.0717773438,       53.3447265625,       73.1353759766,      194.1070556641
1488916905.7576870918,1488916905.7599680424,        0.1191406250,       -0.4101562500,        0.0717773438,       41.0156250000,       72.5708007812,      194.1070556641
1488916905.7602539062,1488916905.7625470161,        0.1191406250,       -0.4101562500,        0.0717773438,       41.0156250000,       72.5708007812,      207.4584960938
1488916905.7628319263,1488916905.7651729584,        0.3842773438,       -0.2392578125,        0.0576171875,       18.0816650391,       78.4912109375,      207.4584960938
1488916905.7654590607,1488916905.7677440643,        0.3842773438,       -0.2392578125,        0.0576171875,       18.0816650391,       78.4912109375,      223.0834960938
1488916905.7680289745,1488916905.7703270912,        0.3842773438,       -0.2392578125,        0.0576171875,      -11.4440917969,       89.2944335938,      224.1668701172
1488916905.7706120014,1488916905.7729010582,        0.3842773438,       -0.2392578125,        0.0844726562,      -11.4440917969,       89.2944335938,      224.1668701172
1488916905.7731859684,1488916905.7755279541,        0.7695312500,       -0.0292968750,        0.0844726562,      -35.1257324219,       93.9788818359,      238.4948730469
1488916905.7758150101,1488916905.7781019211,        0.7695312500,       -0.0292968750,        0.0844726562,      -35.1257324219,       93.9788818359,      238.4948730469
1488916905.7783870697,1488916905.7806720734,        0.7695312500,       -0.0292968750,        0.0844726562,      -56.1676025391,       84.9151611328,      256.2713623047
1488916905.7809569836,1488916905.7832520008,        0.7695312500,       -0.2792968750,        0.0556640625,      -56.1676025391,       84.9151611328,      256.2713623047
1488916905.7836329937,1488916905.7860600948,        0.1166992188,       -0.2739257812,        0.0556640625,      -70.1751708984,       78.9794921875,      273.3459472656
1488916905.7863531113,1488916905.7887699604,        0.1166992188,       -0.2739257812,        0.0556640625,      -70.1751708984,       78.9794921875,      273.3459472656
1488916905.7890639305,1488916905.7914779186,        0.1166992188,       -0.2739257812,        0.0556640625,      -73.0285644531,       76.7364501953,      289.2608642578
1488916905.7917718887,1488916905.7941479683,        0.2265625000,       -0.3081054688,        0.0874023438,      -73.0285644531,       76.7364501953,      289.2608642578
1488916905.7944340706,1488916905.7967278957,        0.2265625000,       -0.3081054688,        0.0874023438,      -71.1822509766,       73.6999511719,      306.3049316406
1488916905.7970139980,1488916905.7992999554,        0.2265625000,       -0.3081054688,        0.0874023438,      -71.1822509766,       73.6999511719,      306.3049316406
1488916905.7995860577,1488916905.8018810749,        0.2265625000,       -0.3081054688,        0.0874023438,      -65.9484863281,       71.5179443359,      319.9768066406
1488916905.8021678925,1488916905.8045389652,        0.6933593750,       -0.0766601562,        0.1918945312,      -65.9484863281,       71.5179443359,      319.9768066406
1488916905.8048319817,1488916905.8072519302,        0.6933593750,       -0.0766601562,        0.1918945312,      -55.9082031250,       69.9157714844,      327.6519775391
1488916905.8076579571,1488916905.8100728989,        0.6933593750,       -0.0766601562,        0.1918945312,      -55.9082031250,       69.9157714844,      327.6519775391
1488916905.8103640079,1488916905.8127839565,        0.6933593750,       -0.0766601562,        0.1918945312,      -46.9512939453,       65.2008056641,      336.7462158203
1488916905.8130769730,1488916905.8155050278,        0.5039062500,       -0.2001953125,        0.1518554688,      -46.9512939453,       65.2008056641,      336.7462158203
1488916905.8157970905,1488916905.8182139397,        0.5039062500,       -0.2001953125,        0.1518554688,      -37.4298095703,       59.0209960938,      347.1069335938
1488916905.8185060024,1488916905.8209230900,        0.5039062500,       -0.2001953125,        0.1518554688,      -37.4298095703,       59.0209960938,      347.1069335938
1488916905.8212161064,1488916905.8236730099,        0.5039062500,       -0.2001953125,        0.1303710938,      -22.0489501953,       53.8482666016,      356.8725585938
1488916905.8239669800,1488916905.8263900280,        0.6362304688,       -0.2265625000,        0.1303710938,      -22.0489501953,       53.8482666016,      356.8725585938
1488916905.8266830444,1488916905.8291020393,        0.6362304688,       -0.2265625000,        0.1303710938,       -4.0588378906,       48.9654541016,      364.6392822266
1488916905.8293910027,1488916905.8318080902,        0.6362304688,       -0.2265625000,        0.1303710938,       -4.0588378906,       48.9654541016,      364.6392822266
1488916905.8320980072,1488916905.8345289230,        0.8139648438,       -0.2416992188,        0.1289062500,       15.5181884766,       47.1649169922,      371.1547851562
1488916905.8348228931,1488916905.8372399807,        0.8139648438,       -0.2416992188,        0.1289062500,       15.5181884766,       47.1649169922,      371.1547851562
1488916905.8375310898,1488916905.8400189877,        0.8139648438,       -0.2416992188,        0.1289062500,       34.8663330078,       44.9066162109,      377.9144287109
1488916905.8403120041,1488916905.8427228928,        0.8139648438,       -0.2416992188,        0.1289062500,       34.8663330078,       44.9066162109,      377.9144287109
1488916905.8430140018,1488916905.8453679085,        0.9223632812,       -0.2016601562,        0.0493164062,       50.9948730469,       42.8314208984,      384.2163085938
1488916905.8456540108,1488916905.8479421139,        0.9223632812,       -0.2016601562,        0.0493164062,       50.9948730469,       42.8314208984,      384.2163085938
1488916905.8482260704,1488916905.8505179882,        0.9223632812,       -0.2016601562,        0.0493164062,       64.9719238281,       41.6107177734,      390.9301757812
1488916905.8508040905,1488916905.8530879021,        0.9223632812,       -0.2016601562,        0.0493164062,       64.9719238281,       41.6107177734,      390.9301757812
1488916905.8533730507,1488916905.8557739258,        1.0708007812,       -0.1669921875,       -0.0087890625,       75.3479003906,       39.8712158203,      398.2696533203
1488916905.8560640812,1488916905.8584620953,        1.0708007812,       -0.1669921875,       -0.0087890625,       75.3479003906,       39.8712158203,      398.2696533203
1488916905.8587529659,1488916905.8611540794,        1.0708007812,       -0.1669921875,       -0.0087890625,       83.1604003906,       38.1317138672,      405.1971435547
1488916905.8614439964,1488916905.8638839722,        1.0708007812,       -0.1669921875,       -0.0888671875,       84.0301513672,       38.1317138672,      405.1971435547
1488916905.8641738892,1488916905.8665730953,        1.2456054688,       -0.1245117188,       -0.0888671875,       91.8426513672,       35.9954833984,      411.0870361328
1488916905.8668649197,1488916905.8692650795,        1.2456054688,       -0.1245117188,       -0.0888671875,       90.8508300781,       35.9954833984,      411.0870361328
1488916905.8695580959,1488916905.8719539642,        1.2456054688,       -0.1245117188,       -0.0888671875,       94.7570800781,       33.5388183594,      415.8630371094
1488916905.8723518848,1488916905.8747038841,        1.4487304688,       -0.0400390625,       -0.1254882812,       96.8475341797,       33.5388183594,      415.8630371094
1488916905.8749880791,1488916905.8772799969,        1.4487304688,       -0.0400390625,       -0.1254882812,       96.8475341797,       31.4483642578,      418.8537597656
1488916905.8775639534,1488916905.8798530102,        1.4487304688,       -0.0400390625,       -0.1254882812,      101.0742187500,       31.4483642578,      418.8537597656
1488916905.8801360130,1488916905.8824219704,        1.4487304688,       -0.0400390625,       -0.1254882812,      101.0742187500,       27.5421142578,      419.7998046875
1488916905.8827071190,1488916905.8851590157,        1.6401367188,        0.1162109375,       -0.1430664062,      102.6763916016,       30.2124023438,      419.7998046875
1488916905.8854460716,1488916905.8877339363,        1.6401367188,        0.1162109375,       -0.1430664062,      102.6763916016,       30.2124023438,      419.3878173828
1488916905.8880169392,1488916905.8903050423,        1.6401367188,        0.1162109375,       -0.1430664062,      104.2938232422,       31.0516357422,      419.3878173828
1488916905.8905909061,1488916905.8928759098,        1.6401367188,        0.1162109375,       -0.1430664062,      104.2938232422,       31.0516357422,      415.4815673828
1488916905.8931620121,1488916905.8955430984,        1.8032226562,        0.2446289062,       -0.1455078125,      107.4829101562,       33.7219238281,      417.1905517578
1488916905.8958280087,1488916905.8981249332,        1.8032226562,        0.2446289062,       -0.1455078125,      107.4829101562,       33.7219238281,      417.1905517578
1488916905.8984088898,1488916905.9006979465,        1.8032226562,        0.2446289062,       -0.1455078125,      111.0229492188,       36.0870361328,      413.8641357422
1488916905.9009819031,1488916905.9032700062,        1.8032226562,        0.2446289062,       -0.1455078125,      111.0229492188,       36.0870361328,      413.8641357422
1488916905.9035620689,1488916905.9059779644,        1.8828125000,        0.4916992188,       -0.1435546875,      114.2578125000,       38.8488769531,      409.7290039062
1488916905.9062719345,1488916905.9086899757,        1.8828125000,        0.4916992188,       -0.1435546875,      114.2578125000,       38.8488769531,      409.7290039062
1488916905.9089798927,1488916905.9113919735,        1.8828125000,        0.4916992188,       -0.1435546875,      110.8398437500,       44.0673828125,      405.5023193359
1488916905.9116859436,1488916905.9141108990,        1.8828125000,        0.4916992188,       -0.1440429688,      110.8398437500,       44.0673828125,      405.5023193359
1488916905.9144010544,1488916905.9168090820,        1.8657226562,        0.9121093750,       -0.1440429688,      100.2655029297,       48.5382080078,      402.3284912109
1488916905.9171020985,1488916905.9195148945,        1.8657226562,        0.9121093750,       -0.1440429688,      100.2655029297,       48.5382080078,      402.3284912109
1488916905.9198069572,1488916905.9222180843,        1.8657226562,        0.9121093750,       -0.1440429688,       84.2590332031,       52.7801513672,      398.5900878906
1488916905.9225099087,1488916905.9249351025,        1.8657226562,        1.2265625000,       -0.1787109375,       84.2590332031,       52.7801513672,      398.5900878906
1488916905.9252259731,1488916905.9276430607,        1.8461914062,        1.2265625000,       -0.1787109375,       65.4907226562,       57.0526123047,      392.8222656250
1488916905.9279329777,1488916905.9303450584,        1.8461914062,        1.2265625000,       -0.1787109375,       65.4907226562,       57.0526123047,      392.8222656250
1488916905.9306368828,1488916905.9330511093,        1.8461914062,        1.2265625000,       -0.1787109375,       50.1556396484,       60.9130859375,      381.9274902344
1488916905.9333400726,1488916905.9356539249,        2.0004882812,        1.4238281250,       -0.3662109375,       50.1556396484,       60.9130859375,      381.9274902344
1488916905.9360449314,1488916905.9383358955,        2.0004882812,        1.4238281250,       -0.3662109375,       40.6341552734,       64.1479492188,      363.2202148438
1488916905.9386188984,1488916905.9409070015,        2.0004882812,        1.4238281250,       -0.3662109375,       40.6341552734,       64.1479492188,      363.2202148438
1488916905.9411900043,1488916905.9435210228,        2.0004882812,        1.4238281250,       -0.3662109375,       36.7584228516,       64.8040771484,      333.8928222656
1488916905.9438130856,1488916905.9462120533,        2.0683593750,        1.6997070312,       -0.6308593750,       36.7584228516,       64.8040771484,      333.8928222656
1488916905.9465010166,1488916905.9489068985,        2.0683593750,        1.6997070312,       -0.6308593750,       34.3933105469,       63.1408691406,      295.9747314453
1488916905.9491980076,1488916905.9517209530,        2.0683593750,        1.6997070312,       -0.6308593750,       34.3933105469,       63.1408691406,      295.9747314453
1488916905.9520061016,1488916905.9544200897,        2.0683593750,        1.6997070312,       -0.7558593750,       27.4658203125,       59.1125488281,      253.8146972656
1488916905.9547090530,1488916905.9570899010,        1.7719726562,        2.2329101562,       -0.8701171875,       27.4658203125,       59.1125488281,      253.8146972656
1488916905.9573791027,1488916905.9598751068,        1.7719726562,        2.2329101562,       -0.8701171875,       17.7917480469,       50.3387451172,      211.6546630859
1488916905.9601650238,1488916905.9625480175,        1.7719726562,        2.2329101562,       -0.8701171875,       17.7917480469,       50.3387451172,      211.6546630859
1488916905.9632229805,1488916905.9656751156,        1.2524414062,        2.7480468750,       -0.9697265625,        6.0272216797,       38.3911132812,      170.2880859375
1488916905.9659619331,1488916905.9683659077,        1.2524414062,        2.7480468750,       -0.9697265625,        6.0272216797,       38.3911132812,      170.2880859375
1488916905.9686520100,1488916905.9710509777,        1.2524414062,        2.7480468750,       -0.9697265625,       -3.8452148438,       25.5889892578,      128.6621093750
1488916905.9713370800,1488916905.9737460613,        1.2524414062,        2.7480468750,       -0.9697265625,       -3.8452148438,       25.5889892578,      128.6621093750
1488916905.9740300179,1488916905.9764130116,        0.8701171875,        2.9340820312,       -0.9497070312,       -7.6751708984,       12.5274658203,       89.3554687500
1488916905.9766991138,1488916905.9790790081,        0.8701171875,        2.9340820312,       -0.9497070312,       -7.6751708984,       12.5274658203,       89.3554687500
1488916905.9793629646,1488916905.9817481041,        0.8701171875,        2.9340820312,       -0.9497070312,      -15.9912109375,        5.8593750000,       52.3681640625
1488916905.9820330143,1488916905.9844570160,        0.8701171875,        2.9340820312,       -0.9497070312,      -15.9912109375,        5.8593750000,       52.3681640625
1488916905.9847381115,1488916905.9870290756,        0.7900390625,        3.2421875000,       -0.7905273438,      -27.7709960938,        6.2103271484,        7.5836181641
1488916905.9873049259,1488916905.9895989895,        0.7900390625,        3.2421875000,       -0.7905273438,      -27.7709960938,        6.2103271484,        7.5836181641
1488916905.9898788929,1488916905.9921660423,        0.7900390625,        3.2421875000,       -0.7905273438,      -24.3072509766,        5.5847167969,      -39.0625000000
1488916905.9924459457,1488916905.9947879314,        0.7900390625,        3.2421875000,       -0.8842773438,      -24.3072509766,        5.5847167969,      -39.0625000000
1488916905.9950668812,1488916905.9973669052,        0.8964843750,        3.0854492188,       -0.8842773438,      -12.1917724609,        1.2817382812,      -81.4971923828
1488916905.9976480007,1488916905.9999370575,        0.8964843750,        3.0854492188,       -0.8842773438,      -12.1917724609,        1.2817382812,      -81.4971923828
1488916906.0003330708,1488916906.0026330948,        0.8964843750,        3.0854492188,       -0.8842773438,       -0.4730224609,       -7.1563720703,     -119.8425292969
1488916906.0029110909,1488916906.0053400993,        0.8964843750,        2.7104492188,       -0.9423828125,       -2.7618408203,       -7.1563720703,     -119.8425292969
1488916906.0056180954,1488916906.0079081059,        0.7504882812,        2.6943359375,       -0.9423828125,       -2.7618408203,      -18.2037353516,     -153.6102294922
1488916906.0081899166,1488916906.0104908943,        0.7504882812,        2.6943359375,       -0.9423828125,       -1.3275146484,      -18.2037353516,     -153.6102294922
1488916906.0107729435,1488916906.0130589008,        0.7504882812,        2.6943359375,       -0.9423828125,       -1.3275146484,      -29.9224853516,     -170.8984375000
1488916906.0133399963,1488916906.0159020424,        1.5004882812,        1.4150390625,       -0.9238281250,       -3.8604736328,      -27.4353027344,     -170.8984375000
1488916906.0161890984,1488916906.0185949802,        1.6162109375,        1.4150390625,       -0.9238281250,       -3.8604736328,      -23.5290527344,     -141.0675048828
1488916906.0188798904,1488916906.0212750435,        1.6162109375,        1.4150390625,       -0.9238281250,       -8.6212158203,      -24.3988037109,     -141.0675048828
1488916906.0215609074,1488916906.0242440701,        1.6162109375,        1.4150390625,       -0.9238281250,       -8.6212158203,      -12.6800537109,     -150.6042480469
1488916906.0245308876,1488916906.0269110203,        0.4208984375,       -1.6074218750,        0.1127929688,        9.2773437500,      -14.6331787109,     -150.6042480469
1488916906.0271980762,1488916906.0299971104,        0.4208984375,       -1.6074218750,        0.1127929688,        9.2773437500,       -6.8206787109,     -157.9437255859
1488916906.0302860737,1488916906.0327041149,        0.4208984375,       -1.6074218750,        0.1127929688,      -15.1367187500,       -4.5776367188,     -157.9437255859
1488916906.0329930782,1488916906.0353078842,        0.4208984375,       -1.6074218750,        0.5249023438,       12.2070312500,       14.0228271484,     -198.8677978516
1488916906.0355920792,1488916906.0378859043,        1.6469726562,       -1.7812500000,        0.5249023438,       11.8255615234,       14.0228271484,     -198.8677978516
1488916906.0381689072,1488916906.0404551029,        1.6469726562,       -1.7812500000,        0.5249023438,       11.8255615234,      -17.2271728516,     -250.3662109375
1488916906.0407381058,1488916906.0430281162,        1.6469726562,       -1.7812500000,        0.5249023438,       63.5833740234,      -16.7236328125,     -250.3662109375
1488916906.0433111191,1488916906.0457339287,        1.6469726562,       -0.2812500000,       -0.1318359375,       63.5833740234,      -16.7236328125,     -285.6903076172
1488916906.0460278988,1488916906.0484418869,        1.4052734375,       -0.2626953125,       -0.1318359375,       77.0874023438,      -58.0749511719,     -285.6903076172
1488916906.0487339497,1488916906.0511519909,        1.4052734375,       -0.2626953125,       -0.1318359375,       77.0874023438,      -58.0749511719,     -293.8690185547
1488916906.0514419079,1488916906.0538690090,        1.4052734375,       -0.2626953125,       -0.1318359375,      109.1766357422,      -78.7200927734,     -293.8690185547
1488916906.0541620255,1488916906.0565750599,        1.5517578125,        1.1240234375,       -0.2890625000,      109.1766357422,      -78.7200927734,     -268.2800292969
1488916906.0568668842,1488916906.0592780113,        1.5517578125,        1.1240234375,       -0.2890625000,      143.4936523438,      -80.9783935547,     -268.2800292969
1488916906.0595700741,1488916906.0619850159,        1.5517578125,        1.1240234375,       -0.2890625000,      143.4936523438,      -80.9783935547,     -237.5183105469
1488916906.0622758865,1488916906.0646429062,        1.5517578125,        1.1240234375,       -0.2890625000,      147.1557617188,      -81.0699462891,     -237.5183105469
1488916906.0650379658,1488916906.0673329830,        2.0815429688,        1.2319335938,       -0.4868164062,      147.1557617188,      -81.0699462891,     -239.2425537109
1488916906.0676178932,1488916906.0699059963,        2.0815429688,        1.2319335938,       -0.4868164062,      119.0643310547,      -83.0383300781,     -239.2425537109
1488916906.0701889992,1488916906.0724799633,        2.0815429688,        1.2319335938,       -0.4868164062,      119.0643310547,      -83.0383300781,     -258.7738037109
1488916906.0727629662,1488916906.0751399994,        2.0815429688,        1.2319335938,       -0.4868164062,       73.0590820312,      -86.5478515625,     -261.3983154297
1488916906.0754261017,1488916906.0777199268,        1.1059570312,        0.5854492188,       -0.0952148438,       73.0590820312,      -86.5478515625,     -261.3983154297
1488916906.0780060291,1488916906.0802938938,        1.1059570312,        0.5854492188,       -0.0952148438,       44.8150634766,      -90.1947021484,     -255.3558349609
1488916906.0805780888,1488916906.0828690529,        1.1059570312,        0.5854492188,       -0.0952148438,       44.8150634766,      -90.1947021484,     -255.3558349609
1488916906.0831539631,1488916906.0855350494,        1.1059570312,        0.5854492188,        0.0297851562,       44.2199707031,      -88.4704589844,     -226.5625000000
1488916906.0858221054,1488916906.0881130695,        0.1875000000,        0.1547851562,        0.0131835938,       44.2199707031,      -88.4704589844,     -226.5625000000
1488916906.0883979797,1488916906.0906879902,        0.1875000000,        0.1547851562,        0.0131835938,       63.2629394531,      -79.7271728516,     -193.6035156250
1488916906.0909740925,1488916906.0932660103,        0.1875000000,        0.1547851562,        0.0131835938,       63.2629394531,      -79.7271728516,     -193.6035156250
1488916906.0935590267,1488916906.0959739685,        0.1875000000,        0.1547851562,       -0.3090820312,       68.4967041016,      -70.7702636719,     -157.6385498047
1488916906.0962679386,1488916906.0986809731,        0.3828125000,        0.4638671875,       -0.3090820312,       68.4967041016,      -70.7702636719,     -157.6385498047
1488916906.0989739895,1488916906.1013879776,        0.3828125000,        0.4638671875,       -0.3090820312,       51.0406494141,      -62.7441406250,     -138.0462646484
1488916906.1016809940,1488916906.1041049957,        0.3828125000,        0.4638671875,       -0.3090820312,       51.0406494141,      -62.7441406250,     -138.0462646484
1488916906.1043970585,1488916906.1068120003,        0.5952148438,        0.8359375000,       -0.5834960938,       18.5699462891,      -58.1665039062,     -129.4555664062
1488916906.1071040630,1488916906.1095221043,        0.5952148438,        0.8359375000,       -0.5834960938,       18.5699462891,      -58.1665039062,     -129.4555664062
1488916906.1098139286,1488916906.1122279167,        0.5952148438,        0.8359375000,       -0.5834960938,      -10.7116699219,      -61.2792968750,     -112.1826171875
1488916906.1125199795,1488916906.1149539948,        0.5952148438,        0.8359375000,       -0.5834960938,      -10.7116699219,      -61.2792968750,     -112.1826171875
1488916906.1152451038,1488916906.1176590919,        1.0561523438,        0.7231445312,       -0.4990234375,      -18.9361572266,      -60.9436035156,      -98.3734130859
1488916906.1179509163,1488916906.1203610897,        1.0561523438,        0.7231445312,       -0.4990234375,      -18.9361572266,      -60.9436035156,      -98.3734130859
1488916906.1206529140,1488916906.1230690479,        1.0561523438,        0.7231445312,       -0.4990234375,      -24.0020751953,      -50.5371093750,     -102.5238037109
1488916906.1233611107,1488916906.1256639957,        1.0561523438,        0.7231445312,       -0.4990234375,      -24.0020751953,      -50.5371093750,     -102.5238037109
1488916906.1259479523,1488916906.1282401085,        0.7934570312,        0.1704101562,       -0.0761718750,      -29.5715332031,      -41.5954589844,     -105.7281494141
1488916906.1286299229,1488916906.1309189796,        0.7934570312,        0.1704101562,       -0.0761718750,      -29.5715332031,      -41.5954589844,     -105.7281494141
1488916906.1312029362,1488916906.1334989071,        0.7934570312,        0.1704101562,       -0.0761718750,      -33.2794189453,      -36.2854003906,     -102.3254394531
1488916906.1337850094,1488916906.1360709667,        0.7934570312,        0.1704101562,       -0.1669921875,      -33.2794189453,      -36.2854003906,     -102.3254394531
1488916906.1363570690,1488916906.1386399269,        0.7304687500,        0.2382812500,       -0.1669921875,      -33.2794189453,      -35.0341796875,      -96.1303710938
1488916906.1389260292,1488916906.1413249969,        0.7304687500,        0.2382812500,       -0.1669921875,      -32.8063964844,      -35.0341796875,      -96.1303710938
1488916906.1416110992,1488916906.1439468861,        0.7304687500,        0.2382812500,       -0.1669921875,      -32.8063964844,      -36.2548828125,      -90.6219482422
1488916906.1442389488,1488916906.1466488838,        0.7304687500,        0.2382812500,       -0.1586914062,      -30.4870605469,      -36.2548828125,      -90.6219482422
1488916906.1469409466,1488916906.1493489742,        0.7651367188,        0.1855468750,       -0.1586914062,      -30.4870605469,      -36.2548828125,      -86.8072509766
1488916906.1496400833,1488916906.1520609856,        0.7651367188,        0.1855468750,       -0.1586914062,      -29.2053222656,      -36.1328125000,      -86.8072509766
1488916906.1523520947,1488916906.1547820568,        0.7651367188,        0.1855468750,       -0.1586914062,      -29.2053222656,      -32.2265625000,      -82.3974609375
1488916906.1550729275,1488916906.1574859619,        0.6220703125,        0.1298828125,       -0.0820312500,      -31.6467285156,      -34.7747802734,      -82.3974609375
1488916906.1577780247,1488916906.1602001190,        0.6220703125,        0.1298828125,       -0.0820312500,      -31.6467285156,      -34.7747802734,      -76.5380859375
1488916906.1604928970,1488916906.1629040241,        0.6220703125,        0.1298828125,       -0.0820312500,      -34.2712402344,      -34.1033935547,      -76.5380859375
1488916906.1631970406,1488916906.1656770706,        0.6220703125,        0.1298828125,       -0.0820312500,      -34.2712402344,      -34.1033935547,      -69.1833496094
1488916906.1659710407,1488916906.1683869362,        0.5781250000,        0.1904296875,       -0.1352539062,      -34.4390869141,      -34.0270996094,      -69.1833496094
1488916906.1686809063,1488916906.1710948944,        0.5781250000,        0.1904296875,       -0.1352539062,      -34.4390869141,      -34.0270996094,      -60.0433349609
1488916906.1713869572,1488916906.1737880707,        0.5781250000,        0.1904296875,       -0.1352539062,      -35.7818603516,      -33.1268310547,      -60.0433349609
1488916906.1740729809,1488916906.1763648987,        0.5781250000,        0.1904296875,       -0.0102539062,      -35.7818603516,      -33.1268310547,      -51.4831542969
1488916906.1766490936,1488916906.1789369583,        0.5996093750,        0.1879882812,       -0.1220703125,      -40.1916503906,      -31.9976806641,      -51.4831542969
1488916906.1792209148,1488916906.1815121174,        0.5996093750,        0.1879882812,       -0.1220703125,      -40.1916503906,      -31.9976806641,      -43.7469482422
1488916906.1817948818,1488916906.1842219830,        0.5996093750,        0.1879882812,       -0.1220703125,      -43.9758300781,      -31.2957763672,      -43.7469482422
1488916906.1845090389,1488916906.1868040562,        0.5996093750,        0.1879882812,       -0.0717773438,      -43.9758300781,      -31.2957763672,      -35.9344482422
1488916906.1870880127,1488916906.1893770695,        0.6264648438,        0.1542968750,       -0.0717773438,      -43.9910888672,      -30.2276611328,      -36.8804931641
1488916906.1896619797,1488916906.1919550896,        0.6264648438,        0.1542968750,       -0.0717773438,      -43.9910888672,      -30.2276611328,      -36.8804931641
1488916906.1922409534,1488916906.1946189404,        0.6264648438,        0.1542968750,       -0.0717773438,      -41.3208007812,      -29.6020507812,      -32.1502685547
1488916906.1950221062,1488916906.1974380016,        0.6264648438,        0.1108398438,       -0.0898437500,      -41.3208007812,      -29.6020507812,      -32.1502685547
1488916906.1977319717,1488916906.2001490593,        0.6606445312,        0.1108398438,       -0.0898437500,      -38.1469726562,      -29.8461914062,      -29.1442871094
1488916906.2004439831,1488916906.2028648853,        0.6606445312,        0.1108398438,       -0.0898437500,      -38.1469726562,      -29.8461914062,      -29.1442871094
1488916906.2031559944,1488916906.2055799961,        0.6606445312,        0.1108398438,       -0.0898437500,      -38.8183593750,      -29.7088623047,      -27.1759033203
1488916906.2058739662,1488916906.2082939148,        0.6533203125,        0.0527343750,       -0.0952148438,      -38.8183593750,      -29.7088623047,      -27.1759033203
1488916906.2085859776,1488916906.2110071182,        0.6533203125,        0.0527343750,       -0.0952148438,      -39.7186279297,      -29.2358398438,      -25.6195068359
1488916906.2112998962,1488916906.2137250900,        0.6533203125,        0.0527343750,       -0.0952148438,      -39.7186279297,      -29.2358398438,      -25.6195068359
1488916906.2140181065,1488916906.2164390087,        0.6533203125,        0.0527343750,       -0.0952148438,      -39.3676757812,      -28.4729003906,      -25.7415771484
1488916906.2167301178,1488916906.2191469669,        0.6865234375,        0.0356445312,       -0.1401367188,      -39.3676757812,      -28.4729003906,      -25.7415771484
1488916906.2194418907,1488916906.2218599319,        0.6865234375,        0.0356445312,       -0.1401367188,      -36.6668701172,      -26.5808105469,      -26.4587402344
1488916906.2221519947,1488916906.2245790958,        0.6865234375,        0.0356445312,       -0.1401367188,      -36.6668701172,      -26.5808105469,      -26.4587402344
1488916906.2248721123,1488916906.2273850441,        0.6865234375,        0.0356445312,       -0.1835937500,      -33.8287353516,      -24.5819091797,      -26.7333984375
1488916906.2276721001,1488916906.2299630642,        0.6860351562,        0.0043945312,       -0.1835937500,      -33.8287353516,      -24.5819091797,      -26.7333984375
1488916906.2302479744,1488916906.2325420380,        0.6860351562,        0.0043945312,       -0.1835937500,      -30.8532714844,      -22.9644775391,      -28.3050537109
1488916906.2328269482,1488916906.2353119850,        0.6860351562,        0.0043945312,       -0.1835937500,      -30.8532714844,      -22.9644775391,      -28.3050537109
1488916906.2355999947,1488916906.2378931046,        0.6713867188,       -0.0546875000,       -0.2719726562,      -28.3813476562,      -21.0266113281,      -30.4565429688
1488916906.2381789684,1488916906.2405819893,        0.6713867188,       -0.0546875000,       -0.2719726562,      -28.3813476562,      -21.0266113281,      -30.4565429688
1488916906.2408690453,1488916906.2431640625,        0.6713867188,       -0.0546875000,       -0.2719726562,      -28.7322998047,      -18.5089111328,      -32.9742431641
1488916906.2443029881,1488916906.2465929985,        0.6713867188,       -0.0546875000,       -0.2719726562,      -28.7322998047,      -18.5089111328,      -32.9742431641
1488916906.2468810081,1488916906.2491660118,        0.6801757812,        0.0073242188,       -0.3110351562,      -30.5328369141,      -15.4418945312,      -34.2864990234
1488916906.2494530678,1488916906.2517430782,        0.6801757812,        0.0073242188,       -0.3110351562,      -30.5328369141,      -15.4418945312,      -34.2864990234
1488916906.2520270348,1488916906.2543230057,        0.6801757812,        0.0073242188,       -0.3110351562,      -31.9061279297,      -13.0157470703,      -37.3382568359
1488916906.2546100616,1488916906.2569000721,        0.6801757812,        0.0073242188,       -0.3110351562,      -31.9061279297,      -13.0157470703,      -37.3382568359
1488916906.2571859360,1488916906.2594749928,        0.6425781250,        0.0029296875,       -0.2226562500,      -34.0423583984,      -12.1459960938,      -40.8325195312
1488916906.2598679066,1488916906.2621529102,        0.6425781250,        0.0029296875,       -0.2226562500,      -34.0423583984,      -12.1459960938,      -40.8325195312
1488916906.2624371052,1488916906.2647349834,        0.6425781250,        0.0029296875,       -0.2226562500,      -37.2009277344,      -12.4511718750,      -44.0521240234
1488916906.2650198936,1488916906.2673070431,        0.6425781250,        0.0029296875,       -0.2099609375,      -37.2009277344,      -12.4511718750,      -44.0521240234
1488916906.2675919533,1488916906.2698791027,        0.6435546875,       -0.0004882812,       -0.2099609375,      -38.9404296875,      -13.1530761719,      -46.8444824219
1488916906.2701630592,1488916906.2724540234,        0.6435546875,       -0.0004882812,       -0.2099609375,      -38.9404296875,      -13.1530761719,      -46.8444824219
1488916906.2727370262,1488916906.2750260830,        0.6435546875,       -0.0004882812,       -0.2099609375,      -40.4052734375,      -13.8244628906,      -48.4466552734
1488916906.2753109932,1488916906.2775990963,        0.6435546875,        0.1245117188,       -0.2006835938,      -40.4052734375,      -13.8244628906,      -48.4466552734
1488916906.2778849602,1488916906.2801680565,        0.6289062500,        0.0371093750,       -0.2006835938,      -44.3115234375,      -14.8925781250,      -51.1169433594
1488916906.2804529667,1488916906.2827410698,        0.6289062500,        0.0371093750,       -0.2006835938,      -43.5180664062,      -14.8925781250,      -51.1169433594
1488916906.2830278873,1488916906.2853829861,        0.6289062500,        0.0371093750,       -0.2006835938,      -43.5180664062,      -18.7988281250,      -53.2226562500
1488916906.2856678963,1488916906.2879559994,        0.6289062500,        0.0781250000,       -0.2128906250,      -43.9453125000,      -15.7318115234,      -53.2226562500
1488916906.2882399559,1488916906.2905180454,        0.6372070312,        0.0781250000,       -0.2128906250,      -43.9453125000,      -15.7318115234,      -57.7087402344
1488916906.2908010483,1488916906.2930910587,        0.6372070312,        0.0781250000,       -0.2128906250,      -42.6788330078,      -17.1966552734,      -57.7087402344
1488916906.2933759689,1488916906.2957489491,        0.6372070312,        0.0781250000,       -0.2128906250,      -42.6788330078,      -17.1966552734,      -57.7087402344
1488916906.2960340977,1488916906.2983260155,        0.6372070312,       -0.0224609375,       -0.1967773438,      -41.9006347656,      -15.5029296875,      -57.7392578125
1488916906.2986099720,1488916906.3008921146,        0.7446289062,       -0.0224609375,       -0.1967773438,      -41.9006347656,      -15.5029296875,      -57.7392578125
1488916906.3011760712,1488916906.3035988808,        0.7446289062,       -0.0224609375,       -0.1967773438,      -30.0598144531,      -10.3149414062,      -54.7790527344
1488916906.3038859367,1488916906.3061749935,        0.7446289062,       -0.0224609375,       -0.1967773438,      -30.0598144531,      -10.3149414062,      -54.7790527344
1488916906.3064610958,1488916906.3087439537,        0.6318359375,        0.1489257812,       -0.2573242188,      -28.1066894531,      -10.4217529297,      -63.9343261719
1488916906.3090310097,1488916906.3113160133,        0.6318359375,        0.1489257812,       -0.2573242188,      -28.1066894531,      -10.4217529297,      -63.9343261719
1488916906.3116009235,1488916906.3138880730,        0.6318359375,        0.1489257812,       -0.2573242188,      -35.3393554688,      -11.8103027344,      -60.5316162109
1488916906.3141729832,1488916906.3164570332,        0.6318359375,        0.1489257812,       -0.2573242188,      -35.3393554688,      -11.8103027344,      -60.5316162109
1488916906.3167409897,1488916906.3190219402,        0.7260742188,        0.0151367188,       -0.2329101562,      -28.7780761719,      -12.7868652344,      -59.4024658203
1488916906.3193049431,1488916906.3215849400,        0.7260742188,        0.0151367188,       -0.2329101562,      -28.7780761719,      -12.7868652344,      -59.4024658203
1488916906.3219740391,1488916906.3243200779,        0.7260742188,        0.0151367188,       -0.2329101562,      -24.6276855469,      -11.9628906250,      -63.7664794922
1488916906.3246130943,1488916906.3270320892,        0.7260742188,        0.0151367188,       -0.2329101562,      -24.6276855469,      -11.9628906250,      -63.7664794922
1488916906.3273229599,1488916906.3297810555,        0.6411132812,        0.1518554688,       -0.2363281250,      -29.1442871094,      -12.4359130859,      -63.8122558594
1488916906.3300669193,1488916906.3323609829,        0.6411132812,        0.1518554688,       -0.2363281250,      -29.1442871094,      -12.4359130859,      -63.8122558594
1488916906.3326470852,1488916906.3351778984,        0.6411132812,        0.1518554688,       -0.2363281250,      -31.4941406250,      -14.3890380859,      -60.8367919922
1488916906.3354680538,1488916906.3378479481,        0.6411132812,        0.1518554688,       -0.2363281250,      -31.4941406250,      -14.3890380859,      -60.8367919922
1488916906.3381359577,1488916906.3407170773,        0.6865234375,        0.1000976562,       -0.1767578125,      -29.6630859375,      -14.3432617188,      -60.8978271484
1488916906.3410050869,1488916906.3432929516,        0.6865234375,        0.1000976562,       -0.1767578125,      -29.6630859375,      -14.3432617188,      -60.8978271484
1488916906.3435759544,1488916906.3458681107,        0.6865234375,        0.1000976562,       -0.1767578125,      -30.9753417969,      -13.4887695312,      -61.5844726562
1488916906.3461549282,1488916906.3484458923,        0.6865234375,        0.1528320312,       -0.1308593750,      -30.9753417969,      -13.4887695312,      -61.5844726562
1488916906.3487310410,1488916906.3510169983,        0.6743164062,        0.1528320312,       -0.1308593750,      -34.8815917969,      -14.0533447266,      -60.2264404297
1488916906.3513019085,1488916906.3535959721,        0.6743164062,        0.1528320312,       -0.1308593750,      -32.4859619141,      -14.0533447266,      -60.2264404297
1488916906.3538789749,1488916906.3561699390,        0.6743164062,        0.1528320312,       -0.1308593750,      -32.4859619141,      -17.9595947266,      -58.1817626953
1488916906.3564560413,1488916906.3587450981,        0.6743164062,        0.1782226562,       -0.1049804688,      -34.8815917969,      -15.8233642578,      -58.1817626953
1488916906.3590309620,1488916906.3613150120,        0.7045898438,        0.1782226562,       -0.1049804688,      -34.8815917969,      -15.8233642578,      -57.2967529297
1488916906.3615989685,1488916906.3639008999,        0.7045898438,        0.1782226562,       -0.1049804688,      -39.2761230469,      -17.5476074219,      -57.2967529297
1488916906.3641850948,1488916906.3664729595,        0.7045898438,        0.1782226562,       -0.1049804688,      -39.2761230469,      -17.5476074219,      -57.2967529297
1488916906.3667559624,1488916906.3690481186,        0.7045898438,        0.1713867188,       -0.0766601562,      -45.4254150391,      -19.6838378906,      -57.1594238281
1488916906.3693320751,1488916906.3716180325,        0.7148437500,        0.1713867188,       -0.0766601562,      -45.4254150391,      -19.6838378906,      -57.1594238281
1488916906.3719019890,1488916906.3742671013,        0.7148437500,        0.1713867188,       -0.0766601562,      -50.8270263672,      -21.6979980469,      -58.2733154297
1488916906.3745529652,1488916906.3768379688,        0.7148437500,        0.1713867188,       -0.0766601562,      -50.8270263672,      -21.6979980469,      -58.2733154297
1488916906.3771231174,1488916906.3794069290,        0.7651367188,        0.1450195312,       -0.0107421875,      -54.6112060547,      -22.7508544922,      -58.1207275391
1488916906.3796930313,1488916906.3819909096,        0.7651367188,        0.1450195312,       -0.0107421875,      -54.6112060547,      -22.7508544922,      -58.1207275391
1488916906.3822760582,1488916906.3847279549,        0.7651367188,        0.1450195312,       -0.0107421875,      -58.6242675781,      -22.9644775391,      -62.1032714844
1488916906.3851239681,1488916906.3874139786,        0.7651367188,        0.1450195312,       -0.0107421875,      -58.6242675781,      -22.9644775391,      -62.1032714844
1488916906.3876988888,1488916906.3899888992,        0.8061523438,        0.2041015625,        0.0273437500,      -60.6231689453,      -23.7274169922,      -69.8394775391
1488916906.3902730942,1488916906.3925609589,        0.8061523438,        0.2041015625,        0.0273437500,      -60.6231689453,      -23.7274169922,      -69.8394775391
1488916906.3928439617,1488916906.3952910900,        0.8061523438,        0.2041015625,        0.0273437500,      -64.6820068359,      -24.5819091797,      -81.5582275391
1488916906.3955779076,1488916906.3978590965,        0.8061523438,        0.2041015625,        0.0273437500,      -64.6820068359,      -24.5819091797,      -81.5582275391
1488916906.3981449604,1488916906.4004340172,        0.8413085938,        0.1245117188,        0.0361328125,      -69.2749023438,      -25.4516601562,      -91.3085937500
1488916906.4007198811,1488916906.4030110836,        0.8413085938,        0.1245117188,        0.0361328125,      -69.2749023438,      -25.4516601562,      -91.3085937500
1488916906.4032969475,1488916906.4055969715,        0.8413085938,        0.1245117188,        0.0361328125,      -70.6481933594,      -26.3061523438,     -102.8747558594
1488916906.4058830738,1488916906.4081609249,        0.8413085938,        0.1245117188,        0.0361328125,      -70.6481933594,      -26.3061523438,     -102.8747558594
1488916906.4084470272,1488916906.4107410908,        0.8647460938,        0.0903320312,        0.0751953125,      -70.6481933594,      -25.7873535156,     -114.6697998047
1488916906.4110260010,1488916906.4133129120,        0.8647460938,        0.0903320312,        0.0751953125,      -71.0906982422,      -25.7873535156,     -114.6697998047
1488916906.4135990143,1488916906.4158980846,        0.8647460938,        0.0903320312,        0.0751953125,      -71.0906982422,      -25.7873535156,     -122.1313476562
1488916906.4161839485,1488916906.4184739590,        0.8647460938,        0.0903320312,        0.0751953125,      -71.6400146484,      -24.8565673828,     -122.1313476562
1488916906.4187591076,1488916906.4210510254,        0.9179687500,       -0.0258789062,        0.0869140625,      -71.6400146484,      -24.8565673828,     -127.8686523438
1488916906.4213380814,1488916906.4236910343,        0.9179687500,       -0.0258789062,        0.0869140625,      -70.7092285156,      -24.2004394531,     -127.8686523438
1488916906.4239859581,1488916906.4264049530,        0.9179687500,       -0.0258789062,        0.0869140625,      -70.7092285156,      -24.2004394531,     -143.4936523438
1488916906.4266989231,1488916906.4291141033,        0.9179687500,       -0.0258789062,       -0.0834960938,      -68.8934326172,      -23.3154296875,     -141.0217285156
1488916906.4294068813,1488916906.4318261147,        1.0527343750,       -0.0468750000,       -0.0834960938,      -68.8934326172,      -23.3154296875,     -152.7404785156
1488916906.4321188927,1488916906.4345510006,        1.0527343750,       -0.0468750000,       -0.0834960938,      -69.6258544922,      -22.5677490234,     -155.2429199219
1488916906.4348459244,1488916906.4372661114,        1.0527343750,       -0.0468750000,       -0.0834960938,      -69.6258544922,      -22.5677490234,     -159.1491699219
1488916906.4375579357,1488916906.4399740696,        1.0820312500,       -0.1489257812,       -0.2026367188,      -73.8983154297,      -25.0091552734,     -159.2254638672
1488916906.4402658939,1488916906.4426848888,        1.0820312500,       -0.1489257812,       -0.2026367188,      -73.8983154297,      -25.0091552734,     -163.1317138672
1488916906.4429759979,1488916906.4454190731,        1.0820312500,       -0.1489257812,       -0.2026367188,      -75.4241943359,      -29.0527343750,     -161.2243652344
1488916906.4457099438,1488916906.4481289387,        1.0820312500,       -0.1489257812,       -0.2026367188,      -75.4241943359,      -29.0527343750,     -165.1306152344
1488916906.4485290051,1488916906.4510140419,        1.1523437500,       -0.2275390625,       -0.1381835938,      -74.2797851562,      -32.2723388672,     -165.6646728516
1488916906.4513061047,1488916906.4537138939,        1.1523437500,       -0.2275390625,       -0.1381835938,      -74.2797851562,      -32.2723388672,     -169.4641113281
1488916906.4543941021,1488916906.4568169117,        1.1523437500,       -0.2275390625,       -0.1381835938,      -75.6225585938,      -32.4554443359,     -169.4641113281
1488916906.4571108818,1488916906.4595279694,        1.1523437500,       -0.3525390625,       -0.0888671875,      -75.6225585938,      -32.4554443359,     -171.2951660156
1488916906.4598219395,1488916906.4622390270,        1.1816406250,       -0.3330078125,       -0.0888671875,      -80.3070068359,      -31.6772460938,     -171.2951660156
1488916906.4625320435,1488916906.4648869038,        1.1816406250,       -0.3330078125,       -0.0888671875,      -80.3070068359,      -27.7709960938,     -173.2940673828
1488916906.4651730061,1488916906.4674689770,        1.1816406250,       -0.3330078125,       -0.0888671875,      -89.3554687500,      -29.6630859375,     -173.2940673828
1488916906.4677529335,1488916906.4700419903,        1.2817382812,       -0.3222656250,       -0.0566406250,      -89.3554687500,      -29.6630859375,     -182.4493408203
1488916906.4703249931,1488916906.4726209641,        1.2817382812,       -0.3222656250,       -0.0566406250,      -99.3041992188,      -26.3061523438,     -182.4493408203
1488916906.4729049206,1488916906.4753100872,        1.2817382812,       -0.3222656250,       -0.0566406250,      -99.3041992188,      -26.3061523438,     -190.2618408203
1488916906.4756031036,1488916906.4780240059,        1.2817382812,       -0.3222656250,       -0.0566406250,     -112.6098632812,      -22.1862792969,     -190.6890869141
1488916906.4783179760,1488916906.4807379246,        1.2656250000,       -0.4975585938,        0.0009765625,     -112.6098632812,      -22.1862792969,     -194.5953369141
1488916906.4810309410,1488916906.4834589958,        1.2656250000,       -0.4975585938,        0.0009765625,     -127.3193359375,      -19.2565917969,     -193.9544677734
1488916906.4837439060,1488916906.4860339165,        1.2656250000,       -0.4975585938,        0.0009765625,     -127.3193359375,      -19.2565917969,     -193.9544677734
1488916906.4863181114,1488916906.4886159897,        1.2656250000,       -0.4975585938,        0.0009765625,     -135.7421875000,      -16.3421630859,     -195.5413818359
1488916906.4888989925,1488916906.4911909103,        1.2338867188,       -0.8837890625,        0.0737304688,     -135.7421875000,      -16.3421630859,     -195.5413818359
1488916906.4914751053,1488916906.4937739372,        1.2338867188,       -0.8837890625,        0.0737304688,     -137.3596191406,      -12.7258300781,     -196.7163085938
1488916906.4940578938,1488916906.4963450432,        1.2338867188,       -0.8837890625,        0.0737304688,     -137.3596191406,      -12.7258300781,     -196.7163085938
1488916906.4966289997,1488916906.4989171028,        1.2338867188,       -0.8837890625,        0.0737304688,     -131.6375732422,       -5.6762695312,     -200.7904052734
1488916906.4991989136,1488916906.5014960766,        1.3559570312,       -1.2182617188,        0.0942382812,     -131.6375732422,       -5.6762695312,     -200.7904052734
1488916906.5017769337,1488916906.5041859150,        1.3559570312,       -1.2182617188,        0.0942382812,     -117.6452636719,        4.3029785156,     -205.4290771484
1488916906.5044679642,1488916906.5067570210,        1.3559570312,       -1.2182617188,        0.0942382812,     -117.6452636719,        4.3029785156,     -205.4290771484
1488916906.5070359707,1488916906.5093319416,        1.3559570312,       -1.2182617188,       -0.0307617188,      -94.2993164062,        8.1634521484,     -213.7451171875
1488916906.5096108913,1488916906.5119030476,        1.4335937500,       -1.1328125000,       -0.0112304688,      -94.2993164062,        8.1634521484,     -213.7451171875
1488916906.5122940540,1488916906.5147318840,        1.4335937500,       -1.1328125000,       -0.0112304688,      -76.6601562500,        5.6304931641,     -226.9134521484
1488916906.5150129795,1488916906.5173039436,        1.4335937500,       -1.1328125000,       -0.0112304688,      -76.6601562500,        5.6304931641,     -226.9134521484
1488916906.5175840855,1488916906.5198750496,        1.4335937500,       -0.5078125000,        0.1333007812,      -86.7614746094,        6.5155029297,     -238.0218505859
1488916906.5201559067,1488916906.5224568844,        1.5209960938,       -0.5146484375,        0.1333007812,      -86.7614746094,        6.5155029297,     -238.0218505859
1488916906.5227379799,1488916906.5251379013,        1.5209960938,       -0.5146484375,        0.1333007812,      -98.4802246094,        6.3781738281,     -260.4827880859
1488916906.5254280567,1488916906.5278470516,        1.5209960938,       -0.5146484375,        0.1333007812,     -100.8911132812,        6.3781738281,     -260.4827880859
1488916906.5281360149,1488916906.5305581093,        1.8959960938,       -0.2387695312,       -0.2919921875,      -77.4536132812,        1.9836425781,     -295.5627441406
1488916906.5308480263,1488916906.5332589149,        1.8950195312,       -0.2387695312,       -0.2919921875,      -74.7833251953,        1.9836425781,     -295.5627441406
1488916906.5335569382,1488916906.5359780788,        1.8950195312,       -0.2387695312,       -0.2919921875,      -74.7833251953,       -8.3770751953,     -330.6732177734
1488916906.5362670422,1488916906.5386750698,        1.8950195312,       -0.2387695312,       -0.2919921875,      -16.4794921875,       -8.3770751953,     -330.6732177734
1488916906.5389640331,1488916906.5413820744,        1.5961914062,       -0.3310546875,       -0.5996093750,      -16.4794921875,      -18.9208984375,     -332.6721191406
1488916906.5416729450,1488916906.5441029072,        1.5961914062,       -0.3310546875,       -0.5996093750,        0.1525878906,      -18.9208984375,     -332.6721191406
1488916906.5443930626,1488916906.5468089581,        1.5961914062,       -0.3310546875,       -0.5996093750,        0.1525878906,      -34.1796875000,     -319.3969726562
1488916906.5470969677,1488916906.5495150089,        1.5961914062,       -0.3310546875,       -0.5996093750,      -13.1530761719,      -34.1796875000,     -319.3969726562
1488916906.5498061180,1488916906.5522260666,        2.1079101562,       -0.3505859375,       -0.6962890625,      -13.1530761719,      -55.1605224609,     -354.9499511719
1488916906.5525190830,1488916906.5549499989,        2.1079101562,       -0.3505859375,       -0.6962890625,       -9.8266601562,      -55.1605224609,     -354.9499511719
1488916906.5552389622,1488916906.5576589108,        2.1079101562,       -0.3505859375,       -0.6962890625,       -9.8266601562,      -30.0903320312,     -365.2191162109
1488916906.5579490662,1488916906.5603671074,        2.1079101562,       -0.4755859375,       -0.6821289062,       -7.3699951172,      -30.0903320312,     -365.2191162109
1488916906.5606539249,1488916906.5630691051,        1.7192382812,       -0.3759765625,       -0.6821289062,       -7.3699951172,      -12.3748779297,     -313.8427734375
1488916906.5633559227,1488916906.5656650066,        1.7192382812,       -0.3759765625,       -0.6821289062,      -22.0947265625,      -12.3748779297,     -313.8427734375
1488916906.5659480095,1488916906.5682408810,        1.7192382812,       -0.3759765625,       -0.6821289062,      -22.0947265625,      -12.3748779297,     -247.4365234375
1488916906.5685250759,1488916906.5709030628,        1.0942382812,       -0.0625000000,       -0.7441406250,      -37.5366210938,      -33.4777832031,     -247.4365234375
1488916906.5711901188,1488916906.5736320019,        1.1196289062,       -0.0625000000,       -0.7441406250,      -37.5366210938,      -33.4777832031,     -193.2067871094
1488916906.5739378929,1488916906.5763630867,        1.1196289062,       -0.0625000000,       -0.7441406250,      -41.0766601562,      -38.4216308594,     -193.2067871094
1488916906.5767710209,1488916906.5791909695,        1.1196289062,       -0.0625000000,       -0.7441406250,      -41.0766601562,      -38.4216308594,     -152.8472900391
1488916906.5794849396,1488916906.5818998814,        0.5620117188,        0.1694335938,       -0.6923828125,      -40.2374267578,      -21.7437744141,     -152.8472900391
1488916906.5821928978,1488916906.5846569538,        0.5620117188,        0.1694335938,       -0.6923828125,      -40.2374267578,        1.6937255859,     -121.0021972656
1488916906.5849459171,1488916906.5873680115,        0.5620117188,        0.1694335938,       -0.6923828125,      -23.2238769531,        1.9073486328,     -121.0021972656
1488916906.5876579285,1488916906.5900750160,        0.5620117188,        0.1694335938,       -0.6923828125,      -23.2238769531,        1.9073486328,      -90.8203125000
1488916906.5903639793,1488916906.5927848816,        1.5766601562,        0.2895507812,       -0.2041015625,       59.1278076172,        3.3416748047,      -90.8203125000
1488916906.5930740833,1488916906.5955030918,        1.5766601562,        0.2895507812,       -0.2041015625,       59.1278076172,        3.3416748047,      -40.6036376953
1488916906.5957911015,1488916906.5982069969,        1.5766601562,        0.2895507812,       -0.2041015625,       94.4976806641,      -27.9541015625,      -40.6036376953
1488916906.5984981060,1488916906.6009171009,        1.5766601562,       -0.5512695312,       -0.4633789062,       94.4976806641,      -27.9541015625,       23.1018066406
1488916906.6012089252,1488916906.6036589146,        1.0175781250,       -0.5512695312,       -0.4633789062,      124.9694824219,        9.9792480469,       23.1018066406
1488916906.6039400101,1488916906.6062290668,        1.0175781250,       -0.5512695312,       -0.4633789062,      124.9694824219,        9.9792480469,       88.2720947266
1488916906.6065111160,1488916906.6088058949,        1.0175781250,       -0.5512695312,       -0.4633789062,      104.1564941406,       69.2596435547,       88.2720947266
1488916906.6090910435,1488916906.6113851070,        0.4545898438,       -1.8105468750,        0.1699218750,      104.1564941406,       69.2596435547,      139.0533447266
1488916906.6116681099,1488916906.6139769554,        0.4545898438,       -1.8105468750,        0.1699218750,       31.6009521484,       78.3538818359,      138.0767822266
1488916906.6142599583,1488916906.6165499687,        0.4545898438,       -1.8105468750,        0.1699218750,       31.6009521484,       78.3538818359,      138.0767822266
1488916906.6168329716,1488916906.6191210747,        0.4545898438,       -1.8105468750,        0.1699218750,        3.1127929688,       42.5720214844,      125.3204345703
1488916906.6193990707,1488916906.6216979027,        0.3364257812,       -1.1030273438,       -0.0327148438,        3.1127929688,       42.5720214844,      125.3204345703
1488916906.6219799519,1488916906.6243970394,        0.3364257812,       -1.1030273438,       -0.0327148438,       64.6514892578,       22.7813720703,       69.2443847656
1488916906.6246840954,1488916906.6269729137,        0.3364257812,       -1.1030273438,       -0.0327148438,       64.6514892578,       22.7813720703,       69.2443847656
1488916906.6272599697,1488916906.6295530796,        0.3364257812,       -1.1030273438,       -0.0327148438,      139.6942138672,       33.0657958984,       47.8057861328
1488916906.6298370361,1488916906.6321299076,        0.5786132812,       -0.6059570312,       -0.1435546875,      139.6942138672,       33.0657958984,       47.8057861328
1488916906.6324150562,1488916906.6348860264,        0.5786132812,       -0.6059570312,       -0.1435546875,      152.0080566406,       43.7774658203,       73.1658935547
1488916906.6351799965,1488916906.6376779079,        0.5786132812,       -0.6059570312,       -0.1435546875,      152.0080566406,       43.7774658203,       73.1658935547
1488916906.6379818916,1488916906.6402781010,        0.5786132812,       -0.6059570312,       -0.1435546875,      125.8850097656,       46.6003417969,      115.0970458984
1488916906.6406719685,1488916906.6429669857,        0.3066406250,       -0.2895507812,       -0.1459960938,      125.8850097656,       46.6003417969,      115.0970458984
1488916906.6432540417,1488916906.6457939148,        0.3066406250,       -0.2895507812,       -0.1459960938,      103.1951904297,       48.5076904297,      154.4189453125
1488916906.6460850239,1488916906.6484639645,        0.3066406250,       -0.2895507812,       -0.1459960938,      103.1951904297,       48.5076904297,      154.4189453125
1488916906.6493020058,1488916906.6515901089,        0.1816406250,       -0.3686523438,       -0.0102539062,       87.7532958984,       54.0924072266,      183.7768554688
1488916906.6518769264,1488916906.6542420387,        0.2353515625,       -0.3686523438,       -0.0102539062,       87.7532958984,       54.0924072266,      183.7768554688
1488916906.6545269489,1488916906.6568191051,        0.2353515625,       -0.3686523438,       -0.0102539062,       77.8198242188,       61.9354248047,      201.5533447266
1488916906.6571040154,1488916906.6593849659,        0.2353515625,       -0.3686523438,       -0.0102539062,       77.8198242188,       61.9354248047,      201.5533447266
1488916906.6596720219,1488916906.6619560719,        0.3100585938,       -0.4638671875,        0.0761718750,       72.4639892578,       73.6694335938,      214.4927978516
1488916906.6622409821,1488916906.6645359993,        0.3100585938,       -0.4638671875,        0.0761718750,       72.4639892578,       73.6694335938,      214.4927978516
1488916906.6648209095,1488916906.6671049595,        0.3100585938,       -0.4638671875,        0.0761718750,       65.9637451172,       79.9255371094,      231.7047119141
1488916906.6673901081,1488916906.6696751118,        0.3100585938,       -0.4638671875,        0.0761718750,       65.9637451172,       79.9255371094,      231.7047119141
1488916906.6699600220,1488916906.6722478867,        0.3081054688,       -0.5429687500,        0.0761718750,       56.2286376953,       79.5288085938,      246.4294433594
1488916906.6725320816,1488916906.6748559475,        0.3081054688,       -0.5429687500,        0.0761718750,       56.2286376953,       79.5288085938,      246.4294433594
1488916906.6751420498,1488916906.6774311066,        0.3081054688,       -0.5429687500,        0.0761718750,       56.2286376953,       83.5418701172,      263.3514404297
1488916906.6777179241,1488916906.6800010204,        0.3081054688,       -0.5429687500,        0.0761718750,       46.3562011719,       83.5418701172,      263.3514404297
1488916906.6802868843,1488916906.6825790405,        0.4995117188,       -0.4257812500,        0.0512695312,       46.3562011719,       83.5418701172,      281.7382812500
1488916906.6828629971,1488916906.6852080822,        0.4995117188,       -0.4257812500,        0.0512695312,       38.5742187500,       83.4197998047,      281.7382812500
1488916906.6854920387,1488916906.6877861023,        0.4995117188,       -0.4257812500,        0.0512695312,       38.5742187500,       83.4197998047,      295.5169677734
1488916906.6880700588,1488916906.6903629303,        0.4995117188,       -0.4257812500,        0.0512695312,       30.9143066406,       82.6263427734,      295.5169677734
1488916906.6906480789,1488916906.6929330826,        0.8154296875,       -0.2197265625,        0.0498046875,       30.9143066406,       82.6263427734,      295.5169677734
1488916906.6932179928,1488916906.6956770420,        0.8154296875,       -0.2197265625,        0.0498046875,       25.8789062500,       84.6862792969,      304.2602539062
1488916906.6959619522,1488916906.6982519627,        0.8154296875,       -0.2197265625,        0.0498046875,       25.8789062500,       84.6862792969,      304.2602539062
1488916906.6985349655,1488916906.7008280754,        0.8154296875,       -0.2197265625,        0.0498046875,       22.4609375000,       82.1685791016,      312.8204345703
1488916906.7011129856,1488916906.7033989429,        0.5297851562,       -0.2778320312,        0.0136718750,       22.4609375000,       82.1685791016,      312.8204345703
1488916906.7039649487,1488916906.7063839436,        0.5297851562,       -0.2778320312,        0.0136718750,       22.3236083984,       78.5369873047,      321.6857910156
1488916906.7066760063,1488916906.7090909481,        0.5297851562,       -0.2778320312,        0.0136718750,       22.3236083984,       78.5369873047,      321.6857910156
1488916906.7093839645,1488916906.7117950916,        0.5297851562,       -0.1528320312,        0.0278320312,       25.7873535156,       77.6367187500,      329.4067382812
1488916906.7120881081,1488916906.7144639492,        0.6074218750,       -0.2382812500,        0.0278320312,       25.7873535156,       77.6367187500,      329.4067382812
1488916906.7147490978,1488916906.7170419693,        0.6074218750,       -0.2382812500,        0.0278320312,       31.9824218750,       76.7517089844,      335.7849121094
1488916906.7173259258,1488916906.7196159363,        0.6074218750,       -0.2382812500,        0.0278320312,       31.9824218750,       76.7517089844,      335.7849121094
1488916906.7199020386,1488916906.7221889496,        0.7324218750,       -0.1582031250,        0.0263671875,       36.0260009766,       74.6917724609,      341.5374755859
1488916906.7224740982,1488916906.7249860764,        0.7446289062,       -0.1582031250,        0.0263671875,       36.0260009766,       74.6917724609,      341.5374755859
1488916906.7252719402,1488916906.7275710106,        0.7446289062,       -0.1582031250,        0.0263671875,       40.0695800781,       73.7304687500,      348.4344482422
1488916906.7278571129,1488916906.7301499844,        0.7446289062,       -0.1582031250,        0.0263671875,       40.0695800781,       73.7304687500,      348.4344482422
1488916906.7304348946,1488916906.7327210903,        0.8750000000,       -0.1582031250,       -0.0273437500,       45.6390380859,       74.1119384766,      356.8267822266
1488916906.7330069542,1488916906.7354190350,        0.8750000000,       -0.1582031250,       -0.0273437500,       45.6390380859,       74.1119384766,      356.8267822266
1488916906.7357089520,1488916906.7380900383,        0.8750000000,       -0.1582031250,       -0.0273437500,       49.1943359375,       73.0590820312,      364.1357421875
1488916906.7383809090,1488916906.7409079075,        0.8750000000,       -0.1582031250,       -0.0273437500,       49.1943359375,       73.0590820312,      364.1357421875
1488916906.7412021160,1488916906.7436640263,        1.0415039062,       -0.1821289062,       -0.0751953125,       54.0161132812,       72.8912353516,      371.1853027344
1488916906.7439579964,1488916906.7463750839,        1.0415039062,       -0.1821289062,       -0.0751953125,       54.0161132812,       72.8912353516,      371.1853027344
1488916906.7466700077,1488916906.7490890026,        1.0415039062,       -0.1821289062,       -0.0751953125,       61.0198974609,       72.4334716797,      377.2735595703
1488916906.7493810654,1488916906.7518029213,        1.0415039062,       -0.1821289062,       -0.0751953125,       61.0198974609,       72.4334716797,      377.2735595703
1488916906.7520959377,1488916906.7545239925,        1.1821289062,       -0.1708984375,       -0.1230468750,       68.0847167969,       71.1975097656,      382.0190429688
1488916906.7548160553,1488916906.7572319508,        1.1821289062,       -0.1708984375,       -0.1230468750,       68.0847167969,       71.1975097656,      382.0190429688
1488916906.7575230598,1488916906.7605009079,        1.1821289062,       -0.1708984375,       -0.1230468750,       73.7304687500,       69.9157714844,      386.2762451172
1488916906.7607979774,1488916906.7632129192,        1.3457031250,       -0.1113281250,       -0.1865234375,       73.7304687500,       69.9157714844,      386.2762451172
1488916906.7635159492,1488916906.7658090591,        1.3457031250,       -0.1113281250,       -0.1865234375,       78.6743164062,       67.9016113281,      390.7012939453
1488916906.7660949230,1488916906.7683839798,        1.3457031250,       -0.1113281250,       -0.1865234375,       78.6743164062,       67.9016113281,      390.7012939453
1488916906.7698259354,1488916906.7721230984,        1.3457031250,       -0.1113281250,       -0.2373046875,       80.2612304688,       65.6127929688,      394.1650390625
1488916906.7724099159,1488916906.7747170925,        1.4653320312,        0.0209960938,       -0.2373046875,       80.2612304688,       65.6127929688,      398.0712890625
1488916906.7750020027,1488916906.7772951126,        1.4653320312,        0.0209960938,       -0.2373046875,       76.8280029297,       61.3861083984,      397.2167968750
1488916906.7775800228,1488916906.7798740864,        1.4653320312,        0.0209960938,       -0.2373046875,       76.8280029297,       61.3861083984,      397.2167968750
1488916906.7801570892,1488916906.7824549675,        1.4653320312,        0.1118164062,       -0.3007812500,       74.9359130859,       55.6945800781,      398.3459472656
1488916906.7827410698,1488916906.7851290703,        1.5961914062,        0.1118164062,       -0.3007812500,       74.9359130859,       55.6945800781,      398.3459472656
1488916906.7854230404,1488916906.7878360748,        1.5961914062,        0.1118164062,       -0.3007812500,       75.5310058594,       50.3845214844,      397.9949951172
1488916906.7881290913,1488916906.7905449867,        1.5961914062,        0.1118164062,       -0.3007812500,       75.5310058594,       50.3845214844,      397.9949951172
1488916906.7908360958,1488916906.7932500839,        1.7475585938,        0.2290039062,       -0.3154296875,       77.0568847656,       46.2646484375,      395.8740234375
1488916906.7935519218,1488916906.7959699631,        1.7475585938,        0.2290039062,       -0.3154296875,       77.0568847656,       46.2646484375,      395.8740234375
1488916906.7962610722,1488916906.7986750603,        1.7475585938,        0.2290039062,       -0.3154296875,       78.8421630859,       43.2128906250,      392.6086425781
1488916906.7989659309,1488916906.8013820648,        1.7475585938,        0.2290039062,       -0.3154296875,       78.8421630859,       43.2128906250,      392.6086425781
1488916906.8016729355,1488916906.8040790558,        1.7822265625,        0.4257812500,       -0.3159179688,       81.0546875000,       41.0003662109,      389.5111083984
1488916906.8049960136,1488916906.8108849525,        1.7822265625,        0.4257812500,       -0.3159179688,       80.9478759766,       39.5507812500,      385.5285644531
1488916906.8111898899,1488916906.8135690689,        1.7211914062,        0.7104492188,       -0.2348632812,       80.9478759766,       38.8336181641,      382.4005126953
1488916906.8138549328,1488916906.8161430359,        1.7211914062,        0.7104492188,       -0.2348632812,       74.0203857422,       38.8336181641,      382.4005126953
1488916906.8164269924,1488916906.8187170029,        1.7211914062,        0.7104492188,       -0.2348632812,       74.0203857422,       46.6461181641,      373.1994628906
1488916906.8190009594,1488916906.8212909698,        1.7211914062,        0.7104492188,       -0.2348632812,       57.8918457031,       43.2128906250,      373.1994628906
1488916906.8215739727,1488916906.8239130974,        1.6655273438,        1.1718750000,       -0.1875000000,       57.8918457031,       43.2128906250,      358.1848144531
1488916906.8241970539,1488916906.8264820576,        1.6655273438,        1.1718750000,       -0.1875000000,       43.1518554688,       37.9486083984,      358.1848144531
1488916906.8267650604,1488916906.8290560246,        1.6655273438,        1.1718750000,       -0.1875000000,       43.1518554688,       37.9486083984,      358.1848144531
1488916906.8293399811,1488916906.8316249847,        1.6655273438,        1.1718750000,       -0.1875000000,       45.8984375000,       26.4739990234,      358.0169677734
1488916906.8319079876,1488916906.8342700005,        1.6518554688,        1.2412109375,       -0.3437500000,       45.8984375000,       26.4739990234,      358.0169677734
1488916906.8345520496,1488916906.8368420601,        1.6518554688,        1.2412109375,       -0.3437500000,       62.4237060547,       41.9311523438,      365.1275634766
1488916906.8371260166,1488916906.8394091129,        1.6518554688,        1.2412109375,       -0.3437500000,       62.4237060547,       41.9311523438,      365.1275634766
1488916906.8398358822,1488916906.8421249390,        1.6518554688,        1.2412109375,       -0.3437500000,       49.4079589844,       58.8073730469,      334.8236083984
1488916906.8424079418,1488916906.8447039127,        1.9467773438,        1.5283203125,       -0.3164062500,       49.4079589844,       58.8073730469,      334.8236083984
1488916906.8449869156,1488916906.8472850323,        1.9467773438,        1.5283203125,       -0.3164062500,       28.3355712891,       48.0499267578,      299.0264892578
1488916906.8475680351,1488916906.8498659134,        1.9467773438,        1.5283203125,       -0.3164062500,       28.3355712891,       48.0499267578,      299.0264892578
1488916906.8501501083,1488916906.8524439335,        1.9467773438,        1.5283203125,       -0.3164062500,       28.5797119141,       44.3420410156,      271.8811035156
1488916906.8527278900,1488916906.8551549911,        1.4179687500,        1.8359375000,       -0.4648437500,       28.5797119141,       44.3420410156,      271.8811035156
1488916906.8554379940,1488916906.8577339649,        1.4179687500,        1.8359375000,       -0.4648437500,       33.1115722656,       42.5109863281,      236.9079589844
1488916906.8580179214,1488916906.8603138924,        1.4179687500,        1.8359375000,       -0.4648437500,       33.1115722656,       42.5109863281,      236.9079589844
1488916906.8605968952,1488916906.8628900051,        1.4179687500,        1.8359375000,       -0.5864257812,       27.8625488281,       34.5764160156,      199.5239257812
1488916906.8631720543,1488916906.8655669689,        1.3603515625,        2.3051757812,       -0.5864257812,       27.8625488281,       34.5764160156,      199.5239257812
1488916906.8658509254,1488916906.8681440353,        1.3603515625,        2.3051757812,       -0.5864257812,       23.9562988281,       26.4434814453,      161.6668701172
1488916906.8684279919,1488916906.8707199097,        1.3603515625,        2.3051757812,       -0.5864257812,       25.5279541016,       26.4434814453,      161.6668701172
1488916906.8710029125,1488916906.8732910156,        1.3603515625,        2.8881835938,       -0.5126953125,       25.5279541016,       26.4434814453,      128.0212402344
1488916906.8735790253,1488916906.8759629726,        0.9316406250,        2.8881835938,       -0.5126953125,       25.6500244141,       24.3530273438,      128.0212402344
1488916906.8762540817,1488916906.8786320686,        0.9316406250,        2.8881835938,       -0.5126953125,       25.6500244141,       28.2592773438,       87.4023437500
1488916906.8789200783,1488916906.8812990189,        0.9316406250,        2.8881835938,       -0.5126953125,       14.6636962891,       29.1290283203,       87.4023437500
1488916906.8815889359,1488916906.8839828968,        0.8247070312,        3.2753906250,       -0.6381835938,       14.6636962891,       29.1290283203,       37.8265380859
1488916906.8842740059,1488916906.8866870403,        0.8247070312,        3.2753906250,       -0.6381835938,       14.1601562500,       31.3415527344,       37.8265380859
1488916906.8869779110,1488916906.8893930912,        0.8247070312,        3.2753906250,       -0.6381835938,       14.1601562500,       31.3415527344,      -16.7999267578
1488916906.8896861076,1488916906.8921010494,        0.8247070312,        3.2753906250,       -0.6381835938,       20.8740234375,       30.1971435547,      -16.7999267578
1488916906.8923909664,1488916906.8948109150,        0.8325195312,        2.9667968750,       -0.8525390625,       20.8740234375,       30.1971435547,      -68.5272216797
1488916906.8951020241,1488916906.8975150585,        0.8325195312,        2.9667968750,       -0.8525390625,       28.2287597656,       24.7802734375,      -68.5272216797
1488916906.8978059292,1488916906.9002170563,        0.8325195312,        2.9667968750,       -0.8525390625,       28.2287597656,       24.7802734375,     -111.6180419922
1488916906.9005079269,1488916906.9029219151,        0.8325195312,        2.9667968750,       -0.8525390625,       29.1290283203,       12.2528076172,     -111.6180419922
1488916906.9033229351,1488916906.9056389332,        0.6123046875,        2.6508789062,       -0.9482421875,       29.1290283203,       12.2528076172,     -137.4969482422
1488916906.9059240818,1488916906.9082179070,        0.6123046875,        2.6508789062,       -0.9482421875,       17.2271728516,       -1.8157958984,     -137.4969482422
1488916906.9084980488,1488916906.9107880592,        0.6123046875,        2.6508789062,       -0.9482421875,       17.2271728516,       -1.8157958984,     -160.9344482422
1488916906.9110670090,1488916906.9133589268,        0.6123046875,        2.6508789062,       -1.2475585938,      -16.8457031250,      -14.5721435547,     -162.6739501953
1488916906.9136900902,1488916906.9159810543,        1.1044921875,        2.2548828125,       -1.2475585938,      -16.8457031250,      -14.5721435547,     -162.6739501953
1488916906.9162619114,1488916906.9185509682,        1.1044921875,        2.2548828125,       -1.2475585938,      -26.9775390625,      -19.7143554688,     -233.6578369141
