time_stamp before, time_stamp after, Acceleration x, Acceleration y, Acceleration z, Gyro x, Gyro y, Gyro z
1488916725.7568490505,1488916725.7676360607,        0.6572265625,       -0.0283203125,       -0.2138671875,       -1.8615722656,      -10.6048583984,       11.1389160156
1488916725.7679529190,1488916725.7707469463,        0.6337890625,        0.0195312500,       -0.2241210938,       -2.3803710938,       -9.9945068359,        8.5906982422
1488916725.7710459232,1488916725.7733330727,        0.6337890625,        0.0195312500,       -0.2241210938,       -2.3803710938,       -9.9945068359,        8.5906982422
1488916725.7736659050,1488916725.7760920525,        0.6337890625,        0.0195312500,       -0.2241210938,       -2.9449462891,       -8.1787109375,        6.5002441406
1488916725.7763729095,1488916725.7787880898,        0.6337890625,        0.0195312500,       -0.2241210938,       -2.9449462891,       -8.1787109375,        6.5002441406
1488916725.7790670395,1488916725.7814729214,        0.6264648438,        0.0336914062,       -0.2153320312,       -3.0822753906,       -7.6599121094,        4.9285888672
1488916725.7817509174,1488916725.7841799259,        0.6264648438,        0.0336914062,       -0.2153320312,       -3.0822753906,       -7.6599121094,        4.9285888672
1488916725.7844591141,1488916725.7868700027,        0.6264648438,        0.0336914062,       -0.2153320312,       -4.5318603516,       -7.2631835938,        3.1890869141
1488916725.7871470451,1488916725.7896239758,        0.6264648438,        0.0336914062,       -0.1943359375,       -4.5318603516,       -7.2631835938,        3.1890869141
1488916725.7898969650,1488916725.7921779156,        0.6166992188,        0.0405273438,       -0.1943359375,       -5.8135986328,       -7.0037841797,        2.3956298828
1488916725.7924480438,1488916725.7948551178,        0.6166992188,        0.0405273438,       -0.1943359375,       -5.8135986328,       -7.0037841797,        2.3956298828
1488916725.7951350212,1488916725.7975189686,        0.6166992188,        0.0405273438,       -0.1943359375,       -7.5988769531,       -7.0037841797,        1.6326904297
1488916725.7977969646,1488916725.8004260063,        0.6269531250,        0.0478515625,       -0.1591796875,       -7.5988769531,       -7.0037841797,        1.6326904297
1488916725.8007009029,1488916725.8029870987,        0.6269531250,        0.0478515625,       -0.1591796875,       -9.1552734375,       -7.0037841797,        0.9613037109
1488916725.8032619953,1488916725.8056230545,        0.6269531250,        0.0478515625,       -0.1591796875,       -9.1552734375,       -7.0037841797,        0.9613037109
1488916725.8058989048,1488916725.8081860542,        0.6269531250,        0.0478515625,       -0.1591796875,       -9.4604492188,       -7.2174072266,        0.2136230469
1488916725.8084619045,1488916725.8107450008,        0.6274414062,        0.0590820312,       -0.1352539062,       -9.4604492188,       -7.2174072266,        0.2136230469
1488916725.8110198975,1488916725.8133099079,        0.6274414062,        0.0590820312,       -0.1352539062,       -9.0637207031,       -7.6446533203,       -0.5493164062
1488916725.8135840893,1488916725.8158690929,        0.6274414062,        0.0590820312,       -0.1352539062,       -9.0637207031,       -7.6446533203,       -0.5493164062
1488916725.8161430359,1488916725.8184258938,        0.6274414062,        0.0590820312,       -0.1352539062,       -9.1705322266,       -8.2244873047,       -1.0223388672
1488916725.8186988831,1488916725.8209810257,        0.6352539062,        0.0561523438,       -0.1376953125,       -9.1705322266,       -8.2244873047,       -1.0223388672
1488916725.8212549686,1488916725.8235440254,        0.6352539062,        0.0561523438,       -0.1376953125,       -9.1705322266,       -8.9111328125,       -1.7242431641
1488916725.8238179684,1488916725.8261098862,        0.6352539062,        0.0561523438,       -0.1376953125,      -10.1928710938,       -8.9111328125,       -1.7242431641
1488916725.8263900280,1488916725.8286759853,        0.6352539062,        0.0561523438,       -0.1376953125,      -10.1928710938,       -8.9111328125,       -2.4414062500
1488916725.8291199207,1488916725.8314080238,        0.6391601562,        0.0512695312,       -0.1381835938,      -10.7879638672,       -9.8876953125,       -2.4414062500
1488916725.8316850662,1488916725.8340210915,        0.6391601562,        0.0512695312,       -0.1381835938,      -10.7879638672,       -9.8876953125,       -3.5095214844
1488916725.8342969418,1488916725.8365828991,        0.6391601562,        0.0512695312,       -0.1381835938,      -11.2152099609,      -10.5895996094,       -3.5095214844
1488916725.8368649483,1488916725.8391499519,        0.6391601562,        0.0512695312,       -0.1381835938,      -11.2152099609,      -10.5895996094,       -7.4157714844
1488916725.8394310474,1488916725.8417119980,        0.6308593750,        0.0634765625,       -0.1494140625,      -11.5509033203,      -10.6811523438,       -3.9215087891
1488916725.8419969082,1488916725.8443911076,        0.6308593750,        0.0634765625,       -0.1494140625,      -11.5509033203,      -10.6811523438,       -3.9215087891
1488916725.8446719646,1488916725.8469638824,        0.6308593750,        0.0634765625,       -0.1494140625,      -12.7868652344,      -11.6119384766,       -4.3334960938
1488916725.8472449780,1488916725.8495299816,        0.6308593750,        0.0634765625,       -0.1494140625,      -12.7868652344,      -11.6119384766,       -4.3334960938
1488916725.8498098850,1488916725.8521049023,        0.6430664062,        0.0249023438,       -0.1743164062,      -12.9089355469,      -11.1541748047,       -6.3018798828
1488916725.8523869514,1488916725.8548259735,        0.6430664062,        0.0249023438,       -0.1743164062,      -12.9089355469,      -11.1541748047,       -6.3018798828
1488916725.8551149368,1488916725.8575150967,        0.6430664062,        0.0249023438,       -0.1743164062,      -11.0168457031,      -10.9405517578,       -7.9193115234
1488916725.8578031063,1488916725.8601999283,        0.6430664062,        0.0249023438,       -0.1884765625,      -11.0168457031,      -10.9405517578,       -7.9193115234
1488916725.8604888916,1488916725.8628900051,        0.6357421875,        0.0346679688,       -0.1884765625,      -10.4827880859,      -11.3067626953,       -9.0637207031
1488916725.8631780148,1488916725.8655810356,        0.6357421875,        0.0346679688,       -0.1884765625,      -10.4827880859,      -11.3067626953,       -9.0637207031
1488916725.8658659458,1488916725.8682649136,        0.6357421875,        0.0346679688,       -0.1884765625,      -10.1928710938,      -10.6964111328,       -9.9792480469
1488916725.8685529232,1488916725.8709549904,        0.6328125000,        0.0532226562,       -0.1796875000,      -10.1928710938,      -10.6964111328,       -9.9792480469
1488916725.8712420464,1488916725.8736488819,        0.6328125000,        0.0532226562,       -0.1796875000,      -10.4827880859,      -10.4827880859,      -10.5438232422
1488916725.8739380836,1488916725.8763210773,        0.6328125000,        0.0532226562,       -0.1796875000,      -10.4827880859,      -10.4827880859,      -10.5438232422
1488916725.8766100407,1488916725.8789899349,        0.6328125000,        0.0532226562,       -0.1796875000,      -10.7116699219,      -10.3454589844,      -10.9558105469
1488916725.8792800903,1488916725.8816580772,        0.6342773438,        0.0605468750,       -0.1738281250,      -10.7116699219,      -10.3454589844,      -10.9558105469
1488916725.8819460869,1488916725.8843839169,        0.6342773438,        0.0605468750,       -0.1738281250,      -10.1013183594,       -9.9792480469,      -11.3830566406
1488916725.8846740723,1488916725.8870730400,        0.6342773438,        0.0605468750,       -0.1738281250,      -10.1013183594,       -9.9792480469,      -11.3830566406
1488916725.8873610497,1488916725.8897590637,        0.6342773438,        0.0605468750,       -0.1738281250,       -9.8876953125,       -9.7808837891,      -11.8713378906
1488916725.8900449276,1488916725.8924560547,        0.6381835938,        0.0629882812,       -0.1669921875,       -9.8876953125,       -9.7808837891,      -11.8713378906
1488916725.8928499222,1488916725.8954219818,        0.6381835938,        0.0629882812,       -0.1669921875,       -9.3688964844,       -9.5825195312,      -12.0239257812
1488916725.8957059383,1488916725.8980929852,        0.6381835938,        0.0629882812,       -0.1669921875,       -9.3688964844,       -9.5825195312,      -12.0239257812
1488916725.8983759880,1488916725.9010789394,        0.6381835938,        0.0688476562,       -0.1669921875,       -9.6282958984,       -9.2163085938,      -12.1917724609
1488916725.9013600349,1488916725.9037239552,        0.6269531250,        0.0688476562,       -0.1669921875,       -9.6282958984,       -9.2163085938,      -12.1917724609
1488916725.9040029049,1488916725.9062879086,        0.6269531250,        0.0688476562,       -0.1669921875,      -10.5743408203,       -9.4909667969,      -12.3596191406
1488916725.9065690041,1488916725.9088540077,        0.6269531250,        0.0688476562,       -0.1669921875,      -10.5743408203,       -9.4909667969,      -12.3596191406
1488916725.9091351032,1488916725.9114229679,        0.6333007812,        0.0708007812,       -0.1538085938,      -10.9558105469,       -9.6740722656,      -12.0544433594
1488916725.9117069244,1488916725.9140439034,        0.6333007812,        0.0708007812,       -0.1538085938,      -10.9558105469,       -9.6740722656,      -12.0544433594
1488916725.9143280983,1488916725.9166181087,        0.6333007812,        0.0708007812,       -0.1538085938,      -11.3220214844,      -10.3912353516,      -11.9018554688
1488916725.9169030190,1488916725.9191861153,        0.6333007812,        0.0708007812,       -0.1538085938,      -11.3220214844,      -10.3912353516,      -11.9018554688
1488916725.9194710255,1488916725.9217569828,        0.6367187500,        0.0781250000,       -0.1425781250,      -11.8865966797,      -10.7879638672,      -12.1154785156
1488916725.9220409393,1488916725.9243400097,        0.6367187500,        0.0781250000,       -0.1425781250,      -11.8865966797,      -10.7879638672,      -12.1154785156
1488916725.9246249199,1488916725.9269030094,        0.6367187500,        0.0781250000,       -0.1425781250,      -11.8865966797,      -11.3220214844,      -12.4969482422
1488916725.9271879196,1488916725.9294700623,        0.6367187500,        0.0781250000,       -0.1425781250,      -12.3748779297,      -11.3220214844,      -12.4969482422
1488916725.9297549725,1488916725.9320490360,        0.6362304688,        0.0756835938,       -0.1430664062,      -12.3748779297,      -11.3220214844,      -13.1225585938
1488916725.9323329926,1488916725.9346458912,        0.6362304688,        0.0756835938,       -0.1430664062,      -13.4277343750,      -11.8713378906,      -13.1225585938
1488916725.9349300861,1488916725.9372200966,        0.6362304688,        0.0756835938,       -0.1430664062,      -13.4277343750,      -11.8713378906,      -13.1225585938
1488916725.9375030994,1488916725.9397919178,        0.6362304688,        0.0756835938,       -0.1430664062,      -14.6484375000,      -12.3748779297,      -13.5650634766
1488916725.9400749207,1488916725.9423649311,        0.6391601562,        0.0849609375,       -0.1669921875,      -14.6484375000,      -12.3748779297,      -13.5650634766
1488916725.9426488876,1488916725.9451210499,        0.6391601562,        0.0849609375,       -0.1669921875,      -15.6555175781,      -13.3514404297,      -13.7939453125
1488916725.9454081059,1488916725.9476981163,        0.6391601562,        0.0849609375,       -0.1669921875,      -15.6555175781,      -13.3514404297,      -13.7939453125
1488916725.9479820728,1488916725.9502758980,        0.6391601562,        0.0849609375,       -0.1669921875,      -17.1966552734,      -12.9699707031,      -14.0228271484
1488916725.9505600929,1488916725.9528529644,        0.6406250000,        0.0761718750,       -0.1518554688,      -17.1966552734,      -12.9699707031,      -14.0228271484
1488916725.9531390667,1488916725.9556529522,        0.6406250000,        0.0761718750,       -0.1518554688,      -17.7459716797,      -12.9852294922,      -15.0146484375
1488916725.9560589790,1488916725.9584660530,        0.6406250000,        0.0761718750,       -0.1518554688,      -17.7459716797,      -12.9852294922,      -15.0146484375
1488916725.9587590694,1488916725.9611589909,        0.6406250000,        0.0537109375,       -0.1635742188,      -15.8081054688,      -13.1988525391,      -16.0217285156
1488916725.9614529610,1488916725.9638619423,        0.6401367188,        0.0537109375,       -0.1635742188,      -15.8081054688,      -13.1988525391,      -16.0217285156
1488916725.9641549587,1488916725.9665539265,        0.6401367188,        0.0537109375,       -0.1635742188,      -13.9007568359,      -12.7410888672,      -16.2963867188
1488916725.9668450356,1488916725.9692471027,        0.6401367188,        0.0537109375,       -0.1635742188,      -13.9007568359,      -12.7410888672,      -16.2963867188
1488916725.9695379734,1488916725.9719400406,        0.6357421875,        0.0717773438,       -0.1660156250,      -12.3291015625,      -12.3596191406,      -16.8151855469
1488916725.9722299576,1488916725.9746739864,        0.6357421875,        0.0717773438,       -0.1660156250,      -12.3291015625,      -12.3596191406,      -16.8151855469
1488916725.9749650955,1488916725.9773380756,        0.6357421875,        0.0717773438,       -0.1660156250,      -11.4593505859,      -11.9781494141,      -17.2271728516
1488916725.9776299000,1488916725.9800100327,        0.6357421875,        0.0717773438,       -0.1660156250,      -11.4593505859,      -11.9781494141,      -17.2271728516
1488916725.9802999496,1488916725.9826738834,        0.6059570312,        0.0913085938,       -0.1791992188,      -11.4898681641,      -11.9323730469,      -17.8222656250
1488916725.9829630852,1488916725.9861369133,        0.6059570312,        0.0913085938,       -0.1791992188,      -11.4898681641,      -11.9323730469,      -17.8222656250
1488916725.9864380360,1488916725.9889750481,        0.6059570312,        0.0913085938,       -0.1791992188,      -11.7645263672,      -11.7034912109,      -18.2647705078
1488916725.9892759323,1488916725.9916911125,        0.6059570312,        0.0834960938,       -0.1918945312,      -11.7645263672,      -11.7034912109,      -18.2647705078
1488916725.9919838905,1488916725.9943659306,        0.6196289062,        0.0834960938,       -0.1918945312,      -11.1083984375,      -11.2915039062,      -18.9056396484
1488916725.9946539402,1488916725.9969439507,        0.6196289062,        0.0834960938,       -0.1918945312,      -11.1083984375,      -11.2915039062,      -22.8118896484
1488916725.9972319603,1488916725.9995169640,        0.6196289062,        0.0834960938,       -0.1918945312,      -11.1083984375,      -10.6811523438,      -19.8669433594
1488916725.9998049736,1488916726.0020968914,        0.6186523438,        0.0732421875,       -0.2109375000,      -11.1083984375,      -10.6811523438,      -19.8669433594
1488916726.0023829937,1488916726.0046789646,        0.6186523438,        0.0732421875,       -0.2109375000,      -11.4440917969,      -10.1013183594,      -20.4772949219
1488916726.0049641132,1488916726.0072510242,        0.6186523438,        0.0732421875,       -0.2109375000,      -11.4440917969,      -10.1013183594,      -20.4772949219
1488916726.0075359344,1488916726.0098280907,        0.6186523438,        0.0732421875,       -0.2109375000,      -10.8489990234,       -9.9792480469,      -21.1181640625
1488916726.0101099014,1488916726.0123929977,        0.6186523438,        0.0742187500,       -0.2026367188,      -10.8489990234,       -9.9792480469,      -21.1181640625
1488916726.0126740932,1488916726.0151040554,        0.6186523438,        0.0742187500,       -0.2026367188,       -9.8419189453,       -9.9334716797,      -21.7437744141
1488916726.0153899193,1488916726.0178070068,        0.6186523438,        0.0742187500,       -0.2026367188,       -9.8419189453,       -9.9334716797,      -21.7437744141
1488916726.0180950165,1488916726.0206549168,        0.6186523438,        0.0742187500,       -0.2026367188,       -9.5214843750,       -9.6130371094,      -22.6287841797
1488916726.0210549831,1488916726.0234849453,        0.6152343750,        0.0878906250,       -0.2094726562,       -9.5214843750,       -9.6130371094,      -22.6287841797
1488916726.0237729549,1488916726.0261859894,        0.6152343750,        0.0878906250,       -0.2094726562,       -9.2163085938,       -9.7503662109,      -23.3917236328
1488916726.0264720917,1488916726.0288789272,        0.6152343750,        0.0878906250,       -0.2094726562,       -9.2163085938,       -9.7503662109,      -23.3917236328
1488916726.0291650295,1488916726.0315821171,        0.6152343750,        0.0878906250,       -0.1928710938,       -9.0789794922,       -9.8571777344,      -24.1241455078
1488916726.0318689346,1488916726.0342938900,        0.5966796875,        0.1035156250,       -0.1928710938,       -9.0789794922,       -9.8571777344,      -24.1241455078
1488916726.0345809460,1488916726.0369949341,        0.5966796875,        0.1035156250,       -0.1928710938,       -8.6059570312,      -10.0860595703,      -24.8565673828
1488916726.0372850895,1488916726.0396969318,        0.5966796875,        0.1035156250,       -0.1928710938,       -8.6059570312,      -10.0860595703,      -24.8565673828
1488916726.0399858952,1488916726.0423998833,        0.5834960938,        0.1123046875,       -0.1752929688,       -7.9956054688,       -9.5367431641,      -25.3601074219
1488916726.0426878929,1488916726.0450279713,        0.5834960938,        0.1123046875,       -0.1752929688,       -7.9956054688,       -9.5367431641,      -25.3601074219
1488916726.0453081131,1488916726.0475909710,        0.5834960938,        0.1123046875,       -0.1752929688,       -7.5531005859,       -8.5906982422,      -25.7873535156
1488916726.0478711128,1488916726.0501580238,        0.5834960938,        0.1123046875,       -0.1752929688,       -7.5531005859,       -8.5906982422,      -25.7873535156
1488916726.0504360199,1488916726.0527260303,        0.5834960938,        0.1313476562,       -0.1782226562,       -7.8735351562,       -7.8735351562,      -25.9704589844
1488916726.0530030727,1488916726.0552990437,        0.5834960938,        0.1313476562,       -0.1782226562,       -7.8735351562,       -7.8735351562,      -25.9704589844
1488916726.0555770397,1488916726.0578629971,        0.5834960938,        0.1313476562,       -0.1782226562,       -9.3536376953,       -7.3089599609,      -25.5432128906
1488916726.0581400394,1488916726.0604290962,        0.5834960938,        0.1313476562,       -0.1782226562,       -9.3536376953,       -7.3089599609,      -25.5432128906
1488916726.0607059002,1488916726.0629920959,        0.5849609375,        0.1284179688,       -0.1865234375,       -9.3536376953,       -7.0953369141,      -25.4821777344
1488916726.0632679462,1488916726.0656960011,        0.5849609375,        0.1284179688,       -0.1865234375,      -10.0555419922,       -7.0953369141,      -25.4821777344
1488916726.0659749508,1488916726.0682649612,        0.5849609375,        0.1284179688,       -0.1865234375,      -10.0555419922,       -7.0953369141,      -25.4516601562
1488916726.0685470104,1488916726.0708339214,        0.5849609375,        0.1284179688,       -0.1865234375,      -10.7879638672,       -7.2784423828,      -25.4516601562
1488916726.0711159706,1488916726.0734040737,        0.5932617188,        0.1206054688,       -0.1865234375,      -10.7879638672,       -7.2784423828,      -26.0620117188
1488916726.0738580227,1488916726.0762729645,        0.5932617188,        0.1206054688,       -0.1865234375,      -11.0168457031,       -7.0648193359,      -26.0620117188
1488916726.0765628815,1488916726.0789759159,        0.5932617188,        0.1206054688,       -0.1865234375,      -11.0168457031,       -7.0648193359,      -27.0233154297
1488916726.0792639256,1488916726.0816819668,        0.5932617188,        0.1206054688,       -0.1782226562,      -11.4440917969,       -7.3089599609,      -27.0233154297
1488916726.0819709301,1488916726.0843899250,        0.5825195312,        0.1269531250,       -0.1782226562,      -11.4440917969,       -7.3089599609,      -27.6794433594
1488916726.0847890377,1488916726.0872080326,        0.5825195312,        0.1269531250,       -0.1782226562,      -11.4746093750,       -7.5073242188,      -27.6794433594
1488916726.0874960423,1488916726.0899100304,        0.5825195312,        0.1269531250,       -0.1782226562,      -11.4746093750,       -7.5073242188,      -28.8391113281
1488916726.0901989937,1488916726.0926139355,        0.5825195312,        0.1162109375,       -0.1850585938,      -11.9781494141,       -7.4310302734,      -28.8391113281
1488916726.0929019451,1488916726.0952351093,        0.5981445312,        0.1162109375,       -0.1850585938,      -11.9781494141,       -7.4310302734,      -30.4260253906
1488916726.0955181122,1488916726.0978050232,        0.5981445312,        0.1162109375,       -0.1850585938,      -12.2070312500,       -7.6751708984,      -30.4260253906
1488916726.0980889797,1488916726.1003758907,        0.5981445312,        0.1162109375,       -0.1850585938,      -12.2070312500,       -7.6751708984,      -34.3322753906
1488916726.1006579399,1488916726.1029450893,        0.6093750000,        0.1088867188,       -0.1840820312,      -10.8947753906,       -7.5531005859,      -31.6467285156
1488916726.1032269001,1488916726.1056768894,        0.6093750000,        0.1088867188,       -0.1840820312,      -10.8947753906,       -7.5531005859,      -31.6467285156
1488916726.1059670448,1488916726.1083850861,        0.6093750000,        0.1088867188,       -0.1840820312,      -11.4135742188,       -6.9885253906,      -32.9742431641
1488916726.1086740494,1488916726.1110899448,        0.6093750000,        0.1088867188,       -0.1840820312,      -11.4135742188,       -6.9885253906,      -32.9742431641
1488916726.1113810539,1488916726.1138010025,        0.6210937500,        0.1162109375,       -0.1909179688,      -11.4593505859,       -6.8969726562,      -33.5388183594
1488916726.1140930653,1488916726.1165080070,        0.6210937500,        0.1162109375,       -0.1909179688,      -11.4593505859,       -6.8969726562,      -33.5388183594
1488916726.1167960167,1488916726.1192069054,        0.6210937500,        0.1162109375,       -0.1909179688,      -11.1999511719,       -7.2174072266,      -33.9660644531
1488916726.1194961071,1488916726.1219110489,        0.6210937500,        0.1162109375,       -0.1909179688,      -11.1999511719,       -7.2174072266,      -33.9660644531
1488916726.1221990585,1488916726.1246590614,        0.6196289062,        0.1381835938,       -0.1728515625,      -11.0321044922,       -7.7667236328,      -34.2559814453
1488916726.1249470711,1488916726.1273539066,        0.6196289062,        0.1381835938,       -0.1728515625,      -11.0321044922,       -7.7667236328,      -34.2559814453
1488916726.1276450157,1488916726.1300621033,        0.6196289062,        0.1381835938,       -0.1728515625,      -11.3525390625,       -8.2244873047,      -33.8745117188
1488916726.1303501129,1488916726.1327610016,        0.6196289062,        0.1708984375,       -0.1674804688,      -11.3525390625,       -8.2244873047,      -33.8745117188
1488916726.1330480576,1488916726.1354711056,        0.6025390625,        0.1708984375,       -0.1674804688,      -12.0086669922,       -9.1705322266,      -33.0047607422
1488916726.1357591152,1488916726.1381781101,        0.6025390625,        0.1708984375,       -0.1674804688,      -12.0086669922,       -9.1705322266,      -33.0047607422
1488916726.1384670734,1488916726.1408789158,        0.6025390625,        0.1708984375,       -0.1674804688,      -12.6037597656,       -9.4604492188,      -31.7993164062
1488916726.1411669254,1488916726.1435799599,        0.5966796875,        0.1694335938,       -0.1347656250,      -12.6037597656,       -9.4604492188,      -31.7993164062
1488916726.1438610554,1488916726.1461539268,        0.5966796875,        0.1694335938,       -0.1347656250,      -13.7939453125,      -10.3607177734,      -31.2042236328
1488916726.1464359760,1488916726.1487250328,        0.5966796875,        0.1694335938,       -0.1347656250,      -13.7939453125,      -10.3607177734,      -31.2042236328
1488916726.1491069794,1488916726.1513969898,        0.5966796875,        0.1694335938,       -0.1347656250,      -13.5040283203,      -11.4746093750,      -30.5480957031
1488916726.1516790390,1488916726.1540050507,        0.5810546875,        0.1762695312,       -0.1396484375,      -13.5040283203,      -11.4746093750,      -30.5480957031
1488916726.1542959213,1488916726.1567099094,        0.5810546875,        0.1762695312,       -0.1396484375,      -11.9323730469,      -12.6190185547,      -30.5480957031
1488916726.1570019722,1488916726.1594169140,        0.5810546875,        0.1762695312,       -0.1396484375,      -11.9323730469,      -12.6190185547,      -30.5480957031
1488916726.1597080231,1488916726.1621201038,        0.5810546875,        0.1762695312,       -0.1396484375,      -11.8408203125,      -13.2598876953,      -30.5938720703
1488916726.1624109745,1488916726.1648659706,        0.5781250000,        0.1708984375,       -0.1391601562,      -11.8408203125,      -13.2598876953,      -30.5938720703
1488916726.1651558876,1488916726.1675770283,        0.5781250000,        0.1708984375,       -0.1391601562,      -12.0697021484,      -13.5803222656,      -30.5175781250
1488916726.1678669453,1488916726.1702780724,        0.5781250000,        0.1708984375,       -0.1391601562,      -12.0697021484,      -13.5803222656,      -30.5175781250
1488916726.1705710888,1488916726.1729750633,        0.5781250000,        0.1684570312,       -0.1611328125,      -12.6190185547,      -14.4958496094,      -29.5715332031
1488916726.1732680798,1488916726.1756889820,        0.5810546875,        0.1684570312,       -0.1611328125,      -12.6190185547,      -14.4958496094,      -29.5715332031
1488916726.1759800911,1488916726.1783928871,        0.5810546875,        0.1684570312,       -0.1611328125,      -12.3901367188,      -15.0299072266,      -29.6173095703
1488916726.1786849499,1488916726.1811010838,        0.5810546875,        0.1684570312,       -0.1611328125,      -12.3901367188,      -15.0299072266,      -29.6173095703
1488916726.1813919544,1488916726.1838500500,        0.6284179688,        0.1196289062,       -0.2041015625,      -11.8865966797,      -14.3432617188,      -30.8227539062
1488916726.1841440201,1488916726.1865561008,        0.6284179688,        0.1196289062,       -0.2041015625,      -11.8865966797,      -14.3432617188,      -30.8227539062
1488916726.1868479252,1488916726.1892669201,        0.6284179688,        0.1196289062,       -0.2041015625,       -9.9487304688,      -13.6260986328,      -33.7524414062
1488916726.1895558834,1488916726.1919701099,        0.6284179688,        0.1196289062,       -0.2041015625,       -9.9487304688,      -13.6260986328,      -33.7524414062
1488916726.1922578812,1488916726.1946179867,        0.6420898438,        0.1240234375,       -0.2436523438,       -9.5672607422,      -13.3361816406,      -35.2020263672
1488916726.1949009895,1488916726.1971900463,        0.6420898438,        0.1240234375,       -0.2436523438,       -9.5672607422,      -13.3361816406,      -35.2020263672
1488916726.1974730492,1488916726.1997609138,        0.6420898438,        0.1240234375,       -0.2436523438,       -9.7961425781,      -13.0310058594,      -35.8886718750
1488916726.2000451088,1488916726.2023301125,        0.6420898438,        0.1240234375,       -0.2436523438,       -9.7961425781,      -13.0310058594,      -35.8886718750
1488916726.2026131153,1488916726.2049911022,        0.6347656250,        0.1420898438,       -0.2319335938,      -10.5133056641,      -12.8479003906,      -37.2009277344
1488916726.2052841187,1488916726.2076990604,        0.6347656250,        0.1420898438,       -0.2319335938,      -10.5133056641,      -12.8479003906,      -37.2009277344
1488916726.2079899311,1488916726.2104070187,        0.6347656250,        0.1420898438,       -0.2319335938,      -11.8255615234,      -12.8479003906,      -38.0554199219
1488916726.2106990814,1488916726.2131140232,        0.6347656250,        0.1420898438,       -0.2338867188,      -11.8255615234,      -12.8479003906,      -38.0554199219
1488916726.2134048939,1488916726.2158679962,        0.6206054688,        0.1645507812,       -0.2338867188,      -12.7258300781,      -12.5274658203,      -38.3911132812
1488916726.2162671089,1488916726.2186799049,        0.6206054688,        0.1645507812,       -0.2338867188,      -12.7258300781,      -12.5274658203,      -38.3911132812
1488916726.2189719677,1488916726.2213809490,        0.6206054688,        0.1645507812,       -0.2338867188,      -14.5568847656,      -13.5650634766,      -38.0706787109
1488916726.2216720581,1488916726.2241039276,        0.6044921875,        0.1655273438,       -0.1943359375,      -14.5568847656,      -13.5650634766,      -38.0706787109
1488916726.2243940830,1488916726.2268059254,        0.6044921875,        0.1655273438,       -0.1943359375,      -14.8315429688,      -13.9770507812,      -38.1469726562
1488916726.2270979881,1488916726.2295069695,        0.6044921875,        0.1655273438,       -0.1943359375,      -14.8315429688,      -13.9770507812,      -38.1469726562
1488916726.2297968864,1488916726.2322120667,        0.6044921875,        0.1655273438,       -0.1943359375,      -14.6331787109,      -14.6179199219,      -38.6505126953
1488916726.2325038910,1488916726.2349259853,        0.6264648438,        0.1567382812,       -0.1704101562,      -14.6331787109,      -14.6179199219,      -38.6505126953
1488916726.2352159023,1488916726.2376270294,        0.6264648438,        0.1567382812,       -0.1704101562,      -14.0380859375,      -14.7552490234,      -39.3981933594
1488916726.2379179001,1488916726.2403299809,        0.6264648438,        0.1567382812,       -0.1704101562,      -14.0380859375,      -14.7552490234,      -39.3981933594
1488916726.2406210899,1488916726.2430300713,        0.6264648438,        0.1567382812,       -0.1704101562,      -13.1225585938,      -14.8620605469,      -39.8559570312
1488916726.2433209419,1488916726.2456319332,        0.6347656250,        0.1928710938,       -0.1621093750,      -13.1225585938,      -14.8620605469,      -39.8559570312
1488916726.2459170818,1488916726.2482080460,        0.6347656250,        0.1928710938,       -0.1621093750,      -13.1225585938,      -16.4031982422,      -39.7186279297
1488916726.2484920025,1488916726.2507829666,        0.6347656250,        0.1928710938,       -0.1621093750,      -13.9007568359,      -16.4031982422,      -39.7186279297
1488916726.2510669231,1488916726.2533590794,        0.6347656250,        0.1928710938,       -0.1567382812,      -13.9007568359,      -16.4031982422,      -39.3371582031
1488916726.2537090778,1488916726.2561230659,        0.6489257812,        0.1889648438,       -0.1567382812,      -15.6402587891,      -16.9830322266,      -39.3371582031
1488916726.2564160824,1488916726.2588310242,        0.6489257812,        0.1889648438,       -0.1567382812,      -15.6402587891,      -16.9830322266,      -39.6423339844
1488916726.2591218948,1488916726.2615408897,        0.6489257812,        0.1889648438,       -0.1567382812,      -16.7388916016,      -18.0816650391,      -39.6423339844
1488916726.2618319988,1488916726.2642569542,        0.6708984375,        0.1533203125,       -0.1547851562,      -16.7388916016,      -21.9879150391,      -40.7409667969
1488916726.2645480633,1488916726.2669599056,        0.6708984375,        0.1533203125,       -0.1547851562,      -15.5944824219,      -19.9279785156,      -40.7409667969
1488916726.2672519684,1488916726.2696630955,        0.6708984375,        0.1533203125,       -0.1547851562,      -15.5944824219,      -19.9279785156,      -42.5415039062
1488916726.2699549198,1488916726.2723679543,        0.6708984375,        0.1533203125,       -0.1547851562,      -14.4958496094,      -20.6756591797,      -42.5415039062
1488916726.2726590633,1488916726.2750840187,        0.6494140625,        0.1791992188,       -0.1679687500,      -14.4958496094,      -20.6756591797,      -43.3044433594
1488916726.2753739357,1488916726.2777860165,        0.6494140625,        0.1791992188,       -0.1679687500,      -14.2669677734,      -21.4996337891,      -43.3044433594
1488916726.2780759335,1488916726.2804889679,        0.6494140625,        0.1791992188,       -0.1679687500,      -14.2669677734,      -21.4996337891,      -43.9300537109
1488916726.2808890343,1488916726.2833039761,        0.6494140625,        0.1791992188,       -0.1679687500,      -15.2740478516,      -22.6440429688,      -43.9300537109
1488916726.2835869789,1488916726.2858760357,        0.6538085938,        0.1972656250,       -0.1738281250,      -15.2740478516,      -22.6440429688,      -44.9218750000
1488916726.2861590385,1488916726.2884500027,        0.6538085938,        0.1972656250,       -0.1738281250,      -15.7012939453,      -23.0407714844,      -44.9218750000
1488916726.2887320518,1488916726.2910180092,        0.6538085938,        0.1972656250,       -0.1738281250,      -15.7012939453,      -23.0407714844,      -44.9218750000
1488916726.2913010120,1488916726.2936029434,        0.6538085938,        0.1972656250,       -0.1665039062,      -16.3574218750,      -23.6816406250,      -46.0205078125
1488916726.2938940525,1488916726.2963099480,        0.6313476562,        0.2050781250,       -0.1665039062,      -16.3574218750,      -23.6816406250,      -46.0205078125
1488916726.2966001034,1488916726.2990128994,        0.6313476562,        0.2050781250,       -0.1665039062,      -16.4947509766,      -24.2767333984,      -46.4324951172
1488916726.2993071079,1488916726.3017170429,        0.6313476562,        0.2050781250,       -0.1665039062,      -16.4947509766,      -24.2767333984,      -46.4324951172
1488916726.3020091057,1488916726.3044719696,        0.5063476562,        0.2285156250,       -0.1562500000,      -16.2811279297,      -24.8718261719,      -46.3714599609
1488916726.3047640324,1488916726.3071789742,        0.6147460938,        0.2285156250,       -0.1562500000,      -16.2811279297,      -24.8718261719,      -46.3714599609
1488916726.3074700832,1488916726.3098790646,        0.6147460938,        0.2285156250,       -0.1562500000,      -15.8386230469,      -26.1535644531,      -45.8374023438
1488916726.3101708889,1488916726.3125839233,        0.6147460938,        0.2285156250,       -0.1562500000,      -15.8386230469,      -26.1535644531,      -45.8374023438
1488916726.3128778934,1488916726.3152959347,        0.5942382812,        0.2416992188,       -0.1567382812,      -15.9606933594,      -27.0233154297,      -45.8984375000
1488916726.3155860901,1488916726.3180010319,        0.5942382812,        0.2416992188,       -0.1567382812,      -15.9606933594,      -27.0233154297,      -45.8984375000
1488916726.3182909489,1488916726.3207070827,        0.5942382812,        0.2416992188,       -0.1567382812,      -14.8925781250,      -28.1982421875,      -45.6542968750
1488916726.3209960461,1488916726.3234109879,        0.5942382812,        0.2416992188,       -0.1567382812,      -14.8925781250,      -28.1982421875,      -45.6542968750
1488916726.3237400055,1488916726.3261539936,        0.5791015625,        0.2519531250,       -0.1743164062,      -13.9617919922,      -28.1982421875,      -45.4254150391
1488916726.3264460564,1488916726.3288559914,        0.5791015625,        0.2519531250,       -0.1743164062,      -13.9617919922,      -28.1982421875,      -45.4254150391
1488916726.3291480541,1488916726.3315598965,        0.5791015625,        0.2519531250,       -0.1743164062,      -13.7023925781,      -28.1219482422,      -45.5017089844
1488916726.3318519592,1488916726.3342370987,        0.5791015625,        0.2519531250,       -0.1982421875,      -13.7023925781,      -28.1219482422,      -45.5017089844
1488916726.3345210552,1488916726.3368129730,        0.5571289062,        0.2871093750,       -0.1982421875,      -14.3127441406,      -27.8930664062,      -44.9066162109
1488916726.3370969296,1488916726.3393869400,        0.5571289062,        0.2871093750,       -0.1982421875,      -14.3127441406,      -27.8930664062,      -44.9066162109
1488916726.3396699429,1488916726.3419580460,        0.5571289062,        0.2871093750,       -0.1982421875,      -14.6636962891,      -27.6489257812,      -43.9147949219
1488916726.3422439098,1488916726.3446009159,        0.5571289062,        0.2729492188,       -0.2099609375,      -14.6636962891,      -27.6489257812,      -43.9147949219
1488916726.3449978828,1488916726.3474080563,        0.5522460938,        0.2729492188,       -0.2099609375,      -14.0380859375,      -27.6184082031,      -43.7622070312
1488916726.3476989269,1488916726.3501141071,        0.5522460938,        0.2729492188,       -0.2099609375,      -14.0380859375,      -27.6184082031,      -43.7622070312
1488916726.3504049778,1488916726.3528220654,        0.5522460938,        0.2729492188,       -0.2099609375,      -13.7481689453,      -26.6571044922,      -43.4265136719
1488916726.3531129360,1488916726.3555400372,        0.5424804688,        0.2895507812,       -0.2392578125,      -13.7481689453,      -26.6571044922,      -43.4265136719
1488916726.3558340073,1488916726.3582460880,        0.5424804688,        0.2895507812,       -0.2392578125,      -13.8702392578,      -25.2227783203,      -43.6248779297
1488916726.3585360050,1488916726.3609490395,        0.5424804688,        0.2895507812,       -0.2392578125,      -13.8702392578,      -25.2227783203,      -43.6248779297
1488916726.3612399101,1488916726.3636610508,        0.5424804688,        0.2895507812,       -0.2392578125,      -13.4887695312,      -24.1851806641,      -43.7011718750
1488916726.3639519215,1488916726.3663640022,        0.5263671875,        0.2934570312,       -0.2548828125,      -13.4887695312,      -24.1851806641,      -43.7011718750
1488916726.3666539192,1488916726.3690600395,        0.5263671875,        0.2934570312,       -0.2548828125,      -13.5498046875,      -23.4375000000,      -42.9382324219
1488916726.3693521023,1488916726.3717589378,        0.5263671875,        0.2934570312,       -0.2548828125,      -13.5498046875,      -23.4375000000,      -42.9382324219
1488916726.3720469475,1488916726.3744668961,        0.5263671875,        0.2934570312,       -0.2612304688,      -13.3361816406,      -23.0560302734,      -41.2597656250
1488916726.3747589588,1488916726.3771719933,        0.5126953125,        0.2983398438,       -0.2612304688,      -13.3361816406,      -23.0560302734,      -41.2597656250
1488916726.3774609566,1488916726.3798730373,        0.5126953125,        0.2983398438,       -0.2612304688,      -13.4887695312,      -22.0794677734,      -39.9475097656
1488916726.3801639080,1488916726.3825740814,        0.5126953125,        0.2983398438,       -0.2612304688,      -13.4887695312,      -22.0794677734,      -39.9475097656
1488916726.3828649521,1488916726.3851940632,        0.5126953125,        0.3105468750,       -0.2866210938,      -14.2822265625,      -20.7519531250,      -39.5812988281
1488916726.3854780197,1488916726.3877670765,        0.5371093750,        0.3105468750,       -0.2866210938,      -14.2822265625,      -20.7519531250,      -39.5812988281
1488916726.3880500793,1488916726.3903388977,        0.5371093750,        0.3105468750,       -0.2866210938,      -15.9759521484,      -19.2565917969,      -39.3218994141
1488916726.3906219006,1488916726.3929109573,        0.5371093750,        0.3105468750,       -0.2866210938,      -15.9759521484,      -19.2565917969,      -39.3218994141
1488916726.3931949139,1488916726.3956019878,        0.5605468750,        0.2973632812,       -0.2988281250,      -17.6849365234,      -17.5628662109,      -39.3066406250
1488916726.3958930969,1488916726.3983039856,        0.5605468750,        0.2973632812,       -0.2988281250,      -17.6849365234,      -17.5628662109,      -39.3066406250
1488916726.3985939026,1488916726.4010028839,        0.5605468750,        0.2973632812,       -0.2988281250,      -19.4396972656,      -16.7541503906,      -37.7960205078
1488916726.4012939930,1488916726.4037189484,        0.5605468750,        0.2973632812,       -0.2988281250,      -19.4396972656,      -16.7541503906,      -37.7960205078
1488916726.4040079117,1488916726.4064259529,        0.6318359375,        0.2216796875,       -0.3115234375,      -20.2636718750,      -16.0217285156,      -36.9873046875
1488916726.4067149162,1488916726.4091310501,        0.6318359375,        0.2216796875,       -0.3115234375,      -20.2636718750,      -16.0217285156,      -36.9873046875
1488916726.4095280170,1488916726.4119429588,        0.6318359375,        0.2216796875,       -0.3115234375,      -20.0347900391,      -13.5955810547,      -39.1387939453
1488916726.4122359753,1488916726.4146609306,        0.6318359375,        0.2216796875,       -0.3374023438,      -20.0347900391,      -13.5955810547,      -39.1387939453
1488916726.4149539471,1488916726.4173729420,        0.7045898438,        0.2163085938,       -0.3374023438,      -19.6990966797,      -11.1694335938,      -42.0532226562
1488916726.4176640511,1488916726.4200749397,        0.7045898438,        0.2163085938,       -0.3374023438,      -19.6990966797,      -11.1694335938,      -42.0532226562
1488916726.4203679562,1488916726.4227769375,        0.7045898438,        0.2163085938,       -0.3374023438,      -19.3939208984,       -8.7738037109,      -44.2352294922
1488916726.4230649471,1488916726.4254910946,        0.7045898438,        0.1997070312,       -0.3515625000,      -19.3939208984,       -8.7738037109,      -44.2352294922
1488916726.4257800579,1488916726.4281919003,        0.7109375000,        0.1997070312,       -0.3515625000,      -19.0277099609,       -6.9427490234,      -47.1496582031
1488916726.4284799099,1488916726.4308950901,        0.7109375000,        0.1997070312,       -0.3515625000,      -19.0277099609,       -6.9427490234,      -47.1496582031
1488916726.4311840534,1488916726.4335889816,        0.7109375000,        0.1997070312,       -0.3515625000,      -19.7296142578,       -5.7525634766,      -51.2237548828
1488916726.4338700771,1488916726.4361550808,        0.7031250000,        0.2456054688,       -0.3442382812,      -19.7296142578,       -5.7525634766,      -51.2237548828
1488916726.4364368916,1488916726.4387249947,        0.7031250000,        0.2456054688,       -0.3442382812,      -19.7296142578,       -4.5776367188,      -55.6488037109
1488916726.4390070438,1488916726.4412920475,        0.7031250000,        0.2456054688,       -0.3442382812,      -20.8740234375,       -4.5776367188,      -55.6488037109
1488916726.4415740967,1488916726.4439070225,        0.7031250000,        0.2456054688,       -0.3442382812,      -20.8740234375,       -0.6713867188,      -57.9376220703
1488916726.4441978931,1488916726.4466130733,        0.6748046875,        0.2133789062,       -0.3183593750,      -20.6146240234,       -3.4027099609,      -57.9376220703
1488916726.4468998909,1488916726.4493141174,        0.6748046875,        0.2133789062,       -0.3183593750,      -20.6146240234,       -3.4027099609,      -58.3801269531
1488916726.4496009350,1488916726.4520161152,        0.6748046875,        0.2133789062,       -0.3183593750,      -19.3023681641,       -2.3651123047,      -58.3801269531
1488916726.4523050785,1488916726.4547250271,        0.6748046875,        0.2133789062,       -0.3183593750,      -19.3023681641,       -2.3651123047,      -59.9670410156
1488916726.4550139904,1488916726.4574220181,        0.6689453125,        0.2353515625,       -0.2631835938,      -17.9443359375,       -0.6256103516,      -59.9670410156
1488916726.4577119350,1488916726.4601221085,        0.6689453125,        0.2353515625,       -0.2631835938,      -17.9443359375,        3.2806396484,      -63.5223388672
1488916726.4604079723,1488916726.4628210068,        0.6689453125,        0.2353515625,       -0.2631835938,      -16.0369873047,        0.5187988281,      -63.5223388672
1488916726.4631099701,1488916726.4655320644,        0.6689453125,        0.3603515625,       -0.2109375000,      -16.0369873047,        0.5187988281,      -68.0236816406
1488916726.4658210278,1488916726.4682340622,        0.6645507812,        0.2822265625,       -0.2109375000,      -15.3045654297,        2.0751953125,      -68.0236816406
1488916726.4685220718,1488916726.4709339142,        0.6645507812,        0.2822265625,       -0.2109375000,      -15.3045654297,        2.0751953125,      -69.6716308594
1488916726.4712250233,1488916726.4736831188,        0.6645507812,        0.2822265625,       -0.2109375000,      -15.8386230469,        2.7618408203,      -69.6716308594
1488916726.4740800858,1488916726.4764940739,        0.6665039062,        0.2446289062,       -0.1889648438,      -15.8386230469,        6.6680908203,      -69.0002441406
1488916726.4767820835,1488916726.4791910648,        0.6665039062,        0.2446289062,       -0.1889648438,      -15.4266357422,        4.1809082031,      -69.0002441406
1488916726.4794809818,1488916726.4818899632,        0.6665039062,        0.2446289062,       -0.1889648438,      -15.4266357422,        4.1809082031,      -68.0999755859
1488916726.4821801186,1488916726.4845299721,        0.6665039062,        0.2446289062,       -0.1889648438,      -15.3198242188,        5.6152343750,      -68.0999755859
1488916726.4848120213,1488916726.4870989323,        0.7485351562,        0.2597656250,       -0.1889648438,      -15.3198242188,        5.6152343750,      -66.0400390625
1488916726.4873809814,1488916726.4896728992,        0.7485351562,        0.2597656250,       -0.1889648438,      -16.5557861328,        5.8898925781,      -66.0400390625
1488916726.4899530411,1488916726.4922420979,        0.7485351562,        0.2597656250,       -0.1889648438,      -16.5557861328,        5.8898925781,      -66.0400390625
1488916726.4925239086,1488916726.4949100018,        0.7485351562,        0.2597656250,       -0.1889648438,      -19.8822021484,        6.7749023438,      -62.7288818359
1488916726.4951980114,1488916726.4976050854,        0.7856445312,        0.2480468750,       -0.2197265625,      -19.8822021484,        6.7749023438,      -62.7288818359
1488916726.4978930950,1488916726.5003058910,        0.7856445312,        0.2480468750,       -0.2197265625,      -23.1933593750,        7.7209472656,      -61.7828369141
1488916726.5005950928,1488916726.5030090809,        0.7856445312,        0.2480468750,       -0.2197265625,      -23.1933593750,        7.7209472656,      -61.7828369141
1488916726.5032989979,1488916726.5057239532,        0.7856445312,        0.2480468750,       -0.2504882812,      -25.6042480469,        8.5906982422,      -61.7370605469
1488916726.5060110092,1488916726.5084269047,        0.7963867188,        0.1835937500,       -0.2504882812,      -25.6042480469,        8.5906982422,      -61.7370605469
1488916726.5087149143,1488916726.5111329556,        0.7963867188,        0.1835937500,       -0.2504882812,      -27.6184082031,        8.2092285156,      -61.0351562500
1488916726.5114219189,1488916726.5138819218,        0.7963867188,        0.1835937500,       -0.2504882812,      -27.6184082031,        8.2092285156,      -61.0351562500
1488916726.5141730309,1488916726.5165860653,        0.7905273438,        0.1826171875,       -0.2583007812,      -27.9846191406,        7.9498291016,      -60.8978271484
1488916726.5168750286,1488916726.5192899704,        0.7905273438,        0.1826171875,       -0.2583007812,      -27.9846191406,        7.9498291016,      -60.8978271484
1488916726.5195779800,1488916726.5219941139,        0.7905273438,        0.1826171875,       -0.2583007812,      -29.5562744141,        7.2937011719,      -61.2792968750
1488916726.5222830772,1488916726.5247058868,        0.7905273438,        0.1826171875,       -0.2583007812,      -29.5562744141,        7.2937011719,      -61.2792968750
1488916726.5249950886,1488916726.5274059772,        0.7666015625,        0.1391601562,       -0.2539062500,      -32.9437255859,        6.3171386719,      -60.2722167969
1488916726.5276939869,1488916726.5301001072,        0.7666015625,        0.1391601562,       -0.2539062500,      -32.9437255859,        6.3171386719,      -60.2722167969
1488916726.5303890705,1488916726.5327990055,        0.7666015625,        0.1391601562,       -0.2539062500,      -35.6445312500,        4.7912597656,      -56.9305419922
1488916726.5330870152,1488916726.5354108810,        0.7666015625,        0.1391601562,       -0.2539062500,      -35.6445312500,        4.7912597656,      -56.9305419922
1488916726.5356929302,1488916726.5379850864,        0.7172851562,        0.0898437500,       -0.2402343750,      -36.1480712891,        3.3264160156,      -53.6041259766
1488916726.5383770466,1488916726.5406680107,        0.7172851562,        0.0898437500,       -0.2402343750,      -36.1480712891,        3.3264160156,      -53.6041259766
1488916726.5409519672,1488916726.5432419777,        0.7172851562,        0.0898437500,       -0.2402343750,      -35.6597900391,        1.7547607422,      -52.4139404297
1488916726.5435330868,1488916726.5459480286,        0.7172851562,        0.0898437500,       -0.2036132812,      -35.6597900391,        1.7547607422,      -52.4139404297
1488916726.5462379456,1488916726.5486528873,        0.7041015625,        0.0898437500,       -0.2036132812,      -35.4461669922,       -0.3204345703,      -51.5289306641
1488916726.5489430428,1488916726.5513539314,        0.7041015625,        0.0898437500,       -0.2036132812,      -35.4461669922,       -0.3204345703,      -51.5289306641
1488916726.5516419411,1488916726.5540668964,        0.7041015625,        0.0898437500,       -0.2036132812,      -34.5611572266,       -1.9836425781,      -49.4995117188
1488916726.5543570518,1488916726.5567710400,        0.7041015625,        0.1083984375,       -0.1484375000,      -34.5611572266,       -1.9836425781,      -49.4995117188
1488916726.5570619106,1488916726.5594799519,        0.6865234375,        0.1083984375,       -0.1484375000,      -35.0952148438,       -2.8228759766,      -47.7447509766
1488916726.5597689152,1488916726.5621809959,        0.6865234375,        0.1083984375,       -0.1484375000,      -35.0952148438,       -2.8228759766,      -47.7447509766
1488916726.5624690056,1488916726.5648910999,        0.6865234375,        0.1083984375,       -0.1484375000,      -39.2150878906,       -4.6539306641,      -46.2799072266
1488916726.5651791096,1488916726.5675899982,        0.6406250000,        0.0917968750,       -0.0561523438,      -39.2150878906,       -4.6539306641,      -46.2799072266
1488916726.5678799152,1488916726.5702960491,        0.6406250000,        0.0917968750,       -0.0561523438,      -47.3632812500,       -3.4942626953,      -43.5943603516
1488916726.5705850124,1488916726.5729959011,        0.6406250000,        0.0917968750,       -0.0561523438,      -47.3632812500,       -3.4942626953,      -43.5943603516
1488916726.5732839108,1488916726.5755939484,        0.6406250000,        0.0917968750,       -0.0561523438,      -51.6967773438,       -1.6174316406,      -43.7622070312
1488916726.5758750439,1488916726.5781650543,        0.6928710938,        0.1845703125,        0.0649414062,      -51.6967773438,       -1.6174316406,      -43.7622070312
1488916726.5784459114,1488916726.5807380676,        0.6928710938,        0.1845703125,        0.0649414062,      -51.0559082031,       -1.1444091797,      -46.6613769531
1488916726.5810189247,1488916726.5833110809,        0.6928710938,        0.1845703125,        0.0649414062,      -51.0559082031,       -1.1444091797,      -46.6613769531
1488916726.5836000443,1488916726.5860130787,        0.6928710938,        0.1845703125,        0.0649414062,      -45.0592041016,       -2.7160644531,      -51.2542724609
1488916726.5863039494,1488916726.5887179375,        0.6879882812,        0.2822265625,        0.1132812500,      -45.0592041016,       -2.7160644531,      -51.2542724609
1488916726.5890069008,1488916726.5914180279,        0.6879882812,        0.2822265625,        0.1132812500,      -31.7382812500,       -3.2043457031,      -58.0749511719
1488916726.5917060375,1488916726.5941269398,        0.6879882812,        0.2822265625,        0.1132812500,      -31.7382812500,       -3.2043457031,      -58.0749511719
1488916726.5944149494,1488916726.5968279839,        0.6879882812,        0.4067382812,        0.0419921875,      -16.7236328125,       -3.4484863281,      -70.5261230469
1488916726.5971169472,1488916726.5995249748,        0.6533203125,        0.4067382812,        0.0419921875,      -16.7236328125,       -3.4484863281,      -70.5261230469
1488916726.5998148918,1488916726.6022269726,        0.6533203125,        0.4067382812,        0.0419921875,      -10.2844238281,       -8.3923339844,      -83.7554931641
1488916726.6026239395,1488916726.6050760746,        0.6533203125,        0.4067382812,        0.0419921875,      -10.2844238281,       -8.3923339844,      -83.7554931641
1488916726.6053659916,1488916726.6077771187,        0.5971679688,        0.3945312500,       -0.1977539062,      -15.3198242188,      -11.4898681641,      -92.7429199219
1488916726.6080679893,1488916726.6104819775,        0.5971679688,        0.3945312500,       -0.1977539062,      -15.3198242188,      -11.4898681641,      -92.7429199219
1488916726.6107759476,1488916726.6131870747,        0.5971679688,        0.3945312500,       -0.1977539062,      -24.7497558594,      -10.4064941406,      -92.3461914062
1488916726.6134889126,1488916726.6157789230,        0.5971679688,        0.3945312500,       -0.1977539062,      -24.7497558594,      -10.4064941406,      -92.3461914062
1488916726.6160631180,1488916726.6183540821,        0.6464843750,        0.1406250000,       -0.1308593750,      -20.8435058594,      -11.7340087891,      -92.4987792969
1488916726.6186370850,1488916726.6209259033,        0.6464843750,        0.1406250000,       -0.1308593750,      -21.6064453125,      -11.7340087891,      -92.4987792969
1488916726.6212100983,1488916726.6235311031,        0.6464843750,        0.1406250000,       -0.1308593750,      -21.6064453125,      -11.7340087891,     -100.6622314453
1488916726.6238229275,1488916726.6262359619,        0.6464843750,        0.1406250000,       -0.1308593750,      -15.0604248047,      -14.8925781250,     -100.6622314453
1488916726.6265261173,1488916726.6289389133,        0.5971679688,        0.2084960938,       -0.1503906250,      -15.0604248047,      -14.8925781250,     -104.1259765625
1488916726.6292319298,1488916726.6316449642,        0.5971679688,        0.2084960938,       -0.1503906250,      -11.8713378906,      -13.4277343750,     -104.1259765625
1488916726.6319370270,1488916726.6343638897,        0.5971679688,        0.2084960938,       -0.1503906250,      -11.8713378906,       -9.5214843750,      -98.6938476562
1488916726.6346530914,1488916726.6370670795,        0.5971679688,        0.3334960938,       -0.1586914062,       -9.5825195312,       -9.7351074219,      -98.6938476562
1488916726.6373529434,1488916726.6397650242,        0.5068359375,        0.3149414062,       -0.1586914062,       -9.5825195312,       -5.8288574219,      -88.3331298828
1488916726.6400489807,1488916726.6424679756,        0.5068359375,        0.3149414062,       -0.1586914062,      -12.5732421875,       -6.8817138672,      -88.3331298828
1488916726.6427578926,1488916726.6451768875,        0.5068359375,        0.3149414062,       -0.1586914062,      -12.5732421875,      -14.6942138672,      -96.7559814453
1488916726.6454689503,1488916726.6478829384,        0.8911132812,        0.2363281250,       -0.1528320312,      -16.4642333984,      -13.8397216797,      -96.7559814453
1488916726.6481730938,1488916726.6505858898,        0.8911132812,        0.2363281250,       -0.1528320312,      -16.4642333984,      -13.8397216797,     -139.7552490234
1488916726.6508760452,1488916726.6532890797,        0.8911132812,        0.2363281250,       -0.1528320312,       -8.8043212891,      -23.0560302734,     -139.7552490234
1488916726.6535849571,1488916726.6559979916,        0.8911132812,        0.2363281250,       -0.1528320312,       -8.8043212891,      -23.0560302734,     -163.6810302734
1488916726.6562869549,1488916726.6586980820,        0.7851562500,        0.4438476562,       -0.1391601562,        7.6904296875,       -8.6975097656,     -163.6810302734
1488916726.6589839458,1488916726.6614010334,        0.7851562500,        0.4438476562,       -0.1391601562,        7.6904296875,       -8.6975097656,     -157.9437255859
1488916726.6616859436,1488916726.6640839577,        0.7851562500,        0.4438476562,       -0.1391601562,       11.6424560547,       -3.3111572266,     -157.9437255859
1488916726.6643660069,1488916726.6666560173,        0.7851562500,        0.4438476562,       -0.0141601562,       11.6424560547,       -3.3111572266,     -149.6124267578
1488916726.6670451164,1488916726.6693329811,        0.5390625000,        0.6127929688,       -0.0927734375,        0.2136230469,      -11.9323730469,     -149.6124267578
1488916726.6696159840,1488916726.6719040871,        0.5390625000,        0.6127929688,       -0.0927734375,        0.2136230469,      -11.9323730469,     -145.7061767578
1488916726.6721870899,1488916726.6746420860,        0.5390625000,        0.6127929688,       -0.0927734375,      -14.7094726562,      -15.8233642578,     -145.0500488281
1488916726.6749370098,1488916726.6773529053,        0.5390625000,        0.4877929688,       -0.1567382812,      -14.7094726562,      -15.8233642578,     -137.2375488281
1488916726.6776459217,1488916726.6800620556,        0.6708984375,        0.4438476562,       -0.1567382812,      -20.7519531250,      -16.5710449219,     -140.2740478516
1488916726.6803529263,1488916726.6827681065,        0.6708984375,        0.4438476562,       -0.1567382812,      -20.7519531250,      -16.5710449219,     -136.3677978516
1488916726.6830589771,1488916726.6854848862,        0.6708984375,        0.4438476562,       -0.1567382812,      -10.5895996094,      -12.5274658203,     -133.1481933594
1488916726.6857759953,1488916726.6881899834,        0.8037109375,        0.3466796875,       -0.1992187500,      -10.5895996094,      -12.5274658203,     -125.3356933594
1488916726.6884810925,1488916726.6908960342,        0.8037109375,        0.3466796875,       -0.1992187500,        2.3040771484,       -7.1411132812,     -126.4801025391
1488916726.6911818981,1488916726.6935930252,        0.8037109375,        0.3466796875,       -0.1992187500,        2.3040771484,       -7.1411132812,     -126.4801025391
1488916726.6938779354,1488916726.6962909698,        0.8037109375,        0.3466796875,       -0.1992187500,       17.8375244141,       -4.0588378906,     -120.6665039062
1488916726.6965799332,1488916726.6989939213,        0.6630859375,        0.6469726562,       -0.3144531250,       17.8375244141,       -4.0588378906,     -120.6665039062
1488916726.6992850304,1488916726.7016940117,        0.6630859375,        0.6469726562,       -0.3144531250,       28.5186767578,       -5.0506591797,     -112.8997802734
1488916726.7019839287,1488916726.7044010162,        0.6630859375,        0.6469726562,       -0.3144531250,       28.5186767578,       -5.0506591797,     -112.8997802734
1488916726.7046890259,1488916726.7070980072,        0.6630859375,        0.6469726562,       -0.4394531250,       32.3028564453,      -12.1917724609,     -102.5085449219
1488916726.7073891163,1488916726.7098009586,        0.6630859375,        0.9370117188,       -0.3955078125,       32.3028564453,      -12.1917724609,     -102.5085449219
1488916726.7100911140,1488916726.7124989033,        0.6630859375,        0.9370117188,       -0.3955078125,       30.6701660156,      -10.9863281250,      -89.7674560547
1488916726.7127909660,1488916726.7152459621,        0.6630859375,        0.9370117188,       -0.3955078125,       30.6701660156,      -10.9863281250,      -89.7674560547
1488916726.7155389786,1488916726.7179551125,        0.6630859375,        0.7846679688,       -0.3374023438,       28.3355712891,       -2.6702880859,      -74.9206542969
1488916726.7182428837,1488916726.7206521034,        0.5112304688,        0.7846679688,       -0.3374023438,       28.3355712891,       -2.6702880859,      -74.9206542969
1488916726.7209410667,1488916726.7233519554,        0.5112304688,        0.7846679688,       -0.3374023438,       23.8800048828,        6.3934326172,      -59.5855712891
1488916726.7236909866,1488916726.7261099815,        0.5112304688,        0.7846679688,       -0.3374023438,       23.8800048828,        6.3934326172,      -59.5855712891
1488916726.7263989449,1488916726.7288100719,        0.1582031250,        0.3256835938,       -0.2456054688,       13.4735107422,       24.3988037109,      -32.7606201172
1488916726.7291009426,1488916726.7315189838,        0.1582031250,        0.3256835938,       -0.2456054688,       13.4735107422,       24.3988037109,      -32.7606201172
1488916726.7319250107,1488916726.7343530655,        0.1582031250,        0.3256835938,       -0.2456054688,       25.4669189453,       10.0402832031,       12.2375488281
1488916726.7346439362,1488916726.7370510101,        0.1582031250,        0.3256835938,       -0.2456054688,       25.4669189453,       10.0402832031,       12.2375488281
1488916726.7373418808,1488916726.7397520542,        0.7636718750,        0.4155273438,       -0.2299804688,       12.5274658203,       -7.4920654297,       51.9714355469
1488916726.7400400639,1488916726.7424480915,        0.7636718750,        0.4155273438,       -0.2299804688,       12.5274658203,       -7.4920654297,       51.9714355469
1488916726.7427361012,1488916726.7451601028,        0.7636718750,        0.4155273438,       -0.2299804688,      -24.1851806641,       23.1475830078,       79.3304443359
1488916726.7454509735,1488916726.7478671074,        0.7636718750,        0.4155273438,       -0.0795898438,      -24.1851806641,       23.1475830078,       79.3304443359
1488916726.7481589317,1488916726.7505719662,        0.5468750000,       -0.1220703125,       -0.0795898438,      -80.1086425781,       43.0908203125,       89.1876220703
1488916726.7508649826,1488916726.7532761097,        0.5468750000,       -0.1220703125,       -0.0795898438,      -80.1086425781,       43.0908203125,       89.1876220703
1488916726.7535779476,1488916726.7559900284,        0.5468750000,       -0.1220703125,       -0.0795898438,     -114.3646240234,       25.0396728516,       66.3604736328
1488916726.7562830448,1488916726.7587029934,        0.5473632812,       -0.6782226562,       -0.0693359375,     -114.3646240234,       25.0396728516,       66.3604736328
1488916726.7589950562,1488916726.7614099979,        0.5473632812,       -0.6782226562,       -0.0693359375,      -99.8535156250,       17.1661376953,       30.3344726562
1488916726.7617049217,1488916726.7641410828,        0.5473632812,       -0.6782226562,       -0.0693359375,      -99.8535156250,       17.1661376953,       30.3344726562
1488916726.7644319534,1488916726.7668430805,        0.5473632812,       -0.6782226562,       -0.0693359375,      -62.1032714844,       27.1301269531,       14.8010253906
1488916726.7671349049,1488916726.7695550919,        0.4682617188,       -1.0415039062,       -0.1196289062,      -62.1032714844,       27.1301269531,       14.8010253906
1488916726.7698469162,1488916726.7722589970,        0.4682617188,       -1.0415039062,       -0.1196289062,      -25.1159667969,       32.5012207031,       26.4129638672
1488916726.7725501060,1488916726.7749760151,        0.4682617188,       -1.0415039062,       -0.1196289062,      -25.1159667969,       32.5012207031,       26.4129638672
1488916726.7752699852,1488916726.7776820660,        0.4682617188,       -1.0415039062,       -0.1196289062,       10.8032226562,       34.7900390625,       44.9218750000
1488916726.7779738903,1488916726.7803890705,        0.4799804688,       -0.6630859375,       -0.1879882812,       10.8032226562,       34.7900390625,       44.9218750000
1488916726.7806799412,1488916726.7830920219,        0.4799804688,       -0.6630859375,       -0.1879882812,       34.2102050781,       57.7392578125,       48.8128662109
1488916726.7833840847,1488916726.7857999802,        0.4799804688,       -0.6630859375,       -0.1879882812,       34.2102050781,       57.7392578125,       48.8128662109
1488916726.7860910892,1488916726.7885620594,        0.4799804688,       -0.0893554688,       -0.1323242188,       37.8112792969,       78.2012939453,       45.4864501953
1488916726.7888560295,1488916726.7912750244,        0.3461914062,       -0.0893554688,       -0.1323242188,       37.8112792969,       78.2012939453,       45.4864501953
1488916726.7915680408,1488916726.7939839363,        0.3461914062,       -0.0893554688,       -0.1323242188,       24.2156982422,       66.8334960938,       56.7474365234
1488916726.7942759991,1488916726.7966868877,        0.3461914062,       -0.0893554688,       -0.1323242188,       24.2156982422,       66.8334960938,       56.7474365234
1488916726.7970850468,1488916726.7995040417,       -0.0600585938,        0.0766601562,       -0.0512695312,        9.6893310547,       43.3502197266,       73.0895996094
1488916726.7997939587,1488916726.8022069931,       -0.0600585938,        0.0766601562,       -0.0512695312,        9.6893310547,       43.3502197266,       73.0895996094
1488916726.8024950027,1488916726.8048479557,       -0.0600585938,        0.0766601562,       -0.0512695312,        0.4119873047,       36.1480712891,       79.7119140625
1488916726.8051300049,1488916726.8074200153,       -0.0600585938,        0.0766601562,       -0.0512695312,        0.4119873047,       36.1480712891,       79.7119140625
1488916726.8077011108,1488916726.8099930286,        0.4794921875,        0.3989257812,        0.0039062500,      -12.6037597656,       52.9479980469,       64.3157958984
1488916726.8102769852,1488916726.8125689030,        0.4794921875,        0.3989257812,        0.0039062500,      -12.6037597656,       52.9479980469,       64.3157958984
1488916726.8128519058,1488916726.8151910305,        0.4794921875,        0.3989257812,        0.0039062500,      -40.6188964844,       62.6983642578,       60.6384277344
1488916726.8154759407,1488916726.8179340363,        0.4794921875,        0.3989257812,        0.0039062500,      -40.6188964844,       62.6983642578,       60.6384277344
1488916726.8182189465,1488916726.8205060959,        0.2153320312,        0.0903320312,       -0.0991210938,      -74.9359130859,       54.1992187500,       78.9337158203
1488916726.8207910061,1488916726.8230800629,        0.2153320312,        0.0903320312,       -0.0991210938,      -74.9359130859,       54.1992187500,       78.9337158203
1488916726.8233659267,1488916726.8257811069,        0.2153320312,        0.0903320312,       -0.0991210938,      -99.3194580078,       46.6003417969,      104.4311523438
1488916726.8260710239,1488916726.8283500671,        0.2153320312,        0.0903320312,       -0.1313476562,      -99.3194580078,       46.6003417969,      104.4311523438
1488916726.8286390305,1488916726.8310940266,        0.2041015625,       -0.2050781250,       -0.1313476562,     -111.7248535156,       46.8902587891,      125.9765625000
1488916726.8313810825,1488916726.8345549107,        0.2041015625,       -0.2050781250,       -0.1313476562,     -111.7248535156,       46.8902587891,      125.9765625000
1488916726.8348441124,1488916726.8371291161,        0.2041015625,       -0.2050781250,       -0.1313476562,     -116.1193847656,       50.1861572266,      142.7001953125
1488916726.8374159336,1488916726.8397359848,        0.3681640625,       -0.3051757812,       -0.0058593750,     -116.1193847656,       50.1861572266,      142.7001953125
1488916726.8400230408,1488916726.8423080444,        0.3681640625,       -0.3051757812,       -0.0058593750,     -112.0605468750,       54.8706054688,      154.4036865234
1488916726.8425939083,1488916726.8448889256,        0.3681640625,       -0.3051757812,       -0.0058593750,     -112.0605468750,       54.8706054688,      154.4036865234
1488916726.8451759815,1488916726.8474690914,        0.3681640625,       -0.3051757812,       -0.0058593750,     -103.7902832031,       56.9915771484,      164.6270751953
1488916726.8477549553,1488916726.8500390053,        0.3588867188,       -0.1884765625,        0.0644531250,     -103.7902832031,       56.9915771484,      164.6270751953
1488916726.8503251076,1488916726.8526139259,        0.3588867188,       -0.1884765625,        0.0644531250,      -96.8017578125,       56.9763183594,      172.9583740234
1488916726.8528978825,1488916726.8552141190,        0.3588867188,       -0.1884765625,        0.0644531250,      -96.8017578125,       56.9763183594,      172.9583740234
1488916726.8554980755,1488916726.8577830791,        0.3588867188,       -0.1884765625,        0.0644531250,      -92.8955078125,       55.7708740234,      183.5174560547
1488916726.8580679893,1488916726.8603589535,        0.4658203125,       -0.0322265625,        0.0771484375,      -91.8731689453,       55.7708740234,      183.5174560547
1488916726.8607449532,1488916726.8630359173,        0.4658203125,       -0.0322265625,        0.0771484375,      -91.8731689453,       58.4106445312,      191.0552978516
1488916726.8633220196,1488916726.8656458855,        0.4658203125,       -0.0322265625,        0.0771484375,      -90.8355712891,       58.4106445312,      191.0552978516
1488916726.8659338951,1488916726.8682229519,        0.4658203125,       -0.0322265625,        0.0771484375,      -90.8355712891,       58.4106445312,      199.6307373047
1488916726.8685081005,1488916726.8707919121,        0.5537109375,        0.0307617188,        0.0629882812,      -91.3085937500,       57.8002929688,      199.6307373047
1488916726.8710770607,1488916726.8733708858,        0.5537109375,        0.0307617188,        0.0629882812,      -91.3085937500,       57.8002929688,      211.3494873047
1488916726.8737959862,1488916726.8760828972,        0.5537109375,        0.0307617188,        0.0629882812,      -91.1254882812,       49.6215820312,      214.5080566406
1488916726.8763689995,1488916726.8786540031,        0.5537109375,        0.0307617188,        0.0629882812,      -91.1254882812,       49.6215820312,      214.5080566406
1488916726.8789379597,1488916726.8812370300,        0.3393554688,       -0.0966796875,        0.0107421875,      -78.3081054688,       43.4112548828,      224.6856689453
1488916726.8815200329,1488916726.8839800358,        0.3393554688,       -0.0966796875,        0.0107421875,      -78.3081054688,       43.4112548828,      224.6856689453
1488916726.8842649460,1488916726.8865489960,        0.3393554688,       -0.0966796875,        0.0107421875,      -54.3823242188,       39.3676757812,      232.3150634766
1488916726.8868339062,1488916726.8891270161,        0.3393554688,       -0.0966796875,       -0.0371093750,      -54.3823242188,       39.3676757812,      232.3150634766
1488916726.8894140720,1488916726.8917000294,        0.5610351562,       -0.0380859375,       -0.0371093750,      -30.4107666016,       35.7666015625,      238.9221191406
1488916726.8919870853,1488916726.8943560123,        0.5610351562,       -0.0380859375,       -0.0371093750,      -30.4107666016,       35.7666015625,      238.9221191406
1488916726.8946430683,1488916726.8969259262,        0.5610351562,       -0.0380859375,       -0.0371093750,       -8.0413818359,       32.8216552734,      245.4833984375
1488916726.8972089291,1488916726.8994939327,        0.5610351562,        0.0117187500,       -0.0634765625,       -8.0413818359,       32.8216552734,      245.4833984375
1488916726.8997769356,1488916726.9020690918,        0.6059570312,        0.0117187500,       -0.0634765625,       14.3737792969,       30.2886962891,      250.5035400391
1488916726.9023540020,1488916726.9046549797,        0.6059570312,        0.0117187500,       -0.0634765625,       14.3737792969,       30.2886962891,      250.5035400391
1488916726.9049370289,1488916726.9072248936,        0.6059570312,        0.0117187500,       -0.0634765625,       37.4908447266,       28.9916992188,      254.3182373047
1488916726.9075078964,1488916726.9098041058,        0.7309570312,        0.0444335938,       -0.1030273438,       37.4908447266,       28.9916992188,      254.3182373047
1488916726.9100871086,1488916726.9123790264,        0.6914062500,        0.0444335938,       -0.1030273438,       60.3942871094,       27.6336669922,      257.1868896484
1488916726.9126639366,1488916726.9150850773,        0.6914062500,        0.0444335938,       -0.1030273438,       60.3942871094,       27.6336669922,      257.1868896484
1488916726.9153780937,1488916726.9178860188,        0.6914062500,        0.0444335938,       -0.1030273438,       82.3211669922,       26.1383056641,      259.3078613281
1488916726.9181749821,1488916726.9204630852,        0.7651367188,        0.0761718750,       -0.1445312500,       82.3211669922,       26.1383056641,      259.3078613281
1488916726.9207510948,1488916726.9230439663,        0.7651367188,        0.0761718750,       -0.1445312500,      101.8524169922,       25.4821777344,      261.7187500000
1488916726.9233300686,1488916726.9257810116,        0.7651367188,        0.0761718750,       -0.1445312500,      101.8524169922,       25.4821777344,      261.7187500000
1488916726.9261789322,1488916726.9285500050,        0.7651367188,        0.0761718750,       -0.1445312500,      117.4774169922,       25.4364013672,      264.4195556641
1488916726.9297780991,1488916726.9320659637,        0.8281250000,        0.1147460938,       -0.1743164062,      118.4692382812,       25.4364013672,      264.4195556641
1488916726.9323539734,1488916726.9346749783,        0.8281250000,        0.1147460938,       -0.1743164062,      132.0343017578,       25.2685546875,      266.6778564453
1488916726.9349589348,1488916726.9372520447,        0.8281250000,        0.1147460938,       -0.1743164062,      132.0343017578,       25.2685546875,      266.6778564453
1488916726.9375360012,1488916726.9398169518,        0.8281250000,        0.1503906250,       -0.1923828125,      142.7612304688,       25.1464843750,      268.5394287109
1488916726.9400999546,1488916726.9423890114,        0.8808593750,        0.1503906250,       -0.1923828125,      142.7612304688,       25.1464843750,      268.5394287109
1488916726.9426720142,1488916726.9450070858,        0.8808593750,        0.1503906250,       -0.1923828125,      149.7344970703,       24.7497558594,      271.2097167969
1488916726.9452910423,1488916726.9475769997,        0.8808593750,        0.1503906250,       -0.1923828125,      149.7344970703,       24.7497558594,      271.2097167969
1488916726.9478600025,1488916726.9501481056,        0.8808593750,        0.2148437500,       -0.2270507812,      149.7344970703,       24.5361328125,      273.7579345703
1488916726.9504320621,1488916726.9527139664,        0.9248046875,        0.2148437500,       -0.2270507812,      151.8554687500,       24.5361328125,      273.7579345703
1488916726.9529991150,1488916726.9552860260,        0.9248046875,        0.2148437500,       -0.2270507812,      151.8554687500,       24.5361328125,      275.5584716797
1488916726.9555709362,1488916726.9578619003,        0.9248046875,        0.2148437500,       -0.2270507812,      150.4364013672,       23.9257812500,      275.5584716797
1488916726.9581449032,1488916726.9604310989,        0.9829101562,        0.2968750000,       -0.2626953125,      150.4364013672,       23.9257812500,      275.5584716797
1488916726.9607160091,1488916726.9630050659,        0.9829101562,        0.2968750000,       -0.2626953125,      146.6979980469,       23.5443115234,      275.9704589844
1488916726.9632890224,1488916726.9656178951,        0.9829101562,        0.2968750000,       -0.2626953125,      146.6979980469,       23.5443115234,      275.9704589844
1488916726.9659020901,1488916726.9681870937,        0.9829101562,        0.2968750000,       -0.2626953125,      139.0075683594,       23.1933593750,      274.7192382812
1488916726.9684710503,1488916726.9707601070,        1.0434570312,        0.3911132812,       -0.2944335938,      139.0075683594,       23.1933593750,      274.7192382812
1488916726.9710431099,1488916726.9733281136,        1.0434570312,        0.3911132812,       -0.2944335938,      128.4179687500,       23.4985351562,      273.4069824219
1488916726.9737889767,1488916726.9760808945,        1.0434570312,        0.3911132812,       -0.2944335938,      128.4179687500,       23.4985351562,      273.4069824219
1488916726.9763638973,1488916726.9786629677,        1.0434570312,        0.3911132812,       -0.2944335938,      114.2730712891,       23.9562988281,      270.9808349609
1488916726.9789481163,1488916726.9812400341,        1.1108398438,        0.4360351562,       -0.3041992188,      114.2730712891,       23.9562988281,      270.9808349609
1488916726.9815239906,1488916726.9839758873,        1.1108398438,        0.4360351562,       -0.3041992188,       97.1069335938,       24.8413085938,      268.1884765625
1488916726.9842669964,1488916726.9866480827,        1.1108398438,        0.4360351562,       -0.3041992188,       97.1069335938,       24.8413085938,      268.1884765625
1488916726.9869370461,1488916726.9894070625,        1.1108398438,        0.4360351562,       -0.3041992188,       79.8339843750,       25.7873535156,      265.0604248047
1488916726.9898099899,1488916726.9922330379,        1.1689453125,        0.4628906250,       -0.3295898438,       79.8339843750,       25.7873535156,      265.0604248047
1488916726.9925279617,1488916726.9949560165,        1.1689453125,        0.4628906250,       -0.3295898438,       62.6678466797,       27.4658203125,      260.5895996094
1488916726.9952459335,1488916726.9976599216,        1.1689453125,        0.4628906250,       -0.3295898438,       62.6678466797,       27.4658203125,      260.5895996094
1488916726.9979510307,1488916727.0003690720,        1.1689453125,        0.4531250000,       -0.3251953125,       45.5474853516,       28.6865234375,      254.3792724609
1488916727.0006599426,1488916727.0030729771,        1.1884765625,        0.4531250000,       -0.3251953125,       45.5474853516,       28.6865234375,      254.3792724609
1488916727.0033619404,1488916727.0056729317,        1.1884765625,        0.4531250000,       -0.3251953125,       28.1677246094,       29.9072265625,      247.6959228516
1488916727.0059559345,1488916727.0082430840,        1.1884765625,        0.4531250000,       -0.3251953125,       28.1677246094,       29.9072265625,      247.6959228516
1488916727.0085248947,1488916727.0108098984,        1.1855468750,        0.4614257812,       -0.3242187500,       11.5356445312,       30.4260253906,      239.9749755859
1488916727.0110940933,1488916727.0133841038,        1.1855468750,        0.4614257812,       -0.3242187500,       11.5356445312,       30.4260253906,      239.9749755859
1488916727.0137360096,1488916727.0161480904,        1.1855468750,        0.4614257812,       -0.3242187500,       -3.6773681641,       30.5938720703,      231.9488525391
1488916727.0164361000,1488916727.0188460350,        1.1855468750,        0.4614257812,       -0.3242187500,       -3.6773681641,       30.5938720703,      231.9488525391
1488916727.0191330910,1488916727.0215499401,        1.1938476562,        0.4858398438,       -0.3286132812,      -17.8070068359,       30.0292968750,      224.0905761719
1488916727.0218400955,1488916727.0242609978,        1.1938476562,        0.4858398438,       -0.3286132812,      -17.8070068359,       30.0292968750,      224.0905761719
1488916727.0245521069,1488916727.0269680023,        1.1938476562,        0.4858398438,       -0.3286132812,      -32.0587158203,       28.9611816406,      216.6442871094
1488916727.0272600651,1488916727.0296700001,        1.1938476562,        0.4858398438,       -0.3286132812,      -32.0587158203,       28.9611816406,      216.6442871094
1488916727.0299589634,1488916727.0323710442,        1.1757812500,        0.5439453125,       -0.3466796875,      -45.3948974609,       27.3895263672,      209.1979980469
1488916727.0326631069,1488916727.0350940228,        1.1757812500,        0.5439453125,       -0.3466796875,      -45.3948974609,       27.3895263672,      209.1979980469
1488916727.0353860855,1488916727.0377960205,        1.1757812500,        0.5439453125,       -0.3466796875,      -58.3801269531,       25.0244140625,      201.5228271484
1488916727.0380859375,1488916727.0405440331,        1.1757812500,        0.5439453125,       -0.3198242188,      -58.3801269531,       25.0244140625,      201.5228271484
1488916727.0408360958,1488916727.0432469845,        1.1059570312,        0.5839843750,       -0.3198242188,      -70.3277587891,       21.7895507812,      194.1070556641
1488916727.0435490608,1488916727.0458409786,        1.1059570312,        0.5839843750,       -0.3198242188,      -70.3277587891,       21.7895507812,      194.1070556641
1488916727.0461249352,1488916727.0484170914,        1.1059570312,        0.5839843750,       -0.3198242188,      -80.8410644531,       18.1579589844,      186.6302490234
1488916727.0487029552,1488916727.0509860516,        1.1059570312,        0.5864257812,       -0.2578125000,      -80.8410644531,       18.1579589844,      186.6302490234
1488916727.0512719154,1488916727.0535700321,        1.0249023438,        0.5864257812,       -0.2578125000,      -80.8410644531,       13.7939453125,      179.2449951172
1488916727.0539720058,1488916727.0563929081,        1.0249023438,        0.5864257812,       -0.2578125000,      -88.2568359375,       13.7939453125,      179.2449951172
1488916727.0566849709,1488916727.0590989590,        1.0249023438,        0.5864257812,       -0.2578125000,      -88.2568359375,        9.3536376953,      169.0063476562
1488916727.0593891144,1488916727.0617990494,        0.9223632812,        0.5229492188,       -0.1669921875,      -93.3227539062,        9.3536376953,      169.0063476562
1488916727.0620880127,1488916727.0645129681,        0.9223632812,        0.5229492188,       -0.1669921875,      -93.3227539062,        6.0882568359,      158.5388183594
1488916727.0648028851,1488916727.0672099590,        0.9223632812,        0.5229492188,       -0.1669921875,      -94.2840576172,        6.0882568359,      158.5388183594
1488916727.0675010681,1488916727.0699110031,        0.9223632812,        0.5229492188,       -0.1669921875,      -94.2840576172,        3.2806396484,      148.2696533203
1488916727.0701999664,1488916727.0726110935,        0.9213867188,        0.4858398438,       -0.0942382812,      -90.7135009766,        3.2806396484,      148.2696533203
1488916727.0729010105,1488916727.0752410889,        0.9213867188,        0.4858398438,       -0.0942382812,      -90.7135009766,        3.2806396484,      137.5122070312
1488916727.0755228996,1488916727.0778150558,        0.9213867188,        0.4858398438,       -0.0942382812,      -84.2437744141,        2.2125244141,      137.5122070312
1488916727.0780980587,1488916727.0803918839,        0.9213867188,        0.4858398438,       -0.0942382812,      -84.2437744141,        2.2125244141,      126.9378662109
1488916727.0806729794,1488916727.0829620361,        0.8637695312,        0.4780273438,       -0.0288085938,      -75.2105712891,        1.0986328125,      126.9378662109
1488916727.0832419395,1488916727.0856840611,        0.8637695312,        0.4780273438,       -0.0288085938,      -75.2105712891,        1.0986328125,      119.1253662109
1488916727.0859689713,1488916727.0882570744,        0.8637695312,        0.4780273438,       -0.0288085938,      -64.3768310547,        1.2969970703,      118.7286376953
1488916727.0885388851,1488916727.0909140110,        0.8637695312,        0.6030273438,        0.0200195312,      -64.3768310547,        1.2969970703,      118.7286376953
1488916727.0911970139,1488916727.0936009884,        0.8291015625,        0.5693359375,        0.0200195312,      -53.8482666016,        3.5705566406,      111.4807128906
1488916727.0938839912,1488916727.0961730480,        0.8291015625,        0.5693359375,        0.0200195312,      -53.8482666016,        3.5705566406,      111.4807128906
1488916727.0964539051,1488916727.0987510681,        0.8291015625,        0.5693359375,        0.0200195312,      -45.4559326172,        6.3323974609,      103.7597656250
1488916727.0990331173,1488916727.1013228893,        0.8291015625,        0.6464843750,       -0.0034179688,      -45.4559326172,        6.3323974609,      103.7597656250
1488916727.1016039848,1488916727.1039330959,        0.7421875000,        0.6464843750,       -0.0034179688,      -37.7807617188,        7.4615478516,       93.7500000000
1488916727.1042230129,1488916727.1066370010,        0.7421875000,        0.6464843750,       -0.0034179688,      -37.7807617188,        7.4615478516,       93.7500000000
1488916727.1069290638,1488916727.1093440056,        0.7421875000,        0.6464843750,       -0.0034179688,      -29.8461914062,        7.2937011719,       82.3822021484
1488916727.1096351147,1488916727.1120491028,        0.6821289062,        0.5932617188,       -0.0625000000,      -29.8461914062,        7.2937011719,       82.3822021484
1488916727.1123380661,1488916727.1147620678,        0.6821289062,        0.5932617188,       -0.0625000000,      -21.8200683594,        6.5307617188,       68.8781738281
1488916727.1150519848,1488916727.1174631119,        0.6821289062,        0.5932617188,       -0.0625000000,      -21.8200683594,        6.5307617188,       68.8781738281
1488916727.1178629398,1488916727.1203548908,        0.6821289062,        0.5932617188,       -0.0625000000,      -14.3127441406,        4.9438476562,       54.8553466797
1488916727.1206400394,1488916727.1229290962,        0.6420898438,        0.5043945312,       -0.0830078125,      -14.3127441406,        4.9438476562,       54.8553466797
1488916727.1232120991,1488916727.1257669926,        0.6420898438,        0.5043945312,       -0.0830078125,       -7.2937011719,        3.3264160156,       40.0085449219
1488916727.1260509491,1488916727.1284329891,        0.6420898438,        0.5043945312,       -0.0830078125,       -7.2937011719,        3.3264160156,       40.0085449219
1488916727.1288199425,1488916727.1312000751,        0.6420898438,        0.5043945312,       -0.1000976562,       -1.2512207031,        2.0599365234,       26.8859863281
1488916727.1314840317,1488916727.1345129013,        0.6118164062,        0.4370117188,       -0.1000976562,       -1.2512207031,        2.0599365234,       19.0734863281
1488916727.1347999573,1488916727.1372179985,        0.6118164062,        0.4370117188,       -0.1000976562,        5.0506591797,        0.4119873047,       15.8538818359
1488916727.1375029087,1488916727.1399118900,        0.6118164062,        0.4370117188,       -0.1000976562,        5.0506591797,        0.4119873047,       15.8538818359
1488916727.1401989460,1488916727.1426138878,        0.6040039062,        0.3872070312,       -0.1210937500,       10.0708007812,       -0.8544921875,        4.5471191406
1488916727.1429018974,1488916727.1452360153,        0.6040039062,        0.3872070312,       -0.1210937500,       10.0708007812,       -0.8544921875,        4.5471191406
1488916727.1455149651,1488916727.1478099823,        0.6040039062,        0.3872070312,       -0.1210937500,       13.9007568359,       -1.6937255859,       -4.2877197266
1488916727.1480889320,1488916727.1503789425,        0.6040039062,        0.3872070312,       -0.1210937500,       13.9007568359,       -1.6937255859,       -4.2877197266
1488916727.1506578922,1488916727.1529450417,        0.5854492188,        0.3276367188,       -0.1074218750,       17.0593261719,       -2.6855468750,      -11.1236572266
1488916727.1532270908,1488916727.1556820869,        0.5854492188,        0.3276367188,       -0.1074218750,       17.0593261719,       -2.6855468750,      -11.1236572266
1488916727.1559710503,1488916727.1583828926,        0.5854492188,        0.3276367188,       -0.1074218750,       19.2718505859,       -2.7160644531,      -15.8691406250
1488916727.1586749554,1488916727.1610910892,        0.5854492188,        0.3276367188,       -0.1074218750,       19.2718505859,       -2.7160644531,      -15.8691406250
1488916727.1613800526,1488916727.1637840271,        0.5742187500,        0.2485351562,       -0.0927734375,       22.1862792969,       -2.8686523438,      -19.0582275391
1488916727.1640670300,1488916727.1663529873,        0.5742187500,        0.2485351562,       -0.0927734375,       22.1862792969,       -2.8686523438,      -19.0582275391
1488916727.1666359901,1488916727.1689310074,        0.5742187500,        0.2485351562,       -0.0927734375,       24.6276855469,       -3.0822753906,      -21.5759277344
1488916727.1692130566,1488916727.1714990139,        0.5742187500,        0.2485351562,       -0.0913085938,       24.6276855469,       -3.0822753906,      -21.5759277344
1488916727.1717801094,1488916727.1740798950,        0.5610351562,        0.1923828125,       -0.0913085938,       27.6947021484,       -3.3569335938,      -23.9410400391
1488916727.1743619442,1488916727.1766541004,        0.5610351562,        0.1923828125,       -0.0913085938,       27.6947021484,       -3.3569335938,      -23.9410400391
1488916727.1769359112,1488916727.1792259216,        0.5610351562,        0.1923828125,       -0.0913085938,       30.2734375000,       -3.7384033203,      -25.5279541016
1488916727.1795070171,1488916727.1817989349,        0.5610351562,        0.1923828125,       -0.0966796875,       30.2734375000,       -3.7384033203,      -25.5279541016
1488916727.1821908951,1488916727.1845860481,        0.5615234375,        0.1899414062,       -0.0966796875,       31.9671630859,       -4.7454833984,      -26.9012451172
1488916727.1848690510,1488916727.1871631145,        0.5615234375,        0.1899414062,       -0.0966796875,       31.9671630859,       -4.7454833984,      -26.9012451172
1488916727.1874439716,1488916727.1897759438,        0.5615234375,        0.1899414062,       -0.0966796875,       31.9671630859,       -5.6915283203,      -27.9235839844
1488916727.1900579929,1488916727.1923480034,        0.5615234375,        0.1850585938,       -0.1103515625,       33.2336425781,       -5.6915283203,      -27.9235839844
1488916727.1926290989,1488916727.1949479580,        0.5659179688,        0.1850585938,       -0.1103515625,       33.2336425781,       -5.6915283203,      -28.9764404297
1488916727.1952300072,1488916727.1975240707,        0.5659179688,        0.1850585938,       -0.1103515625,       34.2712402344,       -7.3089599609,      -28.9764404297
1488916727.1978058815,1488916727.2000980377,        0.5659179688,        0.1850585938,       -0.1103515625,       34.2712402344,       -7.3089599609,      -30.9143066406
1488916727.2003800869,1488916727.2026739120,        0.5805664062,        0.1997070312,       -0.1166992188,       35.2478027344,       -8.2702636719,      -30.9143066406
1488916727.2029550076,1488916727.2053649426,        0.5805664062,        0.1997070312,       -0.1166992188,       35.2478027344,       -8.2702636719,      -34.8205566406
1488916727.2056570053,1488916727.2080669403,        0.5805664062,        0.1997070312,       -0.1166992188,       35.8581542969,       -8.8043212891,      -33.0810546875
1488916727.2083570957,1488916727.2107789516,        0.5805664062,        0.1997070312,       -0.1166992188,       35.8581542969,       -8.8043212891,      -36.9873046875
1488916727.2110679150,1488916727.2134950161,        0.6079101562,        0.2001953125,       -0.1186523438,       36.9415283203,       -9.7351074219,      -36.1785888672
1488916727.2137849331,1488916727.2161979675,        0.6079101562,        0.2001953125,       -0.1186523438,       36.9415283203,       -9.7351074219,      -40.0848388672
1488916727.2164890766,1488916727.2189090252,        0.6079101562,        0.2001953125,       -0.1186523438,       37.9943847656,      -10.7727050781,      -39.1693115234
1488916727.2192020416,1488916727.2216160297,        0.6079101562,        0.2001953125,       -0.1186523438,       37.9943847656,      -10.7727050781,      -39.1693115234
1488916727.2219069004,1488916727.2242939472,        0.6157226562,        0.2055664062,       -0.1171875000,       39.9780273438,      -11.2609863281,      -42.6635742188
1488916727.2245790958,1488916727.2268741131,        0.6157226562,        0.2055664062,       -0.1171875000,       39.9780273438,      -11.2609863281,      -42.6635742188
1488916727.2271580696,1488916727.2294449806,        0.6157226562,        0.2055664062,       -0.1171875000,       41.6259765625,      -10.4522705078,      -44.9829101562
1488916727.2297298908,1488916727.2320239544,        0.6157226562,        0.2055664062,       -0.2495117188,       41.6259765625,      -10.4522705078,      -44.9829101562
1488916727.2323069572,1488916727.2347168922,        0.8432617188,       -0.1948242188,       -0.2495117188,       39.7949218750,       -2.6702880859,      -23.2543945312
1488916727.2350080013,1488916727.2374229431,        0.8432617188,       -0.1948242188,       -0.2495117188,       39.7949218750,       -2.6702880859,      -23.2543945312
1488916727.2377119064,1488916727.2401320934,        0.8432617188,       -0.1948242188,       -0.2495117188,       21.0418701172,       -3.0517578125,        4.8217773438
1488916727.2404160500,1488916727.2428300381,        0.5932617188,       -1.0288085938,       -0.1171875000,       21.0418701172,       -3.0517578125,        4.8217773438
1488916727.2431159019,1488916727.2454290390,        0.6181640625,       -1.0288085938,       -0.1171875000,       -6.8054199219,       -5.3863525391,        8.3160400391
1488916727.2458100319,1488916727.2481009960,        0.6181640625,       -1.0288085938,       -0.1171875000,       -6.8054199219,       -5.3863525391,        8.3160400391
1488916727.2483739853,1488916727.2507009506,        0.6181640625,       -1.0288085938,       -0.1171875000,      -16.2811279297,       -5.6915283203,       -9.5672607422
1488916727.2509820461,1488916727.2532739639,        0.6748046875,       -0.6777343750,        0.0776367188,      -16.2811279297,       -5.6915283203,       -9.5672607422
1488916727.2535610199,1488916727.2559740543,        0.6748046875,       -0.6777343750,        0.0776367188,        0.4425048828,       -6.0424804688,      -36.0565185547
1488916727.2562611103,1488916727.2586710453,        0.6748046875,       -0.6777343750,        0.0776367188,        0.4425048828,       -6.0424804688,      -36.0565185547
1488916727.2589559555,1488916727.2613689899,        0.6748046875,       -0.6777343750,        0.0776367188,       20.9960937500,       -5.7373046875,      -50.6591796875
1488916727.2616579533,1488916727.2640819550,        0.6972656250,        0.1298828125,        0.0380859375,       20.9960937500,       -5.7373046875,      -50.6591796875
1488916727.2643690109,1488916727.2667820454,        0.6972656250,        0.1298828125,        0.0380859375,       28.1066894531,       -8.2550048828,      -51.1474609375
1488916727.2670729160,1488916727.2694890499,        0.6972656250,        0.1298828125,        0.0380859375,       28.1066894531,       -8.2550048828,      -51.1474609375
1488916727.2697780132,1488916727.2721879482,        0.6972656250,        0.1298828125,       -0.0869140625,       16.4642333984,       -9.9639892578,      -46.9665527344
1488916727.2724750042,1488916727.2749021053,        0.7387695312,        0.0859375000,       -0.0439453125,       16.4642333984,       -9.9639892578,      -46.9665527344
1488916727.2751910686,1488916727.2776069641,        0.7387695312,        0.0859375000,       -0.0439453125,        1.5258789062,      -10.3454589844,      -44.4488525391
1488916727.2778949738,1488916727.2803039551,        0.7387695312,        0.0859375000,       -0.0439453125,        1.5258789062,      -10.3454589844,      -44.4488525391
1488916727.2805929184,1488916727.2830080986,        0.7387695312,       -0.1855468750,       -0.0708007812,       -5.2490234375,      -11.5203857422,      -45.9136962891
1488916727.2832980156,1488916727.2856009007,        0.7187500000,       -0.1855468750,       -0.0708007812,       -5.2490234375,      -11.5203857422,      -45.9136962891
1488916727.2858839035,1488916727.2881689072,        0.7187500000,       -0.1855468750,       -0.0708007812,       -5.8288574219,      -11.8255615234,      -49.7589111328
1488916727.2884500027,1488916727.2907369137,        0.7187500000,       -0.1855468750,       -0.0708007812,       -5.8288574219,      -11.8255615234,      -49.7589111328
1488916727.2910189629,1488916727.2933049202,        0.7094726562,       -0.2436523438,       -0.0117187500,       -1.9226074219,      -12.8173828125,      -53.8330078125
1488916727.2936210632,1488916727.2959260941,        0.7094726562,       -0.2436523438,       -0.0117187500,       -3.2501220703,      -12.8173828125,      -53.8330078125
1488916727.2962079048,1488916727.2984991074,        0.7094726562,       -0.2436523438,       -0.0117187500,       -3.2501220703,      -15.8691406250,      -58.5479736328
1488916727.2987790108,1488916727.3010671139,        0.7094726562,       -0.2436523438,       -0.0117187500,        1.0681152344,      -15.8691406250,      -58.5479736328
1488916727.3013479710,1488916727.3037939072,        0.6870117188,       -0.1494140625,       -0.0009765625,        1.0681152344,      -15.8691406250,      -62.5152587891
1488916727.3040850163,1488916727.3064999580,        0.6870117188,       -0.1494140625,       -0.0009765625,        6.1950683594,      -18.8903808594,      -62.5152587891
1488916727.3067879677,1488916727.3091979027,        0.6870117188,       -0.1494140625,       -0.0009765625,        6.1950683594,      -22.7966308594,      -64.3005371094
1488916727.3095960617,1488916727.3120100498,        0.6870117188,       -0.1494140625,       -0.0009765625,       11.7034912109,      -21.9726562500,      -64.3005371094
1488916727.3123021126,1488916727.3147199154,        0.7075195312,       -0.0839843750,       -0.0322265625,       11.7034912109,      -25.8789062500,      -63.8122558594
1488916727.3150129318,1488916727.3174309731,        0.7075195312,       -0.0839843750,       -0.0322265625,       16.8609619141,      -25.6347656250,      -63.8122558594
1488916727.3177230358,1488916727.3201329708,        0.7075195312,       -0.0839843750,       -0.0322265625,       16.8609619141,      -29.5410156250,      -64.5599365234
1488916727.3204269409,1488916727.3228399754,        0.7075195312,       -0.0839843750,       -0.0083007812,       20.0805664062,      -28.8391113281,      -64.5599365234
1488916727.3231339455,1488916727.3254590034,        0.7021484375,       -0.0932617188,       -0.0083007812,       20.0805664062,      -28.8391113281,      -66.1621093750
1488916727.3257451057,1488916727.3281838894,        0.7021484375,       -0.0932617188,       -0.0083007812,       20.5841064453,      -29.4952392578,      -66.1621093750
1488916727.3284709454,1488916727.3307631016,        0.7021484375,       -0.0932617188,       -0.0083007812,       20.5841064453,      -29.4952392578,      -68.1457519531
1488916727.3310480118,1488916727.3333389759,        0.7021484375,       -0.0878906250,       -0.0327148438,       18.4173583984,      -30.2734375000,      -68.1457519531
1488916727.3338360786,1488916727.3362150192,        0.7148437500,       -0.0878906250,       -0.0327148438,       18.4173583984,      -30.2734375000,      -69.6716308594
1488916727.3365058899,1488916727.3388919830,        0.7148437500,       -0.0878906250,       -0.0327148438,       17.5170898438,      -30.9448242188,      -69.6716308594
1488916727.3392550945,1488916727.3416509628,        0.7148437500,       -0.0878906250,       -0.0327148438,       17.5170898438,      -30.9448242188,      -71.0754394531
1488916727.3419411182,1488916727.3445639610,        0.6889648438,       -0.0576171875,       -0.0781250000,       14.1143798828,      -31.7230224609,      -71.0754394531
1488916727.3448541164,1488916727.3471429348,        0.6889648438,       -0.0576171875,       -0.0781250000,       14.1143798828,      -31.7230224609,      -70.2819824219
1488916727.3474280834,1488916727.3497140408,        0.6889648438,       -0.0576171875,       -0.0781250000,        7.0953369141,      -32.8979492188,      -70.2819824219
1488916727.3499948978,1488916727.3522861004,        0.6889648438,       -0.0576171875,       -0.0781250000,        7.0953369141,      -32.8979492188,      -66.3757324219
1488916727.3525679111,1488916727.3549439907,        0.6274414062,       -0.0761718750,       -0.1123046875,        1.8920898438,      -32.9589843750,      -65.9637451172
1488916727.3552269936,1488916727.3575129509,        0.6274414062,       -0.0761718750,       -0.1123046875,        1.8920898438,      -32.9589843750,      -65.9637451172
1488916727.3577950001,1488916727.3600831032,        0.6274414062,       -0.0761718750,       -0.1123046875,        0.8239746094,      -32.1502685547,      -62.0880126953
1488916727.3603649139,1488916727.3626511097,        0.6274414062,       -0.0761718750,       -0.1123046875,        0.8239746094,      -32.1502685547,      -62.0880126953
1488916727.3629329205,1488916727.3652238846,        0.6606445312,       -0.0478515625,       -0.1723632812,       -1.3122558594,      -31.1126708984,      -59.2193603516
1488916727.3655080795,1488916727.3677930832,        0.6606445312,       -0.0478515625,       -0.1723632812,       -1.3122558594,      -31.1126708984,      -59.2193603516
1488916727.3680760860,1488916727.3703579903,        0.6606445312,       -0.0478515625,       -0.1723632812,       -6.0729980469,      -29.3426513672,      -58.5174560547
1488916727.3706400394,1488916727.3729279041,        0.6606445312,       -0.0478515625,       -0.1723632812,       -6.0729980469,      -29.3426513672,      -58.5174560547
1488916727.3733189106,1488916727.3756139278,        0.6713867188,       -0.0087890625,       -0.1674804688,      -12.5732421875,      -27.7099609375,      -57.3425292969
1488916727.3758990765,1488916727.3781850338,        0.6713867188,       -0.0087890625,       -0.1674804688,      -12.5732421875,      -27.7099609375,      -57.3425292969
1488916727.3784699440,1488916727.3807640076,        0.6713867188,       -0.0087890625,       -0.1674804688,      -16.2658691406,      -26.8249511719,      -55.5267333984
1488916727.3810479641,1488916727.3833339214,        0.6713867188,       -0.0087890625,       -0.1655273438,      -16.2658691406,      -26.8249511719,      -55.5267333984
1488916727.3836870193,1488916727.3859770298,        0.6606445312,       -0.0654296875,       -0.1655273438,      -15.7318115234,      -26.0772705078,      -53.6804199219
1488916727.3862619400,1488916727.3885478973,        0.6606445312,       -0.0654296875,       -0.1655273438,      -15.7318115234,      -26.0772705078,      -53.6804199219
1488916727.3888320923,1488916727.3911170959,        0.6606445312,       -0.0654296875,       -0.1655273438,      -15.7318115234,      -24.9938964844,      -53.1463623047
1488916727.3914020061,1488916727.3938019276,        0.6606445312,       -0.0805664062,       -0.1787109375,      -13.6718750000,      -24.9938964844,      -53.1463623047
1488916727.3940899372,1488916727.3963730335,        0.7021484375,       -0.0805664062,       -0.1787109375,      -13.6718750000,      -24.9938964844,      -52.9327392578
1488916727.3966579437,1488916727.3989419937,        0.7021484375,       -0.0805664062,       -0.1787109375,      -11.0931396484,      -23.5137939453,      -52.9327392578
1488916727.3992259502,1488916727.4015190601,        0.7021484375,       -0.0805664062,       -0.1787109375,      -11.0931396484,      -23.5137939453,      -52.2460937500
1488916727.4018020630,1488916727.4041769505,        0.8271484375,       -0.0224609375,       -0.3398437500,       -5.2947998047,      -24.4140625000,      -52.2460937500
1488916727.4044589996,1488916727.4067509174,        0.7597656250,       -0.0224609375,       -0.3398437500,       -5.2947998047,      -24.4140625000,      -52.2460937500
1488916727.4070329666,1488916727.4093170166,        0.7597656250,       -0.0224609375,       -0.3398437500,       -2.8533935547,      -25.2532958984,      -52.0629882812
1488916727.4095981121,1488916727.4118800163,        0.7597656250,       -0.0224609375,       -0.3398437500,       -2.8533935547,      -25.2532958984,      -52.0629882812
1488916727.4121611118,1488916727.4144558907,        0.6596679688,       -0.0458984375,       -0.1469726562,       -2.9754638672,      -21.7285156250,      -53.1921386719
1488916727.4147360325,1488916727.4170179367,        0.6596679688,       -0.0458984375,       -0.1469726562,       -2.9754638672,      -21.7285156250,      -53.1921386719
1488916727.4172990322,1488916727.4195840359,        0.6596679688,       -0.0458984375,       -0.1469726562,       -1.7089843750,      -19.3634033203,      -53.7261962891
1488916727.4198639393,1488916727.4221539497,        0.6596679688,       -0.0458984375,       -0.1469726562,       -1.7089843750,      -19.3634033203,      -53.7261962891
1488916727.4224359989,1488916727.4248020649,        0.6308593750,       -0.0419921875,       -0.0756835938,       -3.2806396484,      -19.7601318359,      -52.6885986328
1488916727.4250919819,1488916727.4276170731,        0.6308593750,       -0.0419921875,       -0.0756835938,       -3.2806396484,      -19.7601318359,      -52.6885986328
1488916727.4278988838,1488916727.4301888943,        0.6308593750,       -0.0419921875,       -0.0756835938,       -5.9204101562,      -21.2554931641,      -52.9632568359
1488916727.4304690361,1488916727.4327540398,        0.6308593750,       -0.0419921875,       -0.0756835938,       -5.9204101562,      -21.2554931641,      -52.9632568359
1488916727.4330360889,1488916727.4355850220,        0.5898437500,       -0.0317382812,       -0.1215820312,       -7.4462890625,      -22.3388671875,      -51.3000488281
1488916727.4359860420,1488916727.4383618832,        0.5898437500,       -0.0317382812,       -0.1215820312,       -7.4462890625,      -22.3388671875,      -51.3000488281
1488916727.4396328926,1488916727.4419240952,        0.5898437500,       -0.0317382812,       -0.1215820312,       -7.9193115234,      -24.0325927734,      -48.5229492188
1488916727.4422080517,1488916727.4445800781,        0.5898437500,       -0.0634765625,       -0.1250000000,       -7.9193115234,      -24.0325927734,      -48.5229492188
1488916727.4448618889,1488916727.4471459389,        0.5761718750,       -0.0634765625,       -0.1250000000,       -7.0037841797,      -23.0560302734,      -44.6014404297
1488916727.4474289417,1488916727.4497110844,        0.5761718750,       -0.0634765625,       -0.1250000000,       -7.0037841797,      -23.0560302734,      -44.6014404297
1488916727.4499940872,1488916727.4522759914,        0.5761718750,       -0.0634765625,       -0.1250000000,       -6.2561035156,      -20.0500488281,      -44.1741943359
1488916727.4525570869,1488916727.4548380375,        0.6577148438,        0.0156250000,       -0.1166992188,       -6.2561035156,      -20.0500488281,      -44.1741943359
1488916727.4551210403,1488916727.4574089050,        0.6577148438,        0.0156250000,       -0.1166992188,       -9.4757080078,      -21.2860107422,      -42.6483154297
1488916727.4576940536,1488916727.4599819183,        0.6577148438,        0.0156250000,       -0.1166992188,       -9.4757080078,      -21.2860107422,      -42.6483154297
1488916727.4602639675,1488916727.4625520706,        0.6577148438,        0.0156250000,       -0.1166992188,      -13.5498046875,      -20.0347900391,      -39.3829345703
1488916727.4628369808,1488916727.4651710987,        0.7270507812,        0.0625000000,       -0.0771484375,      -13.5498046875,      -20.0347900391,      -39.3829345703
1488916727.4654541016,1488916727.4677429199,        0.7270507812,        0.0625000000,       -0.0771484375,      -16.4031982422,      -17.9901123047,      -36.5753173828
1488916727.4680259228,1488916727.4703140259,        0.7270507812,        0.0625000000,       -0.0771484375,      -16.4031982422,      -17.9901123047,      -36.5753173828
1488916727.4705970287,1488916727.4728839397,        0.7270507812,        0.0625000000,       -0.0771484375,      -16.4031982422,      -18.7377929688,      -33.9355468750
1488916727.4731669426,1488916727.4754478931,        0.6210937500,        0.0019531250,       -0.1103515625,      -17.6239013672,      -18.7377929688,      -33.9355468750
1488916727.4757339954,1488916727.4780170918,        0.6210937500,        0.0019531250,       -0.1103515625,      -17.6239013672,      -18.7377929688,      -31.9061279297
1488916727.4783039093,1488916727.4805889130,        0.6210937500,        0.0019531250,       -0.1103515625,      -17.5018310547,      -19.2413330078,      -31.9061279297
1488916727.4808769226,1488916727.4831581116,        0.6210937500,        0.0019531250,       -0.1103515625,      -17.5018310547,      -19.2413330078,      -30.2429199219
1488916727.4835870266,1488916727.4858798981,        0.6450195312,       -0.0175781250,       -0.1098632812,      -16.5863037109,      -18.8751220703,      -30.2429199219
1488916727.4861650467,1488916727.4884591103,        0.6450195312,       -0.0175781250,       -0.1098632812,      -16.5863037109,      -18.8751220703,      -30.2429199219
1488916727.4887449741,1488916727.4910330772,        0.6450195312,       -0.0175781250,       -0.1098632812,      -15.7928466797,      -18.9819335938,      -28.7322998047
1488916727.4913189411,1488916727.4937880039,        0.6450195312,       -0.0175781250,       -0.1098632812,      -15.7928466797,      -18.9819335938,      -24.8260498047
1488916727.4940800667,1488916727.4964969158,        0.6401367188,       -0.0136718750,       -0.1152343750,      -15.0451660156,      -18.4478759766,      -26.8402099609
1488916727.4967908859,1488916727.4992079735,        0.6401367188,       -0.0136718750,       -0.1152343750,      -15.0451660156,      -18.4478759766,      -26.8402099609
1488916727.4996039867,1488916727.5020248890,        0.6401367188,       -0.0136718750,       -0.1152343750,      -14.0686035156,      -18.0358886719,      -25.2532958984
1488916727.5023169518,1488916727.5047459602,        0.6401367188,       -0.0209960938,       -0.1176757812,      -14.0686035156,      -18.0358886719,      -25.2532958984
1488916727.5050389767,1488916727.5074479580,        0.6323242188,       -0.0209960938,       -0.1176757812,      -12.5274658203,      -17.0440673828,      -24.9481201172
1488916727.5077419281,1488916727.5101559162,        0.6323242188,       -0.0209960938,       -0.1176757812,      -12.5274658203,      -17.0440673828,      -24.9481201172
1488916727.5104498863,1488916727.5128619671,        0.6323242188,       -0.0209960938,       -0.1176757812,      -10.6658935547,      -15.9606933594,      -24.3835449219
1488916727.5131549835,1488916727.5154790878,        0.6289062500,       -0.0048828125,       -0.1152343750,      -10.6658935547,      -15.9606933594,      -24.3835449219
1488916727.5157639980,1488916727.5180509090,        0.6289062500,       -0.0048828125,       -0.1152343750,       -9.0637207031,      -16.0217285156,      -22.3999023438
1488916727.5183339119,1488916727.5206210613,        0.6289062500,       -0.0048828125,       -0.1152343750,       -9.0637207031,      -16.0217285156,      -22.3999023438
1488916727.5209040642,1488916727.5231950283,        0.6289062500,       -0.0048828125,       -0.1152343750,       -9.2010498047,      -16.0217285156,      -20.7977294922
1488916727.5234889984,1488916727.5259048939,        0.6337890625,       -0.0268554688,       -0.1215820312,       -9.2010498047,      -16.0217285156,      -20.7977294922
1488916727.5261950493,1488916727.5286130905,        0.6337890625,       -0.0268554688,       -0.1215820312,       -9.7808837891,      -15.7928466797,      -20.1721191406
1488916727.5289030075,1488916727.5313088894,        0.6337890625,       -0.0268554688,       -0.1215820312,       -9.7808837891,      -15.7928466797,      -20.1721191406
1488916727.5315930843,1488916727.5339889526,        0.6337890625,       -0.0268554688,       -0.1215820312,      -10.0402832031,      -15.1214599609,      -19.0429687500
1488916727.5342829227,1488916727.5366640091,        0.6333007812,       -0.0136718750,       -0.1274414062,      -10.0402832031,      -15.1214599609,      -19.0429687500
1488916727.5369539261,1488916727.5399100780,        0.6333007812,       -0.0136718750,       -0.1274414062,      -10.3149414062,      -14.8925781250,      -17.4865722656
1488916727.5401968956,1488916727.5424830914,        0.6333007812,       -0.0136718750,       -0.1274414062,      -10.3149414062,      -14.8925781250,      -17.4865722656
1488916727.5427670479,1488916727.5451900959,        0.6333007812,       -0.0039062500,       -0.1284179688,      -10.4827880859,      -14.7399902344,      -16.4642333984
1488916727.5454759598,1488916727.5477681160,        0.6313476562,       -0.0039062500,       -0.1284179688,      -10.4827880859,      -14.7399902344,      -16.4642333984
1488916727.5480539799,1488916727.5503420830,        0.6313476562,       -0.0039062500,       -0.1284179688,      -10.1928710938,      -14.8925781250,      -15.5029296875
1488916727.5506279469,1488916727.5529119968,        0.6313476562,       -0.0039062500,       -0.1284179688,      -10.1928710938,      -14.8925781250,      -15.5029296875
1488916727.5531980991,1488916727.5554940701,        0.6313476562,       -0.0068359375,       -0.1245117188,      -10.7879638672,      -14.2822265625,      -14.2517089844
1488916727.5557780266,1488916727.5580630302,        0.6293945312,       -0.0068359375,       -0.1245117188,      -10.7879638672,      -14.2822265625,      -14.2517089844
1488916727.5583488941,1488916727.5606400967,        0.6293945312,       -0.0068359375,       -0.1245117188,      -10.5590820312,      -13.7023925781,      -13.2904052734
1488916727.5609269142,1488916727.5632100105,        0.6293945312,       -0.0068359375,       -0.1245117188,      -10.5590820312,      -13.7023925781,      -13.2904052734
1488916727.5634899139,1488916727.5657689571,        0.6367187500,       -0.0170898438,       -0.1396484375,      -10.4522705078,      -13.1835937500,      -12.5427246094
1488916727.5661590099,1488916727.5684530735,        0.6367187500,       -0.0170898438,       -0.1396484375,      -10.4522705078,      -13.1835937500,      -12.5427246094
1488916727.5687379837,1488916727.5710270405,        0.6367187500,       -0.0170898438,       -0.1396484375,      -11.0321044922,      -12.6953125000,      -11.5814208984
1488916727.5713109970,1488916727.5736579895,        0.6367187500,       -0.0170898438,       -0.1396484375,      -11.0321044922,      -12.6953125000,      -11.5814208984
1488916727.5739428997,1488916727.5762319565,        0.6337890625,       -0.0322265625,       -0.1523437500,      -14.9383544922,      -12.3291015625,      -11.0473632812
1488916727.5765149593,1488916727.5787990093,        0.6337890625,       -0.0322265625,       -0.1523437500,      -12.3443603516,      -12.3291015625,      -11.0473632812
1488916727.5790820122,1488916727.5813748837,        0.6337890625,       -0.0322265625,       -0.1523437500,      -12.3443603516,      -12.3291015625,      -10.9558105469
1488916727.5816590786,1488916727.5839960575,        0.6337890625,       -0.0322265625,       -0.1523437500,      -13.2904052734,      -11.7340087891,      -10.9558105469
1488916727.5842809677,1488916727.5865669250,        0.6337890625,       -0.0327148438,       -0.1479492188,      -13.2904052734,      -11.7340087891,      -10.7727050781
1488916727.5868520737,1488916727.5891399384,        0.6337890625,       -0.0327148438,       -0.1479492188,      -13.1683349609,      -11.1389160156,      -10.7727050781
1488916727.5894260406,1488916727.5917139053,        0.6337890625,       -0.0327148438,       -0.1479492188,      -13.1683349609,      -11.1389160156,      -10.7727050781
1488916727.5919990540,1488916727.5944850445,        0.6337890625,       -0.0327148438,       -0.1479492188,      -13.4124755859,      -10.2386474609,      -10.6048583984
1488916727.5947699547,1488916727.5970599651,        0.6347656250,       -0.0214843750,       -0.1489257812,      -13.4124755859,      -10.2386474609,      -10.6048583984
1488916727.5973439217,1488916727.5996289253,        0.6347656250,       -0.0214843750,       -0.1489257812,      -13.7176513672,       -9.3994140625,      -10.5285644531
1488916727.5999100208,1488916727.6021990776,        0.6347656250,       -0.0214843750,       -0.1489257812,      -13.7176513672,       -9.3994140625,      -10.5285644531
1488916727.6024808884,1488916727.6048159599,        0.6347656250,       -0.0214843750,       -0.1489257812,      -13.3209228516,       -8.9111328125,      -10.6048583984
1488916727.6050989628,1488916727.6073839664,        0.6347656250,       -0.0131835938,       -0.1557617188,      -13.3209228516,       -8.9111328125,      -10.6048583984
1488916727.6076660156,1488916727.6099579334,        0.6347656250,       -0.0131835938,       -0.1557617188,      -13.0004882812,       -8.4228515625,      -10.9710693359
1488916727.6102399826,1488916727.6125259399,        0.6347656250,       -0.0131835938,       -0.1557617188,      -13.0004882812,       -8.4228515625,      -10.9710693359
1488916727.6128079891,1488916727.6151928902,        0.6347656250,       -0.0131835938,       -0.1557617188,      -12.9394531250,       -7.7514648438,      -10.8947753906
1488916727.6154820919,1488916727.6179039478,        0.6220703125,       -0.0175781250,       -0.1586914062,      -12.9394531250,       -7.7514648438,      -10.8947753906
1488916727.6181950569,1488916727.6206130981,        0.6220703125,       -0.0175781250,       -0.1586914062,      -11.7797851562,       -7.0953369141,      -11.2762451172
1488916727.6209020615,1488916727.6233220100,        0.6220703125,       -0.0175781250,       -0.1586914062,      -11.7797851562,       -7.0953369141,      -11.2762451172
1488916727.6236100197,1488916727.6260199547,        0.6220703125,       -0.0175781250,       -0.1655273438,      -11.1999511719,       -6.5917968750,      -11.6577148438
1488916727.6263101101,1488916727.6287219524,        0.6254882812,       -0.0175781250,       -0.1655273438,      -11.1999511719,       -6.5917968750,      -11.6577148438
1488916727.6291251183,1488916727.6315441132,        0.6254882812,       -0.0175781250,       -0.1655273438,      -10.4217529297,       -6.4697265625,      -11.2915039062
1488916727.6318330765,1488916727.6342289448,        0.6254882812,       -0.0175781250,       -0.1655273438,      -10.4217529297,       -6.4697265625,      -11.2915039062
1488916727.6345109940,1488916727.6368069649,        0.6123046875,       -0.0214843750,       -0.1738281250,       -9.8419189453,       -5.8898925781,      -11.3372802734
1488916727.6370859146,1488916727.6393780708,        0.6123046875,       -0.0214843750,       -0.1738281250,       -9.8419189453,       -5.8898925781,      -11.3372802734
1488916727.6396560669,1488916727.6419448853,        0.6123046875,       -0.0214843750,       -0.1738281250,       -8.7585449219,       -4.9591064453,      -11.4440917969
1488916727.6422228813,1488916727.6446459293,        0.6123046875,       -0.0214843750,       -0.1738281250,       -8.7585449219,       -4.9591064453,      -11.4440917969
