time_stamp before, time_stamp after, Acceleration x, Acceleration y, Acceleration z, Gyro x, Gyro y, Gyro z
1488916785.0269110203,1488916785.0371720791,        0.5913085938,        0.1206054688,       -0.1694335938,        4.0588378906,        1.6174316406,      -36.2854003906
1488916785.0374739170,1488916785.0400791168,        0.5869140625,        0.1538085938,       -0.1674804688,        3.8757324219,        1.8310546875,      -35.4766845703
1488916785.0403630733,1488916785.0426490307,        0.5869140625,        0.1538085938,       -0.1674804688,        3.8757324219,        1.8310546875,      -34.3322753906
1488916785.0429248810,1488916785.0461640358,        0.5869140625,        0.1538085938,       -0.1674804688,        4.7302246094,        1.7242431641,      -34.3322753906
1488916785.0464570522,1488916785.0499250889,        0.5869140625,        0.1445312500,       -0.1489257812,        4.2114257812,        2.1057128906,      -33.4930419922
1488916785.0502340794,1488916785.0531480312,        0.6074218750,        0.1445312500,       -0.1489257812,        4.2114257812,        2.1057128906,      -33.4930419922
1488916785.0534551144,1488916785.0558609962,        0.6074218750,        0.1445312500,       -0.1489257812,        2.4871826172,        2.9449462891,      -32.4859619141
1488916785.0561439991,1488916785.0585548878,        0.6074218750,        0.1445312500,       -0.1635742188,        2.4871826172,        2.9449462891,      -32.4859619141
1488916785.0588359833,1488916785.0612421036,        0.5986328125,        0.1445312500,       -0.1635742188,        2.7313232422,        2.4414062500,      -31.6772460938
1488916785.0615251064,1488916785.0639469624,        0.5986328125,        0.1445312500,       -0.1635742188,        2.7313232422,        2.4414062500,      -31.6772460938
1488916785.0642290115,1488916785.0666360855,        0.5986328125,        0.1445312500,       -0.1635742188,        2.3345947266,        2.1514892578,      -31.3873291016
1488916785.0669178963,1488916785.0693271160,        0.6044921875,        0.1469726562,       -0.1435546875,        2.3345947266,        2.1514892578,      -31.3873291016
1488916785.0696089268,1488916785.0720179081,        0.6044921875,        0.1469726562,       -0.1435546875,        3.2196044922,        2.0751953125,      -31.2194824219
1488916785.0722990036,1488916785.0746591091,        0.6044921875,        0.1469726562,       -0.1435546875,        3.2196044922,        2.0751953125,      -31.2194824219
1488916785.0749349594,1488916785.0772171021,        0.6044921875,        0.1469726562,       -0.1435546875,        3.9367675781,        1.7547607422,      -30.7769775391
1488916785.0774919987,1488916785.0797770023,        0.5996093750,        0.1425781250,       -0.1284179688,        3.9367675781,        1.7547607422,      -30.7769775391
1488916785.0800499916,1488916785.0823419094,        0.5996093750,        0.1425781250,       -0.1284179688,        3.7841796875,        1.3275146484,      -30.7464599609
1488916785.0826179981,1488916785.0850460529,        0.5996093750,        0.1425781250,       -0.1284179688,        3.7841796875,        1.3275146484,      -30.7464599609
1488916785.0853230953,1488916785.0876131058,        0.5996093750,        0.1425781250,       -0.1284179688,        3.4637451172,        0.7171630859,      -30.7006835938
1488916785.0878911018,1488916785.0901770592,        0.6118164062,        0.1547851562,       -0.1303710938,        3.4637451172,        0.7171630859,      -30.7006835938
1488916785.0904550552,1488916785.0927450657,        0.6118164062,        0.1547851562,       -0.1303710938,        3.2501220703,        0.5645751953,      -30.6091308594
1488916785.0930221081,1488916785.0954859257,        0.6118164062,        0.1547851562,       -0.1303710938,        3.2501220703,        0.5645751953,      -30.6091308594
1488916785.0957710743,1488916785.0981900692,        0.6118164062,        0.1547851562,       -0.1303710938,        2.2888183594,        0.3051757812,      -30.4260253906
1488916785.0984740257,1488916785.1008930206,        0.6186523438,        0.1367187500,       -0.1254882812,        2.2888183594,        0.3051757812,      -30.4260253906
1488916785.1013479233,1488916785.1037759781,        0.6186523438,        0.1367187500,       -0.1254882812,        4.4097900391,        0.1525878906,      -30.5328369141
1488916785.1040620804,1488916785.1064798832,        0.6186523438,        0.1367187500,       -0.1254882812,        4.4097900391,        0.1525878906,      -30.5328369141
1488916785.1067659855,1488916785.1091759205,        0.6186523438,        0.1186523438,       -0.1025390625,        7.7056884766,        0.4119873047,      -31.0363769531
1488916785.1094639301,1488916785.1118729115,        0.6318359375,        0.1186523438,       -0.1025390625,        7.7056884766,        0.4119873047,      -31.0363769531
1488916785.1121580601,1488916785.1145780087,        0.6318359375,        0.1186523438,       -0.1025390625,        8.5144042969,        0.3204345703,      -31.0363769531
1488916785.1148650646,1488916785.1172800064,        0.6318359375,        0.1186523438,       -0.1025390625,        8.5144042969,        0.3204345703,      -31.0363769531
1488916785.1175670624,1488916785.1199839115,        0.6308593750,        0.1606445312,       -0.1137695312,        8.4686279297,       -0.0762939453,      -30.3497314453
1488916785.1202700138,1488916785.1226789951,        0.6308593750,        0.1606445312,       -0.1137695312,        8.4686279297,       -0.0762939453,      -30.3497314453
1488916785.1229660511,1488916785.1253819466,        0.6308593750,        0.1606445312,       -0.1137695312,        8.4991455078,       -0.4119873047,      -29.8309326172
1488916785.1256680489,1488916785.1280839443,        0.6308593750,        0.1606445312,       -0.1137695312,        8.4991455078,       -0.4119873047,      -29.8309326172
1488916785.1283700466,1488916785.1307818890,        0.6171875000,        0.1611328125,       -0.1196289062,        7.7819824219,       -1.1749267578,      -28.7322998047
1488916785.1310679913,1488916785.1334879398,        0.6171875000,        0.1611328125,       -0.1196289062,        7.7819824219,       -1.1749267578,      -28.7322998047
1488916785.1337659359,1488916785.1360619068,        0.6171875000,        0.1611328125,       -0.1196289062,        7.4157714844,       -2.3498535156,      -27.9998779297
1488916785.1363389492,1488916785.1386239529,        0.6171875000,        0.1611328125,       -0.1196289062,        7.4157714844,       -2.3498535156,      -27.9998779297
1488916785.1389009953,1488916785.1411869526,        0.6083984375,        0.1528320312,       -0.1230468750,        7.4157714844,       -3.4790039062,      -25.7568359375
1488916785.1414659023,1488916785.1438560486,        0.6083984375,        0.1528320312,       -0.1230468750,        7.4462890625,       -3.4790039062,      -25.7568359375
1488916785.1441349983,1488916785.1464269161,        0.6083984375,        0.1528320312,       -0.1230468750,        7.4462890625,       -3.4790039062,      -26.8707275391
1488916785.1467049122,1488916785.1489970684,        0.6083984375,        0.1528320312,       -0.1196289062,        7.4615478516,       -3.5705566406,      -26.8707275391
1488916785.1492750645,1488916785.1515660286,        0.6567382812,        0.2172851562,       -0.1196289062,        7.4615478516,       -3.5705566406,      -27.6794433594
1488916785.1518440247,1488916785.1542561054,        0.6567382812,        0.2172851562,       -0.1196289062,        6.1492919922,       -3.5552978516,      -27.6794433594
1488916785.1545429230,1488916785.1569609642,        0.6567382812,        0.2172851562,       -0.1196289062,        6.1492919922,       -3.5552978516,      -29.3731689453
1488916785.1572461128,1488916785.1596550941,        0.6567382812,        0.1977539062,       -0.1440429688,        4.1961669922,       -3.2958984375,      -29.3731689453
1488916785.1599380970,1488916785.1623570919,        0.6420898438,        0.1977539062,       -0.1440429688,        4.1961669922,       -3.2958984375,      -29.2663574219
1488916785.1626410484,1488916785.1650640965,        0.6420898438,        0.1977539062,       -0.1440429688,        2.6702880859,       -3.7384033203,      -29.2663574219
1488916785.1654589176,1488916785.1678719521,        0.6420898438,        0.1977539062,       -0.1440429688,        2.6702880859,       -3.7384033203,      -28.7780761719
1488916785.1681549549,1488916785.1705648899,        0.6308593750,        0.1791992188,       -0.1577148438,        2.1972656250,       -4.4708251953,      -28.7780761719
1488916785.1708490849,1488916785.1732609272,        0.6308593750,        0.1791992188,       -0.1577148438,        2.1972656250,       -4.4708251953,      -28.7017822266
1488916785.1735548973,1488916785.1759700775,        0.6308593750,        0.1791992188,       -0.1577148438,        1.4038085938,       -5.0506591797,      -28.7017822266
1488916785.1762540340,1488916785.1786720753,        0.6308593750,        0.1791992188,       -0.1577148438,        1.4038085938,       -5.0506591797,      -28.7017822266
1488916785.1789569855,1488916785.1813709736,        0.6279296875,        0.1870117188,       -0.1440429688,        0.1525878906,       -5.4931640625,      -28.7017822266
1488916785.1816570759,1488916785.1840898991,        0.6279296875,        0.1870117188,       -0.1440429688,        0.1525878906,       -5.4931640625,      -28.7017822266
1488916785.1843750477,1488916785.1868638992,        0.6279296875,        0.1870117188,       -0.1440429688,       -0.3509521484,       -5.6457519531,      -28.7017822266
1488916785.1871430874,1488916785.1894290447,        0.6279296875,        0.1870117188,       -0.1469726562,       -0.3509521484,       -5.6457519531,      -28.7017822266
1488916785.1897070408,1488916785.1919949055,        0.6259765625,        0.1806640625,       -0.1469726562,       -0.9918212891,       -5.9814453125,      -28.6865234375
1488916785.1922719479,1488916785.1947960854,        0.6259765625,        0.1806640625,       -0.1469726562,       -0.9918212891,       -5.9814453125,      -28.6865234375
1488916785.1950790882,1488916785.1974589825,        0.6259765625,        0.1806640625,       -0.1469726562,       -2.1667480469,       -5.6915283203,      -28.9611816406
1488916785.1977429390,1488916785.2002239227,        0.6259765625,        0.1826171875,       -0.1401367188,       -2.1667480469,       -5.6915283203,      -28.9611816406
1488916785.2005081177,1488916785.2028889656,        0.6323242188,        0.1826171875,       -0.1401367188,       -3.0059814453,       -6.3018798828,      -28.8696289062
1488916785.2040379047,1488916785.2063250542,        0.6323242188,        0.1826171875,       -0.1401367188,       -3.0059814453,       -6.5155029297,      -28.8543701172
1488916785.2066071033,1488916785.2088909149,        0.6323242188,        0.1826171875,       -0.1401367188,       -3.4637451172,       -6.5155029297,      -28.8543701172
1488916785.2091689110,1488916785.2114560604,        0.6474609375,        0.1743164062,       -0.1572265625,       -3.4637451172,       -6.5155029297,      -29.2663574219
1488916785.2117319107,1488916785.2141180038,        0.6474609375,        0.1743164062,       -0.1572265625,       -4.0740966797,       -6.6986083984,      -29.2663574219
1488916785.2143950462,1488916785.2166810036,        0.6474609375,        0.1743164062,       -0.1572265625,       -4.0740966797,       -6.6986083984,      -29.2663574219
1488916785.2169589996,1488916785.2192440033,        0.6474609375,        0.1743164062,       -0.1572265625,       -4.7607421875,       -6.5307617188,      -29.9987792969
1488916785.2195210457,1488916785.2218029499,        0.6572265625,        0.1733398438,       -0.1669921875,       -4.7607421875,       -6.5307617188,      -29.9987792969
1488916785.2220809460,1488916785.2244200706,        0.6572265625,        0.1733398438,       -0.1669921875,       -5.0659179688,       -6.9732666016,      -31.0058593750
1488916785.2246980667,1488916785.2269790173,        0.6572265625,        0.1733398438,       -0.1669921875,       -5.0659179688,       -6.9732666016,      -31.0058593750
1488916785.2272551060,1488916785.2295401096,        0.6572265625,        0.1733398438,       -0.1669921875,       -5.2337646484,       -7.9498291016,      -31.4331054688
1488916785.2299280167,1488916785.2322158813,        0.6508789062,        0.1718750000,       -0.1757812500,       -5.2337646484,       -7.9498291016,      -31.4331054688
1488916785.2324941158,1488916785.2348260880,        0.6508789062,        0.1718750000,       -0.1757812500,       -4.7607421875,       -8.4381103516,      -32.0892333984
1488916785.2351050377,1488916785.2373869419,        0.6508789062,        0.1718750000,       -0.1757812500,       -4.7607421875,       -8.4381103516,      -32.0892333984
1488916785.2376658916,1488916785.2399449348,        0.6508789062,        0.1718750000,       -0.1655273438,       -4.6997070312,       -8.5906982422,      -32.8216552734
1488916785.2402229309,1488916785.2425069809,        0.6459960938,        0.1791992188,       -0.1655273438,       -4.6997070312,       -8.5906982422,      -32.8216552734
1488916785.2427840233,1488916785.2450740337,        0.6459960938,        0.1791992188,       -0.1655273438,       -5.4931640625,       -9.5062255859,      -33.2794189453
1488916785.2453510761,1488916785.2476389408,        0.6459960938,        0.1791992188,       -0.1655273438,       -5.4931640625,       -9.5062255859,      -33.2794189453
1488916785.2479159832,1488916785.2502028942,        0.6459960938,        0.1791992188,       -0.1591796875,       -5.8135986328,       -9.5977783203,      -33.5388183594
1488916785.2504808903,1488916785.2527608871,        0.6430664062,        0.1962890625,       -0.1591796875,       -5.8135986328,       -9.5977783203,      -33.5388183594
1488916785.2530379295,1488916785.2555069923,        0.6430664062,        0.1962890625,       -0.1591796875,       -5.8135986328,       -9.8571777344,      -34.0576171875
1488916785.2557849884,1488916785.2580790520,        0.6430664062,        0.1962890625,       -0.1591796875,       -5.7983398438,       -9.8571777344,      -34.0576171875
1488916785.2583570480,1488916785.2606480122,        0.6430664062,        0.1918945312,       -0.1455078125,       -5.7983398438,       -9.8571777344,      -34.6679687500
1488916785.2609250546,1488916785.2632100582,        0.6430664062,        0.1918945312,       -0.1455078125,       -6.1035156250,      -10.1623535156,      -34.6679687500
1488916785.2635800838,1488916785.2659940720,        0.6430664062,        0.1918945312,       -0.1455078125,       -6.1035156250,      -10.1623535156,      -34.9273681641
1488916785.2662839890,1488916785.2686998844,        0.6430664062,        0.1918945312,       -0.1455078125,       -6.8511962891,      -10.7574462891,      -34.9273681641
1488916785.2689878941,1488916785.2714059353,        0.6406250000,        0.1933593750,       -0.1420898438,       -6.8511962891,      -10.7574462891,      -35.2783203125
1488916785.2716939449,1488916785.2740900517,        0.6406250000,        0.1933593750,       -0.1420898438,       -7.1411132812,      -11.8255615234,      -35.2783203125
1488916785.2743709087,1488916785.2766621113,        0.6406250000,        0.1933593750,       -0.1420898438,       -7.1411132812,      -11.8255615234,      -35.9344482422
1488916785.2769429684,1488916785.2792339325,        0.6406250000,        0.1933593750,       -0.1420898438,       -7.8277587891,      -12.1002197266,      -35.9344482422
1488916785.2795140743,1488916785.2818040848,        0.6528320312,        0.1894531250,       -0.1562500000,       -7.8277587891,      -12.1002197266,      -35.9344482422
1488916785.2820858955,1488916785.2844879627,        0.6528320312,        0.1894531250,       -0.1562500000,       -7.5988769531,      -12.4359130859,      -36.5295410156
1488916785.2847769260,1488916785.2871849537,        0.6528320312,        0.1894531250,       -0.1562500000,       -7.5988769531,      -12.4359130859,      -36.5295410156
1488916785.2874751091,1488916785.2899420261,        0.6528320312,        0.1894531250,       -0.1562500000,       -7.3394775391,      -12.6953125000,      -37.2924804688
1488916785.2902250290,1488916785.2925109863,        0.6499023438,        0.1884765625,       -0.1484375000,       -7.3394775391,      -12.6953125000,      -37.2924804688
1488916785.2928988934,1488916785.2954039574,        0.6499023438,        0.1884765625,       -0.1484375000,       -7.0648193359,      -13.0157470703,      -38.0554199219
1488916785.2956910133,1488916785.2980749607,        0.6499023438,        0.1884765625,       -0.1484375000,       -7.0648193359,      -13.0157470703,      -38.0554199219
1488916785.2983620167,1488916785.3010189533,        0.6499023438,        0.1884765625,       -0.1640625000,       -6.5002441406,      -12.5732421875,      -39.0625000000
1488916785.3013119698,1488916785.3037450314,        0.6557617188,        0.1889648438,       -0.1640625000,       -6.5002441406,      -12.5732421875,      -42.9687500000
1488916785.3040330410,1488916785.3064410686,        0.6557617188,        0.1889648438,       -0.1640625000,       -5.7220458984,      -13.2141113281,      -40.3289794922
1488916785.3067300320,1488916785.3091440201,        0.6557617188,        0.1889648438,       -0.1640625000,       -5.7220458984,      -13.2141113281,      -40.3289794922
1488916785.3094320297,1488916785.3118519783,        0.6425781250,        0.1948242188,       -0.1694335938,       -5.6152343750,      -12.9241943359,      -40.8477783203
1488916785.3121399879,1488916785.3145630360,        0.6425781250,        0.1948242188,       -0.1694335938,       -5.6152343750,      -12.9241943359,      -40.8477783203
1488916785.3148519993,1488916785.3172709942,        0.6425781250,        0.1948242188,       -0.1694335938,       -5.5236816406,      -13.0615234375,      -41.9311523438
1488916785.3175590038,1488916785.3199748993,        0.6425781250,        0.1948242188,       -0.1694335938,       -5.5236816406,      -13.0615234375,      -45.8374023438
1488916785.3202629089,1488916785.3226718903,        0.6494140625,        0.2065429688,       -0.1611328125,       -5.5541992188,      -13.3209228516,      -43.1518554688
1488916785.3229598999,1488916785.3252940178,        0.6494140625,        0.2065429688,       -0.1611328125,       -5.5541992188,      -13.3209228516,      -43.1518554688
1488916785.3255751133,1488916785.3278660774,        0.6494140625,        0.2065429688,       -0.1611328125,       -5.3100585938,      -13.1072998047,      -44.7998046875
1488916785.3281478882,1488916785.3304328918,        0.6494140625,        0.2065429688,       -0.1611328125,       -5.3100585938,      -13.1072998047,      -44.7998046875
1488916785.3307139874,1488916785.3330059052,        0.6411132812,        0.2099609375,       -0.1538085938,       -5.4779052734,      -12.8936767578,      -46.4630126953
1488916785.3332879543,1488916785.3355979919,        0.6411132812,        0.2099609375,       -0.1538085938,       -5.4779052734,      -12.8936767578,      -46.4630126953
1488916785.3358778954,1488916785.3381729126,        0.6411132812,        0.2099609375,       -0.1538085938,       -5.4779052734,      -13.1378173828,      -46.9665527344
1488916785.3384530544,1488916785.3407421112,        0.6411132812,        0.2099609375,       -0.1464843750,       -5.4779052734,      -13.1378173828,      -46.9665527344
1488916785.3410220146,1488916785.3433079720,        0.6674804688,        0.2172851562,       -0.1464843750,       -4.2572021484,      -12.6953125000,      -47.4853515625
1488916785.3436019421,1488916785.3459010124,        0.6674804688,        0.2172851562,       -0.1464843750,       -4.2572021484,      -12.6953125000,      -47.4853515625
1488916785.3461821079,1488916785.3484740257,        0.6674804688,        0.2172851562,       -0.1464843750,       -3.4332275391,      -12.3138427734,      -48.5229492188
1488916785.3487529755,1488916785.3510420322,        0.6674804688,        0.2172851562,       -0.1538085938,       -3.4332275391,      -12.3138427734,      -48.5229492188
1488916785.3513209820,1488916785.3537800312,        0.6718750000,        0.2143554688,       -0.1538085938,       -4.1656494141,      -12.9089355469,      -49.4079589844
1488916785.3540689945,1488916785.3564848900,        0.6718750000,        0.2143554688,       -0.1538085938,       -4.1656494141,      -12.9089355469,      -49.4079589844
1488916785.3568809032,1488916785.3593010902,        0.6718750000,        0.2143554688,       -0.1538085938,       -6.1645507812,      -13.0004882812,      -50.6439208984
1488916785.3595890999,1488916785.3619990349,        0.6762695312,        0.2246093750,       -0.1538085938,       -6.1645507812,      -13.0004882812,      -50.6439208984
1488916785.3622870445,1488916785.3647150993,        0.6762695312,        0.2246093750,       -0.1538085938,       -8.2092285156,      -12.9547119141,      -51.1932373047
1488916785.3650019169,1488916785.3674130440,        0.6762695312,        0.2246093750,       -0.1538085938,       -8.2092285156,      -12.9547119141,      -51.1932373047
1488916785.3677020073,1488916785.3701150417,        0.6762695312,        0.2246093750,       -0.1538085938,      -11.2915039062,      -12.5122070312,      -52.8869628906
1488916785.3704059124,1488916785.3728179932,        0.7172851562,        0.2407226562,       -0.1665039062,      -11.2915039062,      -12.5122070312,      -52.8869628906
1488916785.3731091022,1488916785.3754398823,        0.7172851562,        0.2407226562,       -0.1665039062,      -14.4805908203,      -13.6413574219,      -51.9561767578
1488916785.3757228851,1488916785.3780100346,        0.7172851562,        0.2407226562,       -0.1665039062,      -14.4805908203,      -13.6413574219,      -51.9561767578
1488916785.3782939911,1488916785.3805940151,        0.7172851562,        0.2407226562,       -0.1665039062,      -14.4805908203,      -14.9841308594,      -51.2542724609
1488916785.3808770180,1488916785.3831620216,        0.6386718750,        0.1777343750,       -0.1674804688,      -17.8375244141,      -14.9841308594,      -51.2542724609
1488916785.3834810257,1488916785.3857650757,        0.6386718750,        0.1777343750,       -0.1674804688,      -17.8375244141,      -14.9841308594,      -50.8880615234
1488916785.3860490322,1488916785.3883359432,        0.6386718750,        0.1777343750,       -0.1674804688,      -20.3857421875,      -15.2130126953,      -50.8880615234
1488916785.3886198997,1488916785.3909089565,        0.6386718750,        0.1777343750,       -0.1674804688,      -20.3857421875,      -15.2130126953,      -52.2460937500
1488916785.3911929131,1488916785.3935160637,        0.6660156250,        0.1772460938,       -0.1791992188,      -22.0794677734,      -14.4805908203,      -52.2460937500
1488916785.3938000202,1488916785.3960919380,        0.6660156250,        0.1772460938,       -0.1791992188,      -22.0794677734,      -14.4805908203,      -52.2460937500
1488916785.3963739872,1488916785.3986570835,        0.6660156250,        0.1772460938,       -0.1791992188,      -25.1617431641,      -13.5040283203,      -53.8177490234
1488916785.3989388943,1488916785.4012310505,        0.6660156250,        0.1772460938,       -0.1855468750,      -25.1617431641,      -13.5040283203,      -53.8177490234
1488916785.4015140533,1488916785.4039759636,        0.7250976562,        0.2363281250,       -0.1855468750,      -28.6254882812,      -13.1988525391,      -57.9071044922
1488916785.4042611122,1488916785.4065520763,        0.7250976562,        0.2363281250,       -0.1855468750,      -28.6254882812,      -13.1988525391,      -57.9071044922
1488916785.4068369865,1488916785.4091238976,        0.7250976562,        0.2363281250,       -0.1855468750,      -35.0036621094,      -12.3291015625,      -61.9354248047
1488916785.4095339775,1488916785.4118208885,        0.7250976562,        0.2275390625,       -0.2060546875,      -35.0036621094,      -12.3291015625,      -61.9354248047
1488916785.4121069908,1488916785.4144380093,        0.7031250000,        0.2275390625,       -0.2060546875,      -41.4733886719,      -13.0004882812,      -63.5528564453
1488916785.4147219658,1488916785.4170079231,        0.7031250000,        0.2275390625,       -0.2060546875,      -41.4733886719,      -13.0004882812,      -63.5528564453
1488916785.4172909260,1488916785.4195759296,        0.7031250000,        0.2275390625,       -0.2060546875,      -47.3480224609,      -13.2446289062,      -64.4989013672
1488916785.4199600220,1488916785.4222469330,        0.6855468750,        0.1479492188,       -0.1748046875,      -47.3480224609,      -13.2446289062,      -64.4989013672
1488916785.4225320816,1488916785.4248418808,        0.6855468750,        0.1479492188,       -0.1748046875,      -52.1087646484,      -12.6495361328,      -67.5659179688
1488916785.4251260757,1488916785.4274089336,        0.6855468750,        0.1479492188,       -0.1748046875,      -52.1087646484,      -12.6495361328,      -67.5659179688
1488916785.4276940823,1488916785.4299759865,        0.6855468750,        0.1479492188,       -0.1748046875,      -51.0559082031,      -11.1999511719,      -71.8994140625
1488916785.4302608967,1488916785.4325449467,        0.7612304688,        0.1293945312,       -0.1499023438,      -51.0559082031,      -11.1999511719,      -71.8994140625
1488916785.4328289032,1488916785.4351580143,        0.7612304688,        0.1293945312,       -0.1499023438,      -51.0559082031,       -8.7738037109,      -75.4699707031
1488916785.4354391098,1488916785.4377219677,        0.7612304688,        0.1293945312,       -0.1499023438,      -52.5360107422,       -8.7738037109,      -75.4699707031
1488916785.4380049706,1488916785.4402940273,        0.7612304688,        0.1293945312,       -0.1499023438,      -52.5360107422,       -4.8675537109,      -77.9266357422
1488916785.4405760765,1488916785.4428648949,        0.7768554688,        0.1352539062,       -0.1630859375,      -55.8013916016,       -7.4462890625,      -77.9266357422
1488916785.4431469440,1488916785.4454450607,        0.7768554688,        0.1352539062,       -0.1630859375,      -55.8013916016,       -7.4462890625,      -81.1462402344
1488916785.4457249641,1488916785.4480130672,        0.7768554688,        0.1352539062,       -0.1630859375,      -58.3190917969,       -7.8887939453,      -81.1462402344
1488916785.4482951164,1488916785.4505848885,        0.7768554688,        0.1352539062,       -0.1630859375,      -58.3190917969,       -7.8887939453,      -85.0524902344
1488916785.4508669376,1488916785.4531478882,        0.7666015625,        0.1323242188,       -0.1445312500,      -64.3463134766,       -8.1481933594,      -83.5113525391
1488916785.4535570145,1488916785.4558498859,        0.7666015625,        0.1323242188,       -0.1445312500,      -64.3463134766,       -8.1481933594,      -83.5113525391
1488916785.4561319351,1488916785.4584250450,        0.7666015625,        0.1323242188,       -0.1445312500,      -70.4650878906,       -8.4075927734,      -85.2355957031
1488916785.4587090015,1488916785.4609990120,        0.7666015625,        0.1323242188,       -0.1445312500,      -70.4650878906,       -8.4075927734,      -85.2355957031
1488916785.4612839222,1488916785.4635999203,        0.7666015625,        0.0961914062,       -0.1323242188,      -74.1119384766,       -9.5520019531,      -87.9669189453
1488916785.4638841152,1488916785.4661779404,        0.7666015625,        0.0961914062,       -0.1323242188,      -74.1119384766,       -9.5520019531,      -87.9669189453
1488916785.4664609432,1488916785.4687500000,        0.7666015625,        0.0961914062,       -0.1323242188,      -73.4405517578,      -11.4593505859,      -92.3156738281
1488916785.4690330029,1488916785.4713249207,        0.7666015625,        0.0961914062,       -0.1323242188,      -73.4405517578,      -11.4593505859,      -92.3156738281
1488916785.4716110229,1488916785.4739379883,        0.7631835938,        0.0214843750,       -0.1191406250,      -71.2280273438,      -11.2457275391,      -96.1914062500
1488916785.4742329121,1488916785.4766519070,        0.7631835938,        0.0214843750,       -0.1191406250,      -71.2280273438,      -11.2457275391,      -96.1914062500
1488916785.4769461155,1488916785.4793589115,        0.7631835938,        0.0214843750,       -0.1191406250,      -68.9239501953,      -11.0168457031,      -98.3886718750
1488916785.4796509743,1488916785.4820640087,        0.7631835938,        0.0214843750,       -0.1284179688,      -68.9239501953,      -11.0168457031,      -98.3886718750
1488916785.4823570251,1488916785.4847810268,        0.7724609375,       -0.0283203125,       -0.1284179688,      -65.5364990234,      -11.4440917969,      -99.4720458984
1488916785.4851880074,1488916785.4876019955,        0.7724609375,       -0.0283203125,       -0.1284179688,      -65.5364990234,      -11.4440917969,      -99.4720458984
1488916785.4878931046,1488916785.4903039932,        0.7724609375,       -0.0283203125,       -0.1284179688,      -60.2874755859,      -12.1612548828,     -102.0965576172
1488916785.4905960560,1488916785.4930078983,        0.8022460938,       -0.0302734375,       -0.1806640625,      -60.2874755859,      -12.1612548828,     -102.0965576172
1488916785.4932999611,1488916785.4957199097,        0.8022460938,       -0.0302734375,       -0.1806640625,      -56.7474365234,      -12.2833251953,     -104.4769287109
1488916785.4960110188,1488916785.4984250069,        0.8022460938,       -0.0302734375,       -0.1806640625,      -56.7474365234,      -12.2833251953,     -104.4769287109
1488916785.4987161160,1488916785.5011279583,        0.8022460938,       -0.0302734375,       -0.1806640625,      -52.1240234375,      -12.2528076172,     -107.6049804688
1488916785.5014200211,1488916785.5038900375,        0.8447265625,        0.0932617188,       -0.2739257812,      -52.1240234375,      -12.2528076172,     -107.6049804688
1488916785.5041830540,1488916785.5065939426,        0.8447265625,        0.0932617188,       -0.2739257812,      -47.6379394531,      -12.5274658203,     -111.4959716797
1488916785.5068860054,1488916785.5093009472,        0.8447265625,        0.0932617188,       -0.2739257812,      -47.6379394531,      -12.5274658203,     -111.4959716797
1488916785.5095939636,1488916785.5120079517,        0.8447265625,        0.0932617188,       -0.2739257812,      -43.5638427734,      -14.3585205078,     -117.5079345703
1488916785.5123000145,1488916785.5146648884,        0.9340820312,        0.2753906250,       -0.3046875000,      -43.5638427734,      -14.3585205078,     -117.5079345703
1488916785.5149500370,1488916785.5172379017,        0.9340820312,        0.2753906250,       -0.3046875000,      -41.8090820312,      -13.4582519531,     -123.0773925781
1488916785.5175230503,1488916785.5198190212,        0.9340820312,        0.2753906250,       -0.3046875000,      -41.8090820312,      -13.4582519531,     -123.0773925781
1488916785.5201029778,1488916785.5223960876,        0.9340820312,        0.2753906250,       -0.1596679688,      -43.5485839844,      -11.7797851562,     -125.9460449219
1488916785.5226809978,1488916785.5250999928,        0.9545898438,        0.2011718750,       -0.1596679688,      -43.5485839844,      -11.7797851562,     -125.9460449219
1488916785.5253911018,1488916785.5278069973,        0.9545898438,        0.2011718750,       -0.1596679688,      -51.3610839844,      -15.3045654297,     -125.8697509766
1488916785.5281000137,1488916785.5305140018,        0.9545898438,        0.2011718750,       -0.1596679688,      -53.7109375000,      -15.3045654297,     -125.8697509766
1488916785.5308060646,1488916785.5332241058,        0.9545898438,        0.0083007812,       -0.2094726562,      -69.3359375000,      -18.0664062500,     -124.9389648438
1488916785.5335249901,1488916785.5359389782,        0.9213867188,        0.0083007812,       -0.2094726562,      -66.9097900391,      -18.0664062500,     -124.9389648438
1488916785.5362329483,1488916785.5386459827,        0.9213867188,        0.0083007812,       -0.2094726562,      -70.8160400391,      -16.3879394531,     -126.0986328125
1488916785.5389389992,1488916785.5413548946,        0.9213867188,        0.0083007812,       -0.2094726562,      -72.5097656250,      -16.3879394531,     -126.0986328125
1488916785.5416491032,1488916785.5440790653,        0.9790039062,        0.0302734375,       -0.1191406250,      -68.6035156250,      -12.2222900391,     -133.5296630859
1488916785.5443730354,1488916785.5467910767,        0.9790039062,        0.0302734375,       -0.1191406250,      -67.4896240234,      -12.2222900391,     -133.5296630859
1488916785.5470850468,1488916785.5495018959,        0.9790039062,        0.0302734375,       -0.1191406250,      -51.8646240234,      -10.8642578125,     -143.5546875000
1488916785.5498979092,1488916785.5523130894,        0.9790039062,        0.0302734375,       -0.1191406250,      -54.2297363281,      -10.8642578125,     -143.5546875000
1488916785.5526070595,1488916785.5550670624,        0.9130859375,        0.1181640625,       -0.1835937500,      -42.6330566406,      -13.9312744141,     -151.6876220703
1488916785.5553579330,1488916785.5577719212,        0.9130859375,        0.1181640625,       -0.1835937500,      -42.6330566406,      -13.9312744141,     -151.6876220703
1488916785.5580620766,1488916785.5604751110,        0.9130859375,        0.1181640625,       -0.1835937500,      -38.7268066406,      -15.9606933594,     -158.7219238281
1488916785.5607659817,1488916785.5631771088,        0.9130859375,        0.1152343750,       -0.2226562500,      -37.4908447266,      -15.9606933594,     -158.7219238281
1488916785.5634739399,1488916785.5657660961,        0.8891601562,        0.1152343750,       -0.2226562500,      -29.6783447266,      -11.6271972656,     -162.3840332031
1488916785.5660500526,1488916785.5683379173,        0.8891601562,        0.1152343750,       -0.2226562500,      -28.1372070312,      -11.6271972656,     -162.3840332031
1488916785.5686230659,1488916785.5709090233,        0.8891601562,        0.1152343750,       -0.2226562500,      -28.1372070312,       -7.7209472656,     -167.3583984375
1488916785.5711901188,1488916785.5735070705,        0.6391601562,        0.1894531250,       -0.1757812500,      -13.5498046875,       -7.1258544922,     -167.3583984375
1488916785.5737960339,1488916785.5762040615,        0.7441406250,        0.1894531250,       -0.1757812500,      -13.5498046875,       -7.1258544922,     -165.6951904297
1488916785.5764930248,1488916785.5789039135,        0.7441406250,        0.1894531250,       -0.1757812500,      -14.5111083984,       -4.6081542969,     -165.6951904297
1488916785.5791931152,1488916785.5816059113,        0.7441406250,        0.1894531250,       -0.1757812500,      -14.5111083984,       -4.6081542969,     -157.7758789062
1488916785.5818929672,1488916785.5843219757,        0.8774414062,        0.3613281250,       -0.1708984375,      -15.7928466797,       -3.2196044922,     -157.7758789062
1488916785.5846109390,1488916785.5870239735,        0.8774414062,        0.3613281250,       -0.1708984375,      -15.7928466797,       -3.2196044922,     -174.6673583984
1488916785.5873129368,1488916785.5897269249,        0.8774414062,        0.3613281250,       -0.1708984375,      -12.6647949219,      -15.4876708984,     -174.6673583984
1488916785.5900189877,1488916785.5924320221,        0.8774414062,        0.3613281250,       -0.1708984375,      -12.6647949219,      -15.4876708984,     -190.1550292969
1488916785.5927219391,1488916785.5951490402,        0.8789062500,        0.3457031250,       -0.2890625000,      -12.6647949219,      -15.0756835938,     -190.1550292969
1488916785.5954411030,1488916785.5978538990,        0.8789062500,        0.3457031250,       -0.2890625000,      -12.6647949219,      -15.0756835938,     -175.9948730469
1488916785.5981450081,1488916785.6005589962,        0.8789062500,        0.3457031250,       -0.2890625000,      -16.1590576172,       -8.8806152344,     -175.9948730469
1488916785.6008489132,1488916785.6032619476,        0.8789062500,        0.2207031250,       -0.2163085938,      -16.1590576172,       -8.8806152344,     -156.9519042969
1488916785.6035630703,1488916785.6059799194,        0.6035156250,        0.1860351562,       -0.2163085938,      -27.0538330078,       -9.4604492188,     -156.9519042969
1488916785.6062688828,1488916785.6086869240,        0.6035156250,        0.1860351562,       -0.2163085938,      -27.0538330078,       -9.4604492188,     -145.6909179688
1488916785.6089770794,1488916785.6113879681,        0.6035156250,        0.1860351562,       -0.2163085938,      -40.4968261719,      -12.3596191406,     -145.6909179688
1488916785.6116800308,1488916785.6140758991,        0.4750976562,        0.1298828125,       -0.2167968750,      -40.4968261719,      -12.3596191406,     -134.4146728516
1488916785.6144680977,1488916785.6167600155,        0.4750976562,        0.1298828125,       -0.2167968750,      -46.2646484375,      -14.2364501953,     -134.4146728516
1488916785.6170449257,1488916785.6193308830,        0.4750976562,        0.1298828125,       -0.2167968750,      -46.2646484375,      -14.2364501953,     -118.7896728516
1488916785.6196138859,1488916785.6219050884,        0.4750976562,        0.1298828125,       -0.2167968750,      -46.1730957031,      -11.8713378906,     -119.8425292969
1488916785.6221890450,1488916785.6245529652,        0.3374023438,        0.0922851562,       -0.1894531250,      -46.1730957031,      -11.8713378906,     -119.8425292969
1488916785.6248459816,1488916785.6272609234,        0.3374023438,        0.0922851562,       -0.1894531250,      -47.5158691406,       -6.8511962891,     -101.2878417969
1488916785.6275498867,1488916785.6299610138,        0.3374023438,        0.0922851562,       -0.1894531250,      -47.5158691406,       -6.8511962891,     -101.2878417969
1488916785.6302490234,1488916785.6326630116,        0.3374023438,        0.0922851562,       -0.1894531250,      -50.2624511719,       -3.8604736328,      -81.7108154297
1488916785.6329519749,1488916785.6353809834,        0.3754882812,        0.2495117188,       -0.1391601562,      -50.2624511719,       -3.8604736328,      -81.7108154297
1488916785.6356699467,1488916785.6380870342,        0.3754882812,        0.2495117188,       -0.1391601562,      -50.1251220703,       -7.6293945312,      -71.5637207031
1488916785.6383759975,1488916785.6407890320,        0.3754882812,        0.2495117188,       -0.1391601562,      -50.1251220703,       -7.6293945312,      -71.5637207031
1488916785.6410770416,1488916785.6435010433,        0.3754882812,        0.2495117188,       -0.2832031250,      -47.2869873047,      -14.2517089844,      -56.5795898438
1488916785.6437919140,1488916785.6462070942,        0.4028320312,        0.6162109375,       -0.2832031250,      -47.2869873047,      -14.2517089844,      -56.5795898438
1488916785.6464989185,1488916785.6489100456,        0.4028320312,        0.6162109375,       -0.2832031250,      -35.5224609375,       -8.4686279297,      -24.3682861328
1488916785.6491999626,1488916785.6516160965,        0.4028320312,        0.6162109375,       -0.2832031250,      -35.5224609375,       -8.4686279297,      -24.3682861328
1488916785.6519050598,1488916785.6543281078,        0.4028320312,        0.2055664062,       -0.1972656250,      -19.0124511719,        3.0059814453,        6.6375732422
1488916785.6546120644,1488916785.6570260525,        0.4272460938,        0.2055664062,       -0.1972656250,      -19.0124511719,        3.0059814453,        6.6375732422
1488916785.6573109627,1488916785.6597189903,        0.4272460938,        0.2055664062,       -0.1972656250,       -6.1645507812,        9.8419189453,       27.2827148438
1488916785.6600050926,1488916785.6624140739,        0.4272460938,        0.2055664062,       -0.1972656250,       -6.1645507812,        9.8419189453,       27.2827148438
1488916785.6626989841,1488916785.6650381088,        0.3745117188,        0.0400390625,       -0.0888671875,        6.9427490234,       16.4489746094,       40.0543212891
1488916785.6653189659,1488916785.6676089764,        0.3745117188,        0.0400390625,       -0.0888671875,        6.9427490234,       16.4489746094,       40.0543212891
1488916785.6678900719,1488916785.6701769829,        0.3745117188,        0.0400390625,       -0.0888671875,       19.3481445312,       25.2990722656,       48.0346679688
1488916785.6704609394,1488916785.6727569103,        0.3745117188,        0.0400390625,       -0.0888671875,       19.3481445312,       25.2990722656,       48.0346679688
1488916785.6730399132,1488916785.6754829884,        0.3041992188,       -0.0302734375,       -0.0283203125,       22.6135253906,       33.7829589844,       52.2155761719
1488916785.6757729053,1488916785.6781890392,        0.3041992188,       -0.0302734375,       -0.0283203125,       22.6135253906,       33.7829589844,       52.2155761719
1488916785.6785869598,1488916785.6810100079,        0.3041992188,       -0.0302734375,       -0.0283203125,        9.9792480469,       31.5856933594,       44.0826416016
1488916785.6812999249,1488916785.6837160587,        0.3041992188,       -0.0302734375,        0.0263671875,        9.9792480469,       31.5856933594,       44.0826416016
1488916785.6840040684,1488916785.6864209175,        0.3227539062,       -0.0507812500,        0.0263671875,       -4.0283203125,       23.9410400391,       33.6151123047
1488916785.6867089272,1488916785.6891279221,        0.3227539062,       -0.0507812500,        0.0263671875,       -4.0283203125,       23.9410400391,       33.6151123047
1488916785.6894159317,1488916785.6918270588,        0.3227539062,       -0.0507812500,        0.0263671875,      -10.7574462891,       22.9339599609,       40.7257080078
1488916785.6921200752,1488916785.6945459843,        0.1977539062,       -0.1333007812,        0.0454101562,      -10.7574462891,       22.9339599609,       40.7257080078
1488916785.6948380470,1488916785.6972489357,        0.2280273438,       -0.1333007812,        0.0454101562,      -12.0391845703,       23.0712890625,       57.6782226562
1488916785.6975400448,1488916785.6999568939,        0.2280273438,       -0.1333007812,        0.0454101562,      -12.0391845703,       23.0712890625,       57.6782226562
1488916785.7002499104,1488916785.7026619911,        0.2280273438,       -0.1333007812,        0.0454101562,       -9.2773437500,       21.5606689453,       68.6340332031
1488916785.7029519081,1488916785.7053759098,        0.1542968750,       -0.1923828125,        0.0400390625,       -9.2773437500,       21.5606689453,       68.6340332031
1488916785.7056651115,1488916785.7080800533,        0.1542968750,       -0.1923828125,        0.0400390625,       -2.5177001953,       19.0734863281,       75.6835937500
1488916785.7083690166,1488916785.7107799053,        0.1542968750,       -0.1923828125,        0.0400390625,       -2.5177001953,       19.0734863281,       75.6835937500
1488916785.7110679150,1488916785.7134890556,        0.1542968750,       -0.1923828125,        0.0400390625,        6.8969726562,       16.9067382812,       82.3974609375
1488916785.7137720585,1488916785.7160620689,        0.1997070312,       -0.1728515625,        0.0112304688,        6.8969726562,       16.9067382812,       82.3974609375
1488916785.7163441181,1488916785.7186329365,        0.1997070312,       -0.1728515625,        0.0112304688,       15.8233642578,       16.4642333984,       90.1947021484
1488916785.7189168930,1488916785.7212100029,        0.1997070312,       -0.1728515625,        0.0112304688,       15.8233642578,       16.4642333984,       90.1947021484
1488916785.7214930058,1488916785.7238490582,        0.1997070312,       -0.1728515625,        0.0112304688,       20.7977294922,       16.4031982422,       99.4262695312
1488916785.7241399288,1488916785.7265579700,        0.2431640625,       -0.1108398438,       -0.0087890625,       20.7977294922,       16.4031982422,       99.4262695312
1488916785.7268509865,1488916785.7292690277,        0.2431640625,       -0.1108398438,       -0.0087890625,       24.9176025391,       15.9912109375,      107.8186035156
1488916785.7295660973,1488916785.7319788933,        0.2431640625,       -0.1108398438,       -0.0087890625,       24.9176025391,       15.9912109375,      107.8186035156
1488916785.7322740555,1488916785.7346930504,        0.2431640625,       -0.0556640625,       -0.0263671875,       27.4353027344,       16.2353515625,      117.3400878906
1488916785.7349839211,1488916785.7373960018,        0.2685546875,       -0.0556640625,       -0.0263671875,       27.4353027344,       16.2353515625,      117.3400878906
1488916785.7376880646,1488916785.7401020527,        0.2685546875,       -0.0556640625,       -0.0263671875,       27.4353027344,       16.3421630859,      128.2958984375
1488916785.7403929234,1488916785.7428119183,        0.2685546875,       -0.0556640625,       -0.0263671875,       28.7933349609,       16.3421630859,      128.2958984375
1488916785.7432110310,1488916785.7456660271,        0.3520507812,       -0.0253906250,       -0.0087890625,       31.7687988281,       17.6086425781,      139.4195556641
1488916785.7459590435,1488916785.7483758926,        0.3520507812,       -0.0253906250,       -0.0087890625,       31.7687988281,       17.6086425781,      139.4195556641
1488916785.7486689091,1488916785.7510840893,        0.3520507812,       -0.0253906250,       -0.0087890625,       34.6527099609,       20.0347900391,      148.2696533203
1488916785.7513759136,1488916785.7537920475,        0.3520507812,       -0.0253906250,       -0.0087890625,       34.6527099609,       20.0347900391,      148.2696533203
1488916785.7540850639,1488916785.7565000057,        0.3823242188,       -0.0024414062,        0.0092773438,       35.6750488281,       21.9726562500,      156.9671630859
1488916785.7567939758,1488916785.7592129707,        0.3823242188,       -0.0024414062,        0.0092773438,       35.6750488281,       21.9726562500,      156.9671630859
1488916785.7595059872,1488916785.7619230747,        0.3823242188,       -0.0024414062,        0.0092773438,       35.8276367188,       23.3154296875,      166.4581298828
1488916785.7622139454,1488916785.7646169662,        0.3823242188,       -0.0024414062,        0.0244140625,       35.8276367188,       23.3154296875,      166.4581298828
1488916785.7649021149,1488916785.7671890259,        0.4497070312,        0.0083007812,        0.0244140625,       35.8276367188,       25.3295898438,      173.1414794922
1488916785.7674739361,1488916785.7697670460,        0.4497070312,        0.0083007812,        0.0244140625,       37.1398925781,       25.3295898438,      173.1414794922
1488916785.7700519562,1488916785.7723441124,        0.4497070312,        0.0083007812,        0.0244140625,       37.1398925781,       25.3295898438,      180.0994873047
1488916785.7726280689,1488916785.7750070095,        0.4497070312,       -0.0058593750,        0.0029296875,       37.3840332031,       26.8859863281,      180.0994873047
1488916785.7753019333,1488916785.7777140141,        0.5126953125,       -0.0058593750,        0.0029296875,       37.3840332031,       26.8859863281,      189.9719238281
1488916785.7780060768,1488916785.7804229259,        0.5126953125,       -0.0058593750,        0.0029296875,       37.2619628906,       26.7333984375,      189.9719238281
1488916785.7807140350,1488916785.7831289768,        0.5126953125,       -0.0058593750,        0.0029296875,       37.2619628906,       26.7333984375,      199.2034912109
1488916785.7834599018,1488916785.7858760357,        0.5605468750,       -0.0024414062,       -0.0063476562,       38.8488769531,       26.5960693359,      199.2034912109
1488916785.7861680984,1488916785.7885799408,        0.5605468750,       -0.0024414062,       -0.0063476562,       38.8488769531,       26.5960693359,      205.4901123047
1488916785.7888739109,1488916785.7912869453,        0.5605468750,       -0.0024414062,       -0.0063476562,       40.3747558594,       26.7333984375,      205.4901123047
1488916785.7915780544,1488916785.7939949036,        0.5605468750,       -0.0024414062,       -0.0063476562,       40.3747558594,       26.7333984375,      212.2192382812
1488916785.7942879200,1488916785.7967000008,        0.6303710938,        0.0151367188,        0.0048828125,       41.2139892578,       26.8402099609,      212.2192382812
1488916785.7969920635,1488916785.7994060516,        0.6303710938,        0.0151367188,        0.0048828125,       41.2139892578,       26.8402099609,      218.7957763672
1488916785.7996990681,1488916785.8021109104,        0.6303710938,        0.0151367188,        0.0048828125,       40.8477783203,       27.4963378906,      218.7957763672
1488916785.8024020195,1488916785.8048589230,        0.6303710938,        0.0151367188,        0.0048828125,       40.8477783203,       27.4963378906,      224.0142822266
1488916785.8051519394,1488916785.8075718880,        0.6621093750,        0.0600585938,        0.0048828125,       42.3126220703,       28.3203125000,      224.0142822266
1488916785.8079710007,1488916785.8103890419,        0.6621093750,        0.0600585938,        0.0048828125,       42.3126220703,       28.3203125000,      229.0039062500
1488916785.8106811047,1488916785.8130910397,        0.6621093750,        0.0600585938,        0.0048828125,       43.1823730469,       28.7628173828,      229.0039062500
1488916785.8133840561,1488916785.8156759739,        0.6621093750,        0.0717773438,       -0.0166015625,       43.1823730469,       28.7628173828,      234.1918945312
1488916785.8159608841,1488916785.8182439804,        0.6987304688,        0.0717773438,       -0.0166015625,       43.0450439453,       29.0679931641,      234.1918945312
1488916785.8185279369,1488916785.8208160400,        0.6987304688,        0.0717773438,       -0.0166015625,       43.0450439453,       29.0679931641,      242.0043945312
1488916785.8211009502,1488916785.8233959675,        0.6987304688,        0.0717773438,       -0.0166015625,       43.7622070312,       29.4952392578,      238.7237548828
1488916785.8237431049,1488916785.8261520863,        0.7329101562,        0.0869140625,       -0.0263671875,       43.7622070312,       29.4952392578,      242.6300048828
1488916785.8264451027,1488916785.8288629055,        0.7329101562,        0.0869140625,       -0.0263671875,       45.0592041016,       30.2124023438,      243.2861328125
1488916785.8291559219,1488916785.8315699100,        0.7329101562,        0.0869140625,       -0.0263671875,       45.0592041016,       30.2124023438,      243.2861328125
1488916785.8318629265,1488916785.8342909813,        0.7329101562,        0.0869140625,       -0.0263671875,       46.8750000000,       30.6854248047,      246.6888427734
1488916785.8345820904,1488916785.8369989395,        0.7666015625,        0.0947265625,       -0.0336914062,       46.8750000000,       30.6854248047,      246.6888427734
1488916785.8372919559,1488916785.8397090435,        0.7666015625,        0.0947265625,       -0.0336914062,       48.1109619141,       31.6467285156,      249.1607666016
1488916785.8400011063,1488916785.8424170017,        0.7666015625,        0.0947265625,       -0.0336914062,       48.1109619141,       31.6467285156,      249.1607666016
1488916785.8427100182,1488916785.8451321125,        0.7666015625,        0.0947265625,       -0.0336914062,       51.1932373047,       32.3333740234,      251.9836425781
1488916785.8454248905,1488916785.8478391171,        0.8164062500,        0.1157226562,       -0.0556640625,       51.1932373047,       32.3333740234,      251.9836425781
1488916785.8481299877,1488916785.8505470753,        0.8164062500,        0.1157226562,       -0.0556640625,       54.5654296875,       33.8287353516,      254.3182373047
1488916785.8508410454,1488916785.8532509804,        0.8164062500,        0.1157226562,       -0.0556640625,       54.5654296875,       33.8287353516,      254.3182373047
1488916785.8535530567,1488916785.8558459282,        0.8164062500,        0.1318359375,       -0.0815429688,       58.2733154297,       35.0494384766,      256.5917968750
1488916785.8561298847,1488916785.8584229946,        0.8715820312,        0.1318359375,       -0.0815429688,       58.2733154297,       35.0494384766,      256.5917968750
1488916785.8587069511,1488916785.8609941006,        0.8715820312,        0.1318359375,       -0.0815429688,       61.6760253906,       36.4685058594,      259.1857910156
1488916785.8612780571,1488916785.8635768890,        0.8715820312,        0.1318359375,       -0.0815429688,       61.6760253906,       36.4685058594,      259.1857910156
1488916785.8638670444,1488916785.8662679195,        0.9184570312,        0.1650390625,       -0.1230468750,       63.8275146484,       37.3535156250,      261.3220214844
1488916785.8665580750,1488916785.8689520359,        0.9184570312,        0.1650390625,       -0.1230468750,       63.8275146484,       37.3535156250,      261.3220214844
1488916785.8692419529,1488916785.8716390133,        0.9184570312,        0.1650390625,       -0.1230468750,       63.9495849609,       38.1469726562,      263.4277343750
1488916785.8720350266,1488916785.8744359016,        0.9184570312,        0.1650390625,       -0.1230468750,       63.9495849609,       38.1469726562,      263.4277343750
1488916785.8747251034,1488916785.8770959377,        0.9560546875,        0.1943359375,       -0.1313476562,       63.9801025391,       38.5894775391,      264.7552490234
1488916785.8773839474,1488916785.8797609806,        0.9560546875,        0.1943359375,       -0.1313476562,       63.9801025391,       38.5894775391,      264.7552490234
1488916785.8800470829,1488916785.8824260235,        0.9560546875,        0.1943359375,       -0.1313476562,       64.1174316406,       38.7115478516,      265.2282714844
1488916785.8827140331,1488916785.8851358891,        0.9560546875,        0.1943359375,       -0.1313476562,       64.1174316406,       38.7115478516,      265.2282714844
1488916785.8854300976,1488916785.8878450394,        1.0141601562,        0.1860351562,       -0.1513671875,       65.7348632812,       38.3911132812,      264.5568847656
1488916785.8881380558,1488916785.8905580044,        1.0141601562,        0.1860351562,       -0.1513671875,       65.7348632812,       38.3911132812,      264.5568847656
1488916785.8908491135,1488916785.8932650089,        1.0141601562,        0.1860351562,       -0.1513671875,       68.2373046875,       38.8946533203,      262.6953125000
1488916785.8935658932,1488916785.8959860802,        1.0141601562,        0.1860351562,       -0.1625976562,       68.2373046875,       38.8946533203,      262.6953125000
1488916785.8962759972,1488916785.8986918926,        1.0708007812,        0.1899414062,       -0.1625976562,       70.7092285156,       39.1845703125,      260.4217529297
1488916785.8989830017,1488916785.9013969898,        1.0708007812,        0.1899414062,       -0.1625976562,       70.7092285156,       39.1845703125,      260.4217529297
1488916785.9016880989,1488916785.9040861130,        1.0708007812,        0.1899414062,       -0.1625976562,       71.9757080078,       39.3981933594,      258.1024169922
1488916785.9043700695,1488916785.9066610336,        1.1010742188,        0.2138671875,       -0.1694335938,       71.9757080078,       39.3981933594,      258.1024169922
1488916785.9069449902,1488916785.9092330933,        1.1010742188,        0.2138671875,       -0.1694335938,       72.7691650391,       40.2679443359,      256.0272216797
1488916785.9095160961,1488916785.9118070602,        1.1010742188,        0.2138671875,       -0.1694335938,       72.7691650391,       40.2679443359,      256.0272216797
1488916785.9120891094,1488916785.9145340919,        1.1010742188,        0.2138671875,       -0.1694335938,       73.4100341797,       40.9088134766,      254.5623779297
1488916785.9148249626,1488916785.9172399044,        1.1318359375,        0.2431640625,       -0.1923828125,       73.4100341797,       40.9088134766,      254.5623779297
1488916785.9175319672,1488916785.9199440479,        1.1318359375,        0.2431640625,       -0.1923828125,       72.4182128906,       41.1071777344,      253.0822753906
1488916785.9202339649,1488916785.9226419926,        1.1318359375,        0.2431640625,       -0.1923828125,       72.4182128906,       41.1071777344,      253.0822753906
1488916785.9229331017,1488916785.9253630638,        1.1318359375,        0.2431640625,       -0.1923828125,       70.6329345703,       41.3818359375,      251.0070800781
1488916785.9256529808,1488916785.9280750751,        1.1611328125,        0.2797851562,       -0.2041015625,       70.6329345703,       41.3818359375,      251.0070800781
1488916785.9283640385,1488916785.9307789803,        1.1611328125,        0.2797851562,       -0.2041015625,       67.2912597656,       41.8090820312,      249.2980957031
1488916785.9310710430,1488916785.9334969521,        1.1611328125,        0.2797851562,       -0.2041015625,       67.2912597656,       41.8090820312,      249.2980957031
1488916785.9337890148,1488916785.9362061024,        1.1611328125,        0.2797851562,       -0.2055664062,       61.9659423828,       42.4041748047,      247.6043701172
1488916785.9366109371,1488916785.9390249252,        1.1791992188,        0.3095703125,       -0.2055664062,       61.9659423828,       42.4041748047,      247.6043701172
1488916785.9393138885,1488916785.9417250156,        1.1791992188,        0.3095703125,       -0.2055664062,       56.2286376953,       43.0755615234,      246.0632324219
1488916785.9420158863,1488916785.9444839954,        1.1791992188,        0.3095703125,       -0.2055664062,       56.2286376953,       43.0755615234,      246.0632324219
1488916785.9447770119,1488916785.9471900463,        1.2016601562,        0.3198242188,       -0.2104492188,       50.1861572266,       43.0603027344,      244.6441650391
1488916785.9474809170,1488916785.9498999119,        1.2016601562,        0.3198242188,       -0.2104492188,       50.1861572266,       43.0603027344,      244.6441650391
1488916785.9501910210,1488916785.9526081085,        1.2016601562,        0.3198242188,       -0.2104492188,       43.5485839844,       43.1671142578,      242.7062988281
1488916785.9528980255,1488916785.9552280903,        1.2016601562,        0.3198242188,       -0.2104492188,       43.5485839844,       43.1671142578,      242.7062988281
1488916785.9555120468,1488916785.9578039646,        1.2285156250,        0.3291015625,       -0.2377929688,       37.4145507812,       42.9534912109,      240.0360107422
1488916785.9580891132,1488916785.9603819847,        1.2285156250,        0.3291015625,       -0.2377929688,       37.4145507812,       42.9534912109,      240.0360107422
1488916785.9606649876,1488916785.9629580975,        1.2285156250,        0.3291015625,       -0.2377929688,       37.4145507812,       42.9077148438,      236.3433837891
1488916785.9632420540,1488916785.9656779766,        1.2285156250,        0.3291015625,       -0.2377929688,       32.8063964844,       42.9077148438,      236.3433837891
1488916785.9659678936,1488916785.9683680534,        1.2172851562,        0.3623046875,       -0.2768554688,       32.8063964844,       42.9077148438,      233.2000732422
1488916785.9686560631,1488916785.9710519314,        1.2172851562,        0.3623046875,       -0.2768554688,       28.8848876953,       42.2058105469,      233.2000732422
1488916785.9713399410,1488916785.9737460613,        1.2172851562,        0.3623046875,       -0.2768554688,       28.8848876953,       42.2058105469,      228.7292480469
1488916785.9740340710,1488916785.9764089584,        1.2172851562,        0.3623046875,       -0.3168945312,       25.2532958984,       40.1916503906,      228.7292480469
1488916785.9766969681,1488916785.9790771008,        1.1215820312,        0.4326171875,       -0.3168945312,       25.2532958984,       36.2854003906,      220.9472656250
1488916785.9793670177,1488916785.9817481041,        1.1215820312,        0.4326171875,       -0.3168945312,       19.5770263672,       37.1398925781,      220.9472656250
1488916785.9820339680,1488916785.9845139980,        1.1215820312,        0.4326171875,       -0.3168945312,       19.5770263672,       33.2336425781,      212.3565673828
1488916785.9848051071,1488916785.9872159958,        0.9965820312,        0.4990234375,       -0.3471679688,       10.6201171875,       34.0423583984,      212.3565673828
1488916785.9875090122,1488916785.9899230003,        0.9614257812,        0.4990234375,       -0.3471679688,       10.6201171875,       34.0423583984,      202.7587890625
1488916785.9902150631,1488916785.9926280975,        0.9614257812,        0.4990234375,       -0.3471679688,       -0.0152587891,       29.9682617188,      202.7587890625
1488916785.9929180145,1488916785.9953420162,        0.9614257812,        0.4990234375,       -0.3471679688,       -0.0152587891,       29.9682617188,      194.2901611328
1488916785.9956309795,1488916785.9980430603,        0.8950195312,        0.5014648438,       -0.3359375000,      -10.2691650391,       24.9938964844,      194.2901611328
1488916785.9983348846,1488916786.0007491112,        0.8950195312,        0.5014648438,       -0.3359375000,      -10.2691650391,       24.9938964844,      186.2030029297
1488916786.0011548996,1488916786.0035750866,        0.8950195312,        0.5014648438,       -0.3359375000,      -20.2178955078,       20.9960937500,      186.2030029297
1488916786.0038590431,1488916786.0061490536,        0.8950195312,        0.5014648438,       -0.3359375000,      -20.2178955078,       20.9960937500,      178.3752441406
1488916786.0064330101,1488916786.0087230206,        0.8496093750,        0.5004882812,       -0.2495117188,      -27.3895263672,       16.7083740234,      178.3752441406
1488916786.0090088844,1488916786.0112938881,        0.8496093750,        0.5004882812,       -0.2495117188,      -27.3895263672,       16.7083740234,      170.5627441406
1488916786.0115780830,1488916786.0139110088,        0.8496093750,        0.5004882812,       -0.2495117188,      -34.0270996094,       15.4266357422,      169.1741943359
1488916786.0142021179,1488916786.0166120529,        0.8496093750,        0.5004882812,       -0.2495117188,      -34.0270996094,       15.4266357422,      169.1741943359
1488916786.0169050694,1488916786.0193181038,        0.8359375000,        0.5644531250,       -0.1357421875,      -41.2750244141,       16.6168212891,      159.8663330078
1488916786.0196099281,1488916786.0220279694,        0.8359375000,        0.5644531250,       -0.1357421875,      -41.2750244141,       16.6168212891,      159.8663330078
1488916786.0223190784,1488916786.0247490406,        0.8359375000,        0.5644531250,       -0.1357421875,      -43.7927246094,       17.0745849609,      148.4680175781
1488916786.0250411034,1488916786.0274510384,        0.8359375000,        0.6254882812,       -0.0991210938,      -43.7927246094,       17.0745849609,      148.4680175781
1488916786.0277440548,1488916786.0301630497,        0.7724609375,        0.6254882812,       -0.0991210938,      -41.2445068359,       16.2048339844,      134.3536376953
1488916786.0304560661,1488916786.0328669548,        0.7724609375,        0.6254882812,       -0.0991210938,      -41.2445068359,       16.2048339844,      134.3536376953
1488916786.0331599712,1488916786.0355839729,        0.7724609375,        0.6254882812,       -0.0991210938,      -35.7055664062,       15.6250000000,      116.2567138672
1488916786.0358738899,1488916786.0382919312,        0.7065429688,        0.7285156250,       -0.1464843750,      -35.7055664062,       15.6250000000,      116.2567138672
1488916786.0385808945,1488916786.0409960747,        0.7065429688,        0.7285156250,       -0.1464843750,      -29.1137695312,       15.1672363281,       95.8099365234
1488916786.0412869453,1488916786.0437159538,        0.7065429688,        0.7285156250,       -0.1464843750,      -29.1137695312,       15.1672363281,       95.8099365234
1488916786.0440070629,1488916786.0464200974,        0.7065429688,        0.7285156250,       -0.1464843750,      -23.8342285156,       13.7176513672,       73.8983154297
1488916786.0467109680,1488916786.0491220951,        0.6992187500,        0.8125000000,       -0.1796875000,      -23.8342285156,       13.7176513672,       73.8983154297
1488916786.0494139194,1488916786.0518279076,        0.6992187500,        0.8125000000,       -0.1796875000,      -21.2860107422,       12.1307373047,       53.6651611328
1488916786.0521190166,1488916786.0544939041,        0.6992187500,        0.8125000000,       -0.1796875000,      -21.2860107422,       12.1307373047,       53.6651611328
1488916786.0547790527,1488916786.0570659637,        0.6992187500,        0.8125000000,       -0.1967773438,      -20.4620361328,       10.0097656250,       34.2712402344
1488916786.0573511124,1488916786.0596380234,        0.6723632812,        0.7866210938,       -0.1967773438,      -20.4620361328,       10.0097656250,       34.2712402344
1488916786.0599219799,1488916786.0622119904,        0.6723632812,        0.7866210938,       -0.1967773438,      -20.8892822266,        6.5155029297,       14.5874023438
1488916786.0624918938,1488916786.0648970604,        0.6723632812,        0.7866210938,       -0.1967773438,      -20.8892822266,        6.5155029297,       14.5874023438
1488916786.0652909279,1488916786.0676989555,        0.6723632812,        0.6474609375,       -0.2045898438,      -20.2026367188,        2.4871826172,       -2.9602050781
1488916786.0679841042,1488916786.0704019070,        0.5893554688,        0.6474609375,       -0.2045898438,      -20.2026367188,        2.4871826172,       -2.9602050781
1488916786.0706849098,1488916786.0731010437,        0.5893554688,        0.6474609375,       -0.2045898438,      -17.9290771484,       -1.2207031250,      -18.6462402344
1488916786.0733919144,1488916786.0758070946,        0.5893554688,        0.6474609375,       -0.2045898438,      -17.9290771484,       -1.2207031250,      -18.6462402344
1488916786.0760951042,1488916786.0785079002,        0.5874023438,        0.4965820312,       -0.2104492188,      -14.6026611328,       -5.2337646484,      -32.5164794922
1488916786.0787959099,1488916786.0812079906,        0.5874023438,        0.4965820312,       -0.2104492188,      -14.6026611328,       -5.2337646484,      -32.5164794922
1488916786.0814940929,1488916786.0839180946,        0.5874023438,        0.4965820312,       -0.2104492188,      -10.4370117188,       -8.7738037109,      -44.6472167969
1488916786.0842070580,1488916786.0866219997,        0.5874023438,        0.4965820312,       -0.2104492188,      -10.4370117188,       -8.7738037109,      -44.6472167969
1488916786.0869119167,1488916786.0893220901,        0.6147460938,        0.4262695312,       -0.1948242188,       -4.9896240234,      -10.1776123047,      -54.0924072266
1488916786.0896089077,1488916786.0920219421,        0.6147460938,        0.4262695312,       -0.1948242188,       -4.9896240234,      -10.1776123047,      -54.0924072266
1488916786.0923089981,1488916786.0947339535,        0.6147460938,        0.4262695312,       -0.1948242188,        0.7476806641,      -10.4522705078,      -61.3861083984
1488916786.0950219631,1488916786.0974340439,        0.6147460938,        0.4262695312,       -0.1542968750,        0.7476806641,      -10.4522705078,      -61.3861083984
1488916786.0977210999,1488916786.1001379490,        0.6176757812,        0.3852539062,       -0.1542968750,        7.3852539062,      -10.7116699219,      -67.1691894531
1488916786.1004281044,1488916786.1028409004,        0.6176757812,        0.3852539062,       -0.1542968750,        7.3852539062,      -10.7116699219,      -67.1691894531
1488916786.1031289101,1488916786.1054530144,        0.6176757812,        0.3852539062,       -0.1542968750,       13.7786865234,      -10.9863281250,      -70.5718994141
1488916786.1057379246,1488916786.1080329418,        0.6176757812,        0.2900390625,       -0.1591796875,       13.7786865234,      -10.9863281250,      -70.5718994141
1488916786.1083168983,1488916786.1106009483,        0.6030273438,        0.2900390625,       -0.1591796875,       21.4080810547,      -12.0849609375,      -73.1658935547
1488916786.1108849049,1488916786.1131720543,        0.6030273438,        0.2900390625,       -0.1591796875,       21.4080810547,      -12.0849609375,      -73.1658935547
1488916786.1134870052,1488916786.1159000397,        0.6030273438,        0.2900390625,       -0.1591796875,       29.6478271484,      -12.5122070312,      -75.8056640625
1488916786.1161909103,1488916786.1186039448,        0.6132812500,        0.1928710938,       -0.1562500000,       29.6478271484,      -12.5122070312,      -75.8056640625
1488916786.1188950539,1488916786.1213099957,        0.6132812500,        0.1928710938,       -0.1562500000,       39.5812988281,      -13.6566162109,      -78.3233642578
1488916786.1216020584,1488916786.1240630150,        0.6132812500,        0.1928710938,       -0.1562500000,       39.5812988281,      -13.6566162109,      -78.3233642578
1488916786.1243550777,1488916786.1267740726,        0.6132812500,        0.1928710938,       -0.1562500000,       48.8739013672,      -15.2282714844,      -80.7647705078
1488916786.1270658970,1488916786.1294789314,        0.5986328125,        0.1977539062,       -0.1684570312,       48.8739013672,      -15.2282714844,      -80.7647705078
1488916786.1298699379,1488916786.1322839260,        0.5986328125,        0.1977539062,       -0.1684570312,       56.8084716797,      -17.4407958984,      -83.7097167969
1488916786.1325750351,1488916786.1349918842,        0.5986328125,        0.1977539062,       -0.1684570312,       56.8084716797,      -17.4407958984,      -83.7097167969
1488916786.1352849007,1488916786.1377050877,        0.5986328125,        0.1977539062,       -0.1684570312,       62.8356933594,      -19.1955566406,      -85.9680175781
1488916786.1379959583,1488916786.1404109001,        0.5859375000,        0.2763671875,       -0.2114257812,       62.8356933594,      -19.1955566406,      -85.9680175781
1488916786.1407020092,1488916786.1431150436,        0.5859375000,        0.2763671875,       -0.2114257812,       68.4661865234,      -21.8658447266,      -87.3718261719
1488916786.1434059143,1488916786.1457459927,        0.5859375000,        0.2763671875,       -0.2114257812,       68.4661865234,      -21.8658447266,      -87.3718261719
1488916786.1460299492,1488916786.1483149529,        0.5859375000,        0.3046875000,       -0.2294921875,       73.2116699219,      -24.2309570312,      -87.9211425781
1488916786.1486001015,1488916786.1508889198,        0.5727539062,        0.3046875000,       -0.2294921875,       73.2116699219,      -24.2309570312,      -87.9211425781
1488916786.1511731148,1488916786.1535029411,        0.5727539062,        0.3046875000,       -0.2294921875,       73.2116699219,      -24.9176025391,      -86.9140625000
1488916786.1537969112,1488916786.1562080383,        0.5727539062,        0.3046875000,       -0.2294921875,       77.2247314453,      -24.9176025391,      -86.9140625000
1488916786.1564979553,1488916786.1589140892,        0.8227539062,       -0.0888671875,       -0.3291015625,       77.2247314453,      -16.2506103516,      -68.0694580078
1488916786.1592059135,1488916786.1616160870,        0.8354492188,       -0.0888671875,       -0.3291015625,       76.3702392578,      -16.2506103516,      -68.0694580078
1488916786.1619100571,1488916786.1643331051,        0.8354492188,       -0.0888671875,       -0.3291015625,       76.3702392578,      -14.2822265625,      -39.9169921875
1488916786.1646249294,1488916786.1670420170,        0.8354492188,       -0.0888671875,       -0.3291015625,       69.7631835938,      -14.2822265625,      -39.9169921875
1488916786.1673359871,1488916786.1697490215,        0.6586914062,       -1.0810546875,       -0.0952148438,       69.7631835938,      -18.1884765625,      -26.6876220703
1488916786.1700398922,1488916786.1724569798,        0.6586914062,       -1.0810546875,       -0.0952148438,       46.1273193359,      -16.2963867188,      -26.6876220703
1488916786.1727490425,1488916786.1751749516,        0.6586914062,       -1.0810546875,       -0.0952148438,       46.1273193359,       -8.4838867188,      -43.1976318359
1488916786.1754629612,1488916786.1778750420,        0.6586914062,       -1.0810546875,       -0.0952148438,       37.2009277344,       -9.7503662109,      -43.1976318359
1488916786.1781630516,1488916786.1805748940,        0.7246093750,       -0.9047851562,        0.3559570312,       37.2009277344,       -5.8441162109,      -75.4089355469
1488916786.1808669567,1488916786.1832809448,        0.7246093750,       -0.9047851562,        0.3559570312,       64.3157958984,       -6.0577392578,      -75.4089355469
1488916786.1835780144,1488916786.1859939098,        0.7246093750,       -0.9047851562,        0.3559570312,       64.3157958984,       -9.9639892578,     -101.3946533203
1488916786.1862840652,1488916786.1886980534,        0.7246093750,        0.2202148438,        0.3325195312,       87.7075195312,       -8.7280273438,     -101.3946533203
1488916786.1889879704,1488916786.1913979053,        0.9843750000,        0.1918945312,        0.3325195312,       87.7075195312,      -16.5405273438,     -114.8376464844
1488916786.1916890144,1488916786.1940839291,        0.9843750000,        0.1918945312,        0.3325195312,       93.5974121094,      -16.9982910156,     -114.8376464844
1488916786.1943678856,1488916786.1966578960,        0.9843750000,        0.1918945312,        0.3325195312,       93.5974121094,      -16.9982910156,     -121.2158203125
1488916786.1970500946,1488916786.1993379593,        0.9946289062,        0.6132812500,        0.0615234375,       81.6040039062,      -27.4047851562,     -121.2158203125
1488916786.1996240616,1488916786.2019131184,        0.9946289062,        0.6132812500,        0.0615234375,       81.6040039062,      -27.4047851562,     -119.0795898438
1488916786.2021999359,1488916786.2045578957,        0.9946289062,        0.6132812500,        0.0615234375,       53.9703369141,      -28.2440185547,     -119.0795898438
1488916786.2048509121,1488916786.2072660923,        0.9946289062,        0.6132812500,        0.0615234375,       53.9703369141,      -28.2440185547,     -115.1733398438
1488916786.2075591087,1488916786.2099750042,        1.1298828125,        0.2563476562,       -0.0249023438,       30.3497314453,      -28.7628173828,     -114.3493652344
1488916786.2102661133,1488916786.2126779556,        1.1298828125,        0.2563476562,       -0.0249023438,       30.3497314453,      -28.7628173828,     -110.4431152344
1488916786.2129681110,1488916786.2153859138,        1.1298828125,        0.2563476562,       -0.0249023438,       17.6086425781,      -33.7219238281,     -111.7248535156
1488916786.2156779766,1488916786.2180929184,        1.1298828125,        0.2563476562,       -0.0249023438,       17.6086425781,      -33.7219238281,     -115.6311035156
1488916786.2183849812,1488916786.2207989693,        0.9804687500,       -0.0107421875,        0.0039062500,        4.9285888672,      -40.8630371094,     -116.2719726562
1488916786.2210888863,1488916786.2235119343,        0.9804687500,       -0.0107421875,        0.0039062500,        4.9285888672,      -40.8630371094,     -120.1782226562
1488916786.2238008976,1488916786.2262139320,        0.9804687500,       -0.0107421875,        0.0039062500,        3.0975341797,      -47.6379394531,     -119.9188232422
1488916786.2265028954,1488916786.2289140224,        0.9804687500,       -0.0107421875,       -0.0932617188,        3.0975341797,      -47.6379394531,     -119.9188232422
1488916786.2292060852,1488916786.2316200733,        0.7812500000,       -0.0073242188,       -0.0932617188,       21.4385986328,      -53.2226562500,     -115.6768798828
1488916786.2319118977,1488916786.2343370914,        0.7812500000,       -0.0073242188,       -0.0932617188,       21.4385986328,      -53.2226562500,     -115.6768798828
1488916786.2346289158,1488916786.2370419502,        0.7812500000,       -0.0073242188,       -0.0932617188,       39.8712158203,      -57.4493408203,     -111.3281250000
1488916786.2373340130,1488916786.2397520542,        0.7348632812,       -0.0659179688,       -0.1274414062,       39.8712158203,      -57.4493408203,     -111.3281250000
1488916786.2400441170,1488916786.2424530983,        0.7348632812,       -0.0659179688,       -0.1274414062,       46.0052490234,      -58.8684082031,     -111.1450195312
1488916786.2427470684,1488916786.2450881004,        0.7348632812,       -0.0659179688,       -0.1274414062,       46.0052490234,      -58.8684082031,     -111.1450195312
1488916786.2453739643,1488916786.2476589680,        0.7348632812,       -0.0659179688,       -0.1274414062,       41.5191650391,      -57.7697753906,     -110.8551025391
1488916786.2479441166,1488916786.2502338886,        0.5507812500,       -0.0361328125,       -0.0908203125,       41.5191650391,      -57.7697753906,     -110.8551025391
1488916786.2505180836,1488916786.2528059483,        0.5507812500,       -0.0361328125,       -0.0908203125,       36.5905761719,      -55.0537109375,     -104.8736572266
1488916786.2530920506,1488916786.2555119991,        0.5507812500,       -0.0361328125,       -0.0908203125,       36.5905761719,      -55.0537109375,     -104.8736572266
1488916786.2558050156,1488916786.2582199574,        0.5507812500,       -0.0361328125,       -0.0908203125,       31.2500000000,      -50.3845214844,      -99.5941162109
1488916786.2585129738,1488916786.2609250546,        0.5688476562,        0.0776367188,       -0.0898437500,       31.2500000000,      -50.3845214844,      -99.5941162109
1488916786.2613248825,1488916786.2637519836,        0.5688476562,        0.0776367188,       -0.0898437500,       26.4434814453,      -48.5534667969,      -96.7712402344
1488916786.2640440464,1488916786.2664558887,        0.5688476562,        0.0776367188,       -0.0898437500,       26.4434814453,      -48.5534667969,      -96.7712402344
1488916786.2667479515,1488916786.2691628933,        0.5688476562,        0.0776367188,       -0.3041992188,       23.2543945312,      -48.5687255859,      -91.0797119141
1488916786.2694540024,1488916786.2718660831,        0.6933593750,        0.0512695312,       -0.3041992188,       23.2543945312,      -48.5687255859,      -91.0797119141
1488916786.2721600533,1488916786.2745769024,        0.6933593750,        0.0512695312,       -0.3041992188,       22.3693847656,      -46.2493896484,      -88.7451171875
1488916786.2748699188,1488916786.2772839069,        0.6933593750,        0.0512695312,       -0.3041992188,       22.3693847656,      -46.2493896484,      -88.7451171875
1488916786.2775759697,1488916786.2799899578,        0.8183593750,        0.1000976562,       -0.4409179688,       18.5852050781,      -41.6870117188,      -87.1582031250
1488916786.2802829742,1488916786.2826929092,        0.8281250000,        0.1000976562,       -0.4409179688,       18.5852050781,      -41.6870117188,      -87.1582031250
1488916786.2829859257,1488916786.2854061127,        0.8281250000,        0.1000976562,       -0.4409179688,       14.0380859375,      -37.1398925781,      -86.2274169922
1488916786.2857000828,1488916786.2881100178,        0.8281250000,        0.1000976562,       -0.4409179688,       14.0380859375,      -37.1398925781,      -86.2274169922
1488916786.2884039879,1488916786.2908160686,        0.7963867188,        0.1669921875,       -0.2773437500,        6.3476562500,      -31.7077636719,      -82.7178955078
1488916786.2911040783,1488916786.2935309410,        0.7963867188,        0.1669921875,       -0.2773437500,        6.3476562500,      -31.7077636719,      -82.7178955078
1488916786.2938120365,1488916786.2961010933,        0.7963867188,        0.1669921875,       -0.2773437500,       -4.8370361328,      -24.1241455078,      -78.3081054688
1488916786.2963819504,1488916786.2986719608,        0.7963867188,        0.1669921875,       -0.2773437500,       -4.8370361328,      -24.1241455078,      -78.3081054688
1488916786.2989540100,1488916786.3012399673,        0.6459960938,        0.0966796875,       -0.1245117188,      -14.4653320312,      -19.9279785156,      -72.6776123047
1488916786.3015251160,1488916786.3038818836,        0.6459960938,        0.0966796875,       -0.1245117188,      -14.4653320312,      -19.9279785156,      -72.6776123047
1488916786.3041739464,1488916786.3065879345,        0.6459960938,        0.0966796875,       -0.1245117188,      -22.0947265625,      -18.3258056641,      -67.8253173828
1488916786.3068790436,1488916786.3093008995,        0.6459960938,        0.0966796875,       -0.2495117188,      -22.0947265625,      -18.3258056641,      -67.8253173828
1488916786.3095951080,1488916786.3120079041,        0.6088867188,        0.0468750000,       -0.1533203125,      -26.0620117188,      -18.9971923828,      -63.7817382812
1488916786.3122999668,1488916786.3147261143,        0.6088867188,        0.0468750000,       -0.1533203125,      -26.0620117188,      -18.9971923828,      -63.7817382812
1488916786.3150179386,1488916786.3174369335,        0.6088867188,        0.0468750000,       -0.1533203125,      -27.7709960938,      -18.1274414062,      -59.2956542969
1488916786.3177280426,1488916786.3201398849,        0.6088867188,        0.0288085938,       -0.1318359375,      -27.7709960938,      -18.1274414062,      -59.2956542969
1488916786.3204309940,1488916786.3228468895,        0.6484375000,        0.0288085938,       -0.1318359375,      -28.1829833984,      -16.2353515625,      -55.7250976562
1488916786.3231389523,1488916786.3255620003,        0.6484375000,        0.0288085938,       -0.1318359375,      -28.1829833984,      -16.2353515625,      -55.7250976562
1488916786.3259599209,1488916786.3283760548,        0.6484375000,        0.0288085938,       -0.1318359375,      -26.8554687500,      -15.4113769531,      -54.3670654297
1488916786.3286681175,1488916786.3310859203,        0.6254882812,       -0.0141601562,       -0.0737304688,      -26.8554687500,      -15.4113769531,      -54.3670654297
1488916786.3313760757,1488916786.3337941170,        0.6254882812,       -0.0141601562,       -0.0737304688,      -21.4233398438,      -15.9912109375,      -54.7485351562
1488916786.3340859413,1488916786.3364999294,        0.6254882812,       -0.0141601562,       -0.0737304688,      -21.4233398438,      -15.9912109375,      -54.7485351562
1488916786.3367919922,1488916786.3392119408,        0.6254882812,       -0.0141601562,       -0.0737304688,      -12.7563476562,      -16.1437988281,      -56.3812255859
1488916786.3395040035,1488916786.3419120312,        0.6596679688,       -0.0087890625,       -0.0668945312,      -12.7563476562,      -16.1437988281,      -56.3812255859
1488916786.3422050476,1488916786.3446190357,        0.6596679688,       -0.0087890625,       -0.0668945312,       -6.0119628906,      -17.2882080078,      -58.5174560547
1488916786.3449010849,1488916786.3471879959,        0.6596679688,       -0.0087890625,       -0.0668945312,       -6.0119628906,      -17.2882080078,      -58.5174560547
1488916786.3474700451,1488916786.3497600555,        0.6596679688,       -0.0087890625,       -0.0292968750,       -2.3651123047,      -17.8833007812,      -61.2030029297
1488916786.3500430584,1488916786.3523340225,        0.6630859375,        0.0263671875,       -0.0292968750,       -2.3651123047,      -17.8833007812,      -61.2030029297
1488916786.3526151180,1488916786.3549079895,        0.6630859375,        0.0263671875,       -0.0292968750,       -2.3651123047,      -18.9361572266,      -61.1877441406
1488916786.3551909924,1488916786.3574759960,        0.6630859375,        0.0263671875,       -0.0292968750,       -0.1831054688,      -18.9361572266,      -61.1877441406
1488916786.3577589989,1488916786.3600440025,        0.6630859375,        0.0263671875,       -0.0498046875,       -0.1831054688,      -18.9361572266,      -60.0280761719
1488916786.3603270054,1488916786.3626110554,        0.6582031250,        0.0356445312,       -0.0498046875,        1.0375976562,      -19.8974609375,      -60.0280761719
1488916786.3628940582,1488916786.3652389050,        0.6582031250,        0.0356445312,       -0.0498046875,        1.0375976562,      -19.8974609375,      -58.3190917969
1488916786.3655200005,1488916786.3678030968,        0.6582031250,        0.0356445312,       -0.0498046875,        1.4648437500,      -20.7214355469,      -58.3190917969
1488916786.3680849075,1488916786.3703680038,        0.6582031250,        0.0454101562,       -0.1123046875,        1.4648437500,      -20.7214355469,      -58.3190917969
1488916786.3706500530,1488916786.3729300499,        0.6108398438,        0.0454101562,       -0.1123046875,       -0.5187988281,      -20.8587646484,      -56.2591552734
1488916786.3732120991,1488916786.3755459785,        0.6108398438,        0.0454101562,       -0.1123046875,       -0.5187988281,      -20.8587646484,      -56.2591552734
1488916786.3758280277,1488916786.3781130314,        0.6108398438,        0.0454101562,       -0.1123046875,       -3.1433105469,      -20.0042724609,      -53.1158447266
1488916786.3783950806,1488916786.3806800842,        0.6108398438,        0.0351562500,       -0.1557617188,       -3.1433105469,      -20.0042724609,      -53.1158447266
1488916786.3809630871,1488916786.3832449913,        0.5039062500,        0.0351562500,       -0.1557617188,       -6.9122314453,      -21.0418701172,      -47.1496582031
1488916786.3835248947,1488916786.3858170509,        0.5039062500,        0.0351562500,       -0.1557617188,       -6.9122314453,      -21.0418701172,      -47.1496582031
1488916786.3860991001,1488916786.3883819580,        0.5039062500,        0.0351562500,       -0.1557617188,      -10.8489990234,      -22.0184326172,      -40.5578613281
1488916786.3887820244,1488916786.3910670280,        0.6289062500,        0.0791015625,       -0.1674804688,      -10.8489990234,      -22.0184326172,      -40.5578613281
1488916786.3913540840,1488916786.3936820030,        0.6289062500,        0.0791015625,       -0.1674804688,      -15.3045654297,      -19.8211669922,      -37.9333496094
1488916786.3939669132,1488916786.3962500095,        0.6289062500,        0.0791015625,       -0.1674804688,      -15.3045654297,      -19.8211669922,      -37.9333496094
1488916786.3965330124,1488916786.3988230228,        0.6289062500,        0.0791015625,       -0.1674804688,      -20.8587646484,      -19.0582275391,      -33.1878662109
1488916786.3991069794,1488916786.4013960361,        0.7153320312,        0.1015625000,       -0.1733398438,      -20.8587646484,      -19.0582275391,      -33.1878662109
1488916786.4016799927,1488916786.4039978981,        0.7153320312,        0.1015625000,       -0.1733398438,      -20.8587646484,      -14.5874023438,      -30.2886962891
1488916786.4042899609,1488916786.4067070484,        0.7153320312,        0.1015625000,       -0.1733398438,      -23.1475830078,      -14.5874023438,      -30.2886962891
1488916786.4069991112,1488916786.4094069004,        0.7153320312,        0.1015625000,       -0.1733398438,      -23.1475830078,      -12.1154785156,      -29.4189453125
1488916786.4097011089,1488916786.4121110439,        0.6484375000,        0.0800781250,       -0.1665039062,      -25.3753662109,      -12.1154785156,      -29.4189453125
1488916786.4124040604,1488916786.4148600101,        0.6484375000,        0.0800781250,       -0.1665039062,      -29.2816162109,       -9.9334716797,      -27.8167724609
1488916786.4151489735,1488916786.4175620079,        0.6484375000,        0.0800781250,       -0.1665039062,      -28.0761718750,       -9.9334716797,      -27.8167724609
1488916786.4178519249,1488916786.4202659130,        0.6484375000,        0.0800781250,       -0.1665039062,      -28.0761718750,       -8.6517333984,      -26.7791748047
1488916786.4205560684,1488916786.4229760170,        0.6162109375,        0.0395507812,       -0.1328125000,      -27.9998779297,       -8.6517333984,      -26.7791748047
1488916786.4232668877,1488916786.4256930351,        0.6162109375,        0.0395507812,       -0.1328125000,      -27.9998779297,       -8.4533691406,      -26.5502929688
1488916786.4259839058,1488916786.4284000397,        0.6162109375,        0.0395507812,       -0.1328125000,      -25.8483886719,       -8.4533691406,      -26.5502929688
1488916786.4286899567,1488916786.4310998917,        0.6162109375,        0.0058593750,       -0.1098632812,      -25.8483886719,       -9.5977783203,      -27.0538330078
1488916786.4313910007,1488916786.4338500500,        0.5678710938,        0.0058593750,       -0.1098632812,      -22.6593017578,       -9.5977783203,      -27.0538330078
1488916786.4341399670,1488916786.4365570545,        0.5678710938,        0.0058593750,       -0.1098632812,      -22.6593017578,       -9.9639892578,      -27.4505615234
1488916786.4368479252,1488916786.4392600060,        0.5678710938,        0.0058593750,       -0.1098632812,      -18.4783935547,       -9.9639892578,      -27.4505615234
1488916786.4395520687,1488916786.4419670105,        0.6777343750,        0.0312500000,       -0.0849609375,      -18.4783935547,       -8.6212158203,      -29.9224853516
1488916786.4422569275,1488916786.4446189404,        0.6777343750,        0.0312500000,       -0.0849609375,      -14.1906738281,       -8.6212158203,      -29.9224853516
1488916786.4449009895,1488916786.4471890926,        0.6777343750,        0.0312500000,       -0.0849609375,      -14.1906738281,       -8.6212158203,      -31.2957763672
1488916786.4474699497,1488916786.4497621059,        0.6777343750,        0.0312500000,       -0.0849609375,      -12.2375488281,       -8.7432861328,      -31.2957763672
1488916786.4500439167,1488916786.4523320198,        0.5854492188,        0.0151367188,       -0.1015625000,      -12.2375488281,       -8.7432861328,      -30.3192138672
1488916786.4527239799,1488916786.4551119804,        0.5854492188,        0.0151367188,       -0.1015625000,      -10.8337402344,       -9.0026855469,      -30.3192138672
1488916786.4554018974,1488916786.4578170776,        0.5854492188,        0.0151367188,       -0.1015625000,      -10.8337402344,       -9.0026855469,      -29.3426513672
1488916786.4581069946,1488916786.4605219364,        0.5854492188,        0.0151367188,       -0.1015625000,       -8.5906982422,       -9.5825195312,      -29.3426513672
1488916786.4608089924,1488916786.4632179737,        0.6943359375,        0.0834960938,       -0.0878906250,       -8.5906982422,       -9.5825195312,      -31.4331054688
1488916786.4635128975,1488916786.4659280777,        0.6943359375,        0.0834960938,       -0.0878906250,       -7.1868896484,       -7.9803466797,      -31.4331054688
1488916786.4662129879,1488916786.4686319828,        0.6943359375,        0.0834960938,       -0.0878906250,       -7.1868896484,       -7.9803466797,      -32.2265625000
1488916786.4689159393,1488916786.4713408947,        0.6943359375,        0.0483398438,       -0.1088867188,       -8.3770751953,       -7.5836181641,      -32.2265625000
1488916786.4716250896,1488916786.4740810394,        0.5981445312,        0.0483398438,       -0.1088867188,       -8.3770751953,       -7.5836181641,      -31.3568115234
1488916786.4743669033,1488916786.4767839909,        0.5981445312,        0.0483398438,       -0.1088867188,       -9.7045898438,       -9.0179443359,      -31.3568115234
1488916786.4770710468,1488916786.4794869423,        0.5981445312,        0.0483398438,       -0.1088867188,       -9.7045898438,       -9.0179443359,      -27.4505615234
1488916786.4797749519,1488916786.4821870327,        0.6127929688,        0.0307617188,       -0.1196289062,      -11.4593505859,      -10.0708007812,      -28.7322998047
1488916786.4824790955,1488916786.4849069118,        0.6127929688,        0.0307617188,       -0.1196289062,      -11.4593505859,      -10.0708007812,      -28.7322998047
1488916786.4852020741,1488916786.4876210690,        0.6127929688,        0.0307617188,       -0.1196289062,      -11.7950439453,       -9.8114013672,      -27.4505615234
1488916786.4879128933,1488916786.4903268814,        0.6127929688,        0.0307617188,       -0.1196289062,      -11.7950439453,       -9.8114013672,      -27.4505615234
1488916786.4906170368,1488916786.4930350780,        0.6406250000,        0.0737304688,       -0.1259765625,      -13.4277343750,       -9.3688964844,      -28.5644531250
1488916786.4933240414,1488916786.4956359863,        0.6406250000,        0.0737304688,       -0.1259765625,      -13.4277343750,       -9.3688964844,      -28.5644531250
1488916786.4959170818,1488916786.4982080460,        0.6406250000,        0.0737304688,       -0.1259765625,      -16.2658691406,       -9.1247558594,      -27.7557373047
1488916786.4984900951,1488916786.5007801056,        0.6406250000,        0.0737304688,       -0.1259765625,      -16.2658691406,       -9.1247558594,      -27.7557373047
1488916786.5010609627,1488916786.5033469200,        0.6352539062,        0.0791015625,       -0.1279296875,      -16.4947509766,       -8.7585449219,      -28.9611816406
1488916786.5036880970,1488916786.5059781075,        0.6352539062,        0.0791015625,       -0.1279296875,      -16.4947509766,       -8.7585449219,      -28.9611816406
1488916786.5062599182,1488916786.5085508823,        0.6352539062,        0.0791015625,       -0.1279296875,      -17.4713134766,       -9.0179443359,      -29.6783447266
1488916786.5088329315,1488916786.5111238956,        0.6352539062,        0.0791015625,       -0.1181640625,      -17.4713134766,       -9.0179443359,      -29.6783447266
1488916786.5114068985,1488916786.5137159824,        0.6220703125,        0.0532226562,       -0.1181640625,      -16.3269042969,       -9.0942382812,      -30.2734375000
1488916786.5139989853,1488916786.5163700581,        0.6220703125,        0.0532226562,       -0.1181640625,      -16.3269042969,       -9.0942382812,      -30.2734375000
1488916786.5167589188,1488916786.5190489292,        0.6220703125,        0.0532226562,       -0.1181640625,      -13.5345458984,       -9.5520019531,      -32.0434570312
1488916786.5193319321,1488916786.5216259956,        0.6220703125,        0.0605468750,       -0.1245117188,      -13.5345458984,       -9.5520019531,      -32.0434570312
1488916786.5219089985,1488916786.5243868828,        0.6259765625,        0.0605468750,       -0.1245117188,      -12.5274658203,      -10.2081298828,      -32.9742431641
1488916786.5246729851,1488916786.5269598961,        0.6259765625,        0.0605468750,       -0.1245117188,      -12.5274658203,      -10.2081298828,      -32.9742431641
1488916786.5272450447,1488916786.5296709538,        0.6259765625,        0.0605468750,       -0.1245117188,      -12.9241943359,      -10.2996826172,      -33.3557128906
1488916786.5299570560,1488916786.5322430134,        0.6337890625,        0.0405273438,       -0.1259765625,      -12.9241943359,      -10.2996826172,      -33.3557128906
1488916786.5335690975,1488916786.5358579159,        0.6337890625,        0.0405273438,       -0.1259765625,      -13.1378173828,      -10.5743408203,      -34.3933105469
1488916786.5361459255,1488916786.5384299755,        0.6337890625,        0.0405273438,       -0.1259765625,      -13.1378173828,      -10.5743408203,      -34.3933105469
1488916786.5387139320,1488916786.5410048962,        0.6337890625,        0.0405273438,       -0.1259765625,      -11.0778808594,      -10.8337402344,      -36.5753173828
1488916786.5412869453,1488916786.5435819626,        0.6372070312,        0.0478515625,       -0.1088867188,      -11.0778808594,      -10.8337402344,      -36.5753173828
1488916786.5438671112,1488916786.5461521149,        0.6372070312,        0.0478515625,       -0.1088867188,       -9.8114013672,      -11.3983154297,      -38.4826660156
1488916786.5464360714,1488916786.5487239361,        0.6372070312,        0.0478515625,       -0.1088867188,       -9.8114013672,      -11.3983154297,      -38.4826660156
1488916786.5490078926,1488916786.5512940884,        0.6372070312,        0.0478515625,       -0.1088867188,      -11.0168457031,      -11.7797851562,      -39.5965576172
1488916786.5515799522,1488916786.5539190769,        0.6313476562,        0.0322265625,       -0.1186523438,      -11.0168457031,      -11.7797851562,      -39.5965576172
1488916786.5542030334,1488916786.5564920902,        0.6313476562,        0.0322265625,       -0.1186523438,      -11.0168457031,      -12.7410888672,      -41.3970947266
1488916786.5567760468,1488916786.5590560436,        0.6313476562,        0.0322265625,       -0.1186523438,      -11.5509033203,      -12.7410888672,      -41.3970947266
1488916786.5593400002,1488916786.5616300106,        0.6313476562,        0.0322265625,       -0.1308593750,      -11.5509033203,      -12.7410888672,      -42.7856445312
1488916786.5619149208,1488916786.5642590523,        0.6655273438,        0.0498046875,       -0.1308593750,      -12.0697021484,      -13.5650634766,      -42.7856445312
1488916786.5645439625,1488916786.5668311119,        0.6655273438,        0.0498046875,       -0.1308593750,      -12.0697021484,      -13.5650634766,      -43.8079833984
1488916786.5671150684,1488916786.5694079399,        0.6655273438,        0.0498046875,       -0.1308593750,      -13.0310058594,      -14.0838623047,      -43.8079833984
1488916786.5696930885,1488916786.5719840527,        0.6655273438,        0.0498046875,       -0.1225585938,      -13.0310058594,      -14.0838623047,      -43.8079833984
1488916786.5722689629,1488916786.5746109486,        0.6601562500,        0.0751953125,       -0.1225585938,      -13.6871337891,      -13.9923095703,      -45.8831787109
1488916786.5748970509,1488916786.5771870613,        0.6601562500,        0.0751953125,       -0.1225585938,      -13.6871337891,      -13.9923095703,      -45.8831787109
1488916786.5774710178,1488916786.5797619820,        0.6601562500,        0.0751953125,       -0.1225585938,      -14.2364501953,      -14.1906738281,      -47.2259521484
1488916786.5801570415,1488916786.5824511051,        0.6601562500,        0.0825195312,       -0.1123046875,      -14.2364501953,      -14.1906738281,      -47.2259521484
1488916786.5827350616,1488916786.5851171017,        0.6684570312,        0.0825195312,       -0.1123046875,      -12.4206542969,      -14.7552490234,      -49.8199462891
1488916786.5854029655,1488916786.5876920223,        0.6684570312,        0.0825195312,       -0.1123046875,      -12.4206542969,      -14.7552490234,      -49.8199462891
1488916786.5879759789,1488916786.5902669430,        0.6684570312,        0.0825195312,       -0.1123046875,      -11.5509033203,      -14.9078369141,      -52.0324707031
1488916786.5905530453,1488916786.5928440094,        0.6606445312,        0.0795898438,       -0.1240234375,      -11.5509033203,      -14.9078369141,      -52.0324707031
1488916786.5931270123,1488916786.5956230164,        0.6606445312,        0.0795898438,       -0.1240234375,       -9.8571777344,      -14.7857666016,      -54.9774169922
1488916786.5959150791,1488916786.5983340740,        0.6606445312,        0.0795898438,       -0.1240234375,       -9.8571777344,      -14.7857666016,      -54.9774169922
1488916786.5986230373,1488916786.6010360718,        0.6606445312,        0.0795898438,       -0.1240234375,       -8.6059570312,      -14.4500732422,      -57.7392578125
1488916786.6013259888,1488916786.6037518978,        0.6606445312,        0.0878906250,       -0.1440429688,       -8.6059570312,      -14.4500732422,      -57.7392578125
1488916786.6040410995,1488916786.6064519882,        0.6606445312,        0.0878906250,       -0.1440429688,       -9.1705322266,      -14.6484375000,      -59.8602294922
1488916786.6067409515,1488916786.6091539860,        0.6606445312,        0.0878906250,       -0.1440429688,       -9.1705322266,      -14.6484375000,      -59.8602294922
1488916786.6094419956,1488916786.6118600368,        0.6606445312,        0.0878906250,       -0.1440429688,       -9.3383789062,      -14.7399902344,      -61.8286132812
1488916786.6121490002,1488916786.6145761013,        0.6577148438,        0.0913085938,       -0.1303710938,       -9.3383789062,      -14.7399902344,      -61.8286132812
1488916786.6148679256,1488916786.6172809601,        0.6577148438,        0.0913085938,       -0.1303710938,       -9.3994140625,      -14.6484375000,      -63.0798339844
1488916786.6175689697,1488916786.6199860573,        0.6577148438,        0.0913085938,       -0.1303710938,       -9.3994140625,      -14.6484375000,      -63.0798339844
1488916786.6202759743,1488916786.6226849556,        0.6577148438,        0.1406250000,       -0.1245117188,       -9.8266601562,      -14.7094726562,      -63.8122558594
1488916786.6229739189,1488916786.6252961159,        0.6630859375,        0.1406250000,       -0.1245117188,       -9.8266601562,      -14.7094726562,      -63.8122558594
1488916786.6255791187,1488916786.6278669834,        0.6630859375,        0.1406250000,       -0.1245117188,      -10.9710693359,      -15.6555175781,      -64.4683837891
1488916786.6281518936,1488916786.6304399967,        0.6630859375,        0.1406250000,       -0.1245117188,      -10.9710693359,      -15.6555175781,      -64.4683837891
1488916786.6307229996,1488916786.6330130100,        0.6630859375,        0.1523437500,       -0.1425781250,      -13.1072998047,      -16.1895751953,      -65.4907226562
1488916786.6332991123,1488916786.6357378960,        0.6459960938,        0.1523437500,       -0.1425781250,      -13.1072998047,      -16.1895751953,      -65.4907226562
1488916786.6360299587,1488916786.6384389400,        0.6459960938,        0.1523437500,       -0.1425781250,      -14.8010253906,      -16.9982910156,      -66.3452148438
1488916786.6387310028,1488916786.6411499977,        0.6459960938,        0.1523437500,       -0.1425781250,      -14.8010253906,      -16.9982910156,      -66.3452148438
1488916786.6414411068,1488916786.6438720226,        0.6474609375,        0.1318359375,       -0.1533203125,      -14.7552490234,      -18.0511474609,      -67.4743652344
1488916786.6442730427,1488916786.6466929913,        0.6474609375,        0.1318359375,       -0.1533203125,      -14.7552490234,      -18.0511474609,      -67.4743652344
1488916786.6469850540,1488916786.6493940353,        0.6474609375,        0.1318359375,       -0.1533203125,      -15.3503417969,      -18.5546875000,      -69.1070556641
1488916786.6498188972,1488916786.6522328854,        0.6474609375,        0.1318359375,       -0.1533203125,      -15.3503417969,      -18.5546875000,      -69.1070556641
1488916786.6525230408,1488916786.6549470425,        0.6362304688,        0.1699218750,       -0.1840820312,      -17.4407958984,      -19.2108154297,      -70.1904296875
1488916786.6552379131,1488916786.6576530933,        0.6362304688,        0.1699218750,       -0.1840820312,      -17.4407958984,      -19.2108154297,      -70.1904296875
1488916786.6579439640,1488916786.6603589058,        0.6362304688,        0.1699218750,       -0.1840820312,      -19.1650390625,      -20.3552246094,      -70.0531005859
1488916786.6606531143,1488916786.6630649567,        0.6362304688,        0.1264648438,       -0.1958007812,      -19.1650390625,      -20.3552246094,      -70.0531005859
1488916786.6633570194,1488916786.6657719612,        0.7353515625,        0.1264648438,       -0.1958007812,      -17.4713134766,      -18.6767578125,      -68.4967041016
1488916786.6660621166,1488916786.6684749126,        0.7353515625,        0.1264648438,       -0.1958007812,      -17.4713134766,      -18.6767578125,      -68.4967041016
1488916786.6687650681,1488916786.6711809635,        0.7353515625,        0.1264648438,       -0.1958007812,      -14.0686035156,      -16.9677734375,      -70.7550048828
1488916786.6714730263,1488916786.6738970280,        0.6933593750,        0.1367187500,       -0.1938476562,      -14.0686035156,      -16.9677734375,      -70.7550048828
1488916786.6741890907,1488916786.6766059399,        0.6933593750,        0.1367187500,       -0.1938476562,      -14.4958496094,      -17.0440673828,      -71.3043212891
1488916786.6768989563,1488916786.6793119907,        0.6933593750,        0.1367187500,       -0.1938476562,      -14.4958496094,      -17.0440673828,      -71.3043212891
1488916786.6796019077,1488916786.6820180416,        0.6933593750,        0.1367187500,       -0.1938476562,      -16.7083740234,      -16.4642333984,      -70.9075927734
1488916786.6823089123,1488916786.6846699715,        0.7246093750,        0.1884765625,       -0.1069335938,      -16.7083740234,      -16.4642333984,      -70.9075927734
1488916786.6849548817,1488916786.6872420311,        0.7246093750,        0.1884765625,       -0.1069335938,      -24.4903564453,      -16.9219970703,      -71.2432861328
1488916786.6875259876,1488916786.6898200512,        0.7246093750,        0.1884765625,       -0.1069335938,      -24.4903564453,      -16.9219970703,      -71.2432861328
1488916786.6901040077,1488916786.6923899651,        0.7246093750,        0.1884765625,       -0.1069335938,      -24.4903564453,      -18.6920166016,      -71.1364746094
1488916786.6926770210,1488916786.6951119900,        0.7763671875,        0.1440429688,       -0.1093750000,      -26.6113281250,      -18.6920166016,      -71.1364746094
1488916786.6953980923,1488916786.6976890564,        0.7763671875,        0.1440429688,       -0.1093750000,      -26.6113281250,      -18.6920166016,      -73.6541748047
1488916786.6979739666,1488916786.7002649307,        0.7763671875,        0.1440429688,       -0.1093750000,      -26.1077880859,      -19.3328857422,      -73.6541748047
1488916786.7005500793,1488916786.7028400898,        0.7763671875,        0.1440429688,       -0.1113281250,      -26.1077880859,      -19.3328857422,      -75.1647949219
1488916786.7031219006,1488916786.7056319714,        0.7690429688,        0.1625976562,       -0.1113281250,      -28.0151367188,      -20.3857421875,      -75.1647949219
1488916786.7059259415,1488916786.7083408833,        0.7690429688,        0.1625976562,       -0.1113281250,      -28.0151367188,      -20.3857421875,      -75.8056640625
1488916786.7087440491,1488916786.7111520767,        0.7690429688,        0.1625976562,       -0.1113281250,      -28.1677246094,      -20.9655761719,      -75.8056640625
1488916786.7114470005,1488916786.7138679028,        0.7690429688,        0.1298828125,       -0.0854492188,      -28.1677246094,      -20.9655761719,      -78.1250000000
1488916786.7141590118,1488916786.7165720463,        0.8183593750,        0.1298828125,       -0.0854492188,      -25.9857177734,      -20.6298828125,      -78.1250000000
1488916786.7168619633,1488916786.7192749977,        0.8183593750,        0.1298828125,       -0.0854492188,      -25.9857177734,      -20.6298828125,      -80.5664062500
1488916786.7195649147,1488916786.7219738960,        0.8183593750,        0.1298828125,       -0.0854492188,      -24.4903564453,      -20.2636718750,      -80.5664062500
1488916786.7222659588,1488916786.7246830463,        0.8071289062,        0.1499023438,       -0.1132812500,      -24.4903564453,      -20.2636718750,      -83.0078125000
1488916786.7249760628,1488916786.7273910046,        0.8071289062,        0.1499023438,       -0.1132812500,      -26.0314941406,      -20.7519531250,      -83.0078125000
1488916786.7276830673,1488916786.7300949097,        0.8071289062,        0.1499023438,       -0.1132812500,      -26.0314941406,      -20.7519531250,      -84.8083496094
1488916786.7303869724,1488916786.7327950001,        0.8071289062,        0.1499023438,       -0.1132812500,      -27.9693603516,      -21.5606689453,      -84.8083496094
1488916786.7330880165,1488916786.7354059219,        0.8320312500,        0.1601562500,       -0.1533203125,      -27.9693603516,      -21.5606689453,      -86.8377685547
1488916786.7356929779,1488916786.7379839420,        0.8320312500,        0.1601562500,       -0.1533203125,      -30.0903320312,      -22.6593017578,      -86.8377685547
1488916786.7382690907,1488916786.7405600548,        0.8320312500,        0.1601562500,       -0.1533203125,      -30.0903320312,      -22.6593017578,      -86.8377685547
1488916786.7408440113,1488916786.7431390285,        0.8320312500,        0.1601562500,       -0.1533203125,      -33.3557128906,      -23.4222412109,      -89.9810791016
1488916786.7435131073,1488916786.7459230423,        0.8764648438,        0.1972656250,       -0.1728515625,      -33.3557128906,      -23.4222412109,      -89.9810791016
1488916786.7462139130,1488916786.7486290932,        0.8764648438,        0.1972656250,       -0.1728515625,      -38.2843017578,      -24.9176025391,      -94.3756103516
1488916786.7489199638,1488916786.7513298988,        0.8764648438,        0.1972656250,       -0.1728515625,      -38.2843017578,      -24.9176025391,      -94.3756103516
1488916786.7516210079,1488916786.7540719509,        0.8764648438,        0.1542968750,       -0.1694335938,      -41.8243408203,      -27.3132324219,      -98.6633300781
1488916786.7543640137,1488916786.7567729950,        0.8627929688,        0.1542968750,       -0.1694335938,      -41.8243408203,      -27.3132324219,      -98.6633300781
1488916786.7570650578,1488916786.7594769001,        0.8627929688,        0.1542968750,       -0.1694335938,      -45.5169677734,      -29.2968750000,     -101.4251708984
1488916786.7597680092,1488916786.7621829510,        0.8627929688,        0.1542968750,       -0.1694335938,      -45.5169677734,      -29.2968750000,     -101.4251708984
1488916786.7624740601,1488916786.7648999691,        0.9638671875,        0.1567382812,       -0.1250000000,      -49.6368408203,      -30.0140380859,     -106.8878173828
1488916786.7651939392,1488916786.7676029205,        0.9638671875,        0.1567382812,       -0.1250000000,      -49.6368408203,      -30.0140380859,     -106.8878173828
1488916786.7678940296,1488916786.7703070641,        0.9638671875,        0.1567382812,       -0.1250000000,      -51.3763427734,      -30.1666259766,     -119.7052001953
1488916786.7705988884,1488916786.7730090618,        0.9638671875,        0.1567382812,       -0.1250000000,      -51.3763427734,      -30.1666259766,     -119.7052001953
1488916786.7734000683,1488916786.7757349014,        1.0776367188,        0.1108398438,       -0.1201171875,      -54.3060302734,      -28.9306640625,     -132.4310302734
1488916786.7760200500,1488916786.7783129215,        1.0776367188,        0.1108398438,       -0.1201171875,      -54.3060302734,      -28.9306640625,     -132.4310302734
1488916786.7785959244,1488916786.7808818817,        1.0776367188,        0.1108398438,       -0.1201171875,      -59.0362548828,      -29.1900634766,     -138.7939453125
1488916786.7811670303,1488916786.7834939957,        1.0776367188,        0.1108398438,       -0.2451171875,      -59.0362548828,      -29.1900634766,     -138.7939453125
1488916786.7837860584,1488916786.7861979008,        1.0678710938,        0.0224609375,       -0.1684570312,      -59.5397949219,      -32.7301025391,     -150.0244140625
1488916786.7864899635,1488916786.7889020443,        1.0678710938,        0.0224609375,       -0.1684570312,      -59.5397949219,      -32.7301025391,     -150.0244140625
1488916786.7891941071,1488916786.7916090488,        1.0678710938,        0.0224609375,       -0.1684570312,      -56.5185546875,      -35.6445312500,     -161.0717773438
1488916786.7918999195,1488916786.7943229675,        1.0678710938,       -0.1640625000,       -0.1157226562,      -56.5185546875,      -35.6445312500,     -161.0717773438
1488916786.7946169376,1488916786.7970290184,        1.0781250000,       -0.1640625000,       -0.1157226562,      -58.5327148438,      -38.3300781250,     -162.0788574219
1488916786.7973198891,1488916786.7997260094,        1.0781250000,       -0.1640625000,       -0.1157226562,      -58.5327148438,      -38.3300781250,     -162.0788574219
1488916786.8000180721,1488916786.8024239540,        1.0781250000,       -0.1640625000,       -0.1157226562,      -65.4449462891,      -39.4287109375,     -155.6243896484
1488916786.8027169704,1488916786.8051390648,        1.1357421875,       -0.2983398438,       -0.0434570312,      -65.4449462891,      -39.4287109375,     -155.6243896484
1488916786.8054299355,1488916786.8078429699,        1.1357421875,       -0.2983398438,       -0.0434570312,      -72.1740722656,      -39.1235351562,     -143.3868408203
1488916786.8081359863,1488916786.8105440140,        1.1357421875,       -0.2983398438,       -0.0434570312,      -72.1740722656,      -39.1235351562,     -143.3868408203
1488916786.8108360767,1488916786.8132519722,        1.1357421875,       -0.2983398438,       -0.0434570312,      -79.2846679688,      -32.1197509766,     -142.2576904297
1488916786.8135530949,1488916786.8159658909,        1.3159179688,       -0.2011718750,       -0.0034179688,      -79.2846679688,      -32.1197509766,     -142.2576904297
1488916786.8162589073,1488916786.8186750412,        1.3159179688,       -0.2011718750,       -0.0034179688,      -87.3718261719,      -27.9693603516,     -150.8483886719
1488916786.8189671040,1488916786.8213789463,        1.3159179688,       -0.2011718750,       -0.0034179688,      -87.3718261719,      -27.9693603516,     -150.8483886719
1488916786.8216719627,1488916786.8240671158,        1.3159179688,       -0.2011718750,       -0.0556640625,      -98.2208251953,      -27.5726318359,     -156.1737060547
1488916786.8243510723,1488916786.8266370296,        1.2207031250,       -0.3608398438,       -0.0556640625,      -98.2208251953,      -27.5726318359,     -156.1737060547
1488916786.8269209862,1488916786.8292100430,        1.2207031250,       -0.3608398438,       -0.0556640625,     -104.0496826172,      -27.8015136719,     -155.2886962891
1488916786.8294939995,1488916786.8317849636,        1.2207031250,       -0.3608398438,       -0.0556640625,     -104.0496826172,      -27.8015136719,     -155.2886962891
1488916786.8320701122,1488916786.8344409466,        1.2207031250,       -0.6108398438,       -0.1293945312,     -104.1717529297,      -27.1759033203,     -153.7475585938
1488916786.8347239494,1488916786.8370070457,        1.1689453125,       -0.5546875000,       -0.1293945312,     -104.1717529297,      -27.1759033203,     -153.7475585938
1488916786.8372900486,1488916786.8395729065,        1.1689453125,       -0.5546875000,       -0.1293945312,     -104.7210693359,      -26.0620117188,     -154.1137695312
1488916786.8399710655,1488916786.8422529697,        1.1689453125,       -0.5546875000,       -0.1293945312,     -104.7210693359,      -26.0620117188,     -154.1137695312
1488916786.8425390720,1488916786.8448569775,        1.1689453125,       -0.4819335938,       -0.2739257812,     -104.7210693359,      -26.1230468750,     -155.2886962891
1488916786.8451409340,1488916786.8474299908,        1.1347656250,       -0.4819335938,       -0.2739257812,     -103.6529541016,      -26.1230468750,     -155.2886962891
1488916786.8477139473,1488916786.8499979973,        1.1347656250,       -0.4819335938,       -0.2739257812,     -103.6529541016,      -26.1230468750,     -157.0434570312
1488916786.8502810001,1488916786.8525669575,        1.1347656250,       -0.4819335938,       -0.2739257812,      -99.0600585938,      -24.8718261719,     -157.0434570312
1488916786.8528499603,1488916786.8551890850,        1.1972656250,       -0.0922851562,       -0.1904296875,      -99.0600585938,      -24.8718261719,     -159.8815917969
1488916786.8554739952,1488916786.8577599525,        1.1972656250,       -0.0922851562,       -0.1904296875,     -100.8453369141,      -16.5100097656,     -159.8815917969
1488916786.8580439091,1488916786.8603270054,        1.1972656250,       -0.0922851562,       -0.1904296875,     -100.8453369141,      -16.5100097656,     -159.8815917969
1488916786.8606109619,1488916786.8628981113,        1.1972656250,       -0.0922851562,       -0.1904296875,     -109.9853515625,       -3.0059814453,     -159.2102050781
1488916786.8631780148,1488916786.8654680252,        1.2314453125,       -0.0253906250,        0.0004882812,     -109.9853515625,       -3.0059814453,     -159.2102050781
1488916786.8657488823,1488916786.8680369854,        1.2314453125,       -0.0253906250,        0.0004882812,     -108.0627441406,       -3.9062500000,     -164.6575927734
1488916786.8683180809,1488916786.8706009388,        1.2314453125,       -0.0253906250,        0.0004882812,     -108.0627441406,       -3.9062500000,     -164.6575927734
1488916786.8708839417,1488916786.8731648922,        1.2314453125,       -0.0253906250,        0.0004882812,      -97.6257324219,      -18.7988281250,     -187.2711181641
1488916786.8735189438,1488916786.8758029938,        1.0986328125,       -0.1621093750,       -0.2758789062,      -97.6257324219,      -18.7988281250,     -187.2711181641
1488916786.8760869503,1488916786.8783740997,        1.0986328125,       -0.1621093750,       -0.2758789062,      -82.1075439453,      -24.2156982422,     -212.8753662109
1488916786.8786559105,1488916786.8809421062,        1.0986328125,       -0.1621093750,       -0.2758789062,      -82.1075439453,      -24.2156982422,     -212.8753662109
1488916786.8812260628,1488916786.8835189342,        1.0986328125,       -0.1621093750,       -0.2758789062,      -53.5430908203,      -22.2167968750,     -224.7772216797
1488916786.8838100433,1488916786.8862259388,        0.9155273438,       -0.0332031250,       -0.3803710938,      -53.5430908203,      -22.2167968750,     -224.7772216797
1488916786.8865189552,1488916786.8889379501,        0.9155273438,       -0.0332031250,       -0.3803710938,      -30.0750732422,      -17.6239013672,     -209.5489501953
1488916786.8892300129,1488916786.8916430473,        0.9155273438,       -0.0332031250,       -0.3803710938,      -30.0750732422,      -17.6239013672,     -209.5489501953
1488916786.8919351101,1488916786.8943650723,        0.9155273438,       -0.0332031250,       -0.3803710938,      -17.0898437500,      -16.3879394531,     -196.7315673828
1488916786.8946580887,1488916786.8970739841,        1.1586914062,        0.0102539062,       -0.3281250000,      -17.0898437500,      -16.3879394531,     -196.7315673828
1488916786.8973660469,1488916786.8997809887,        1.1586914062,        0.0102539062,       -0.3281250000,      -13.9007568359,      -12.8326416016,     -221.3439941406
1488916786.9000730515,1488916786.9024860859,        1.1586914062,        0.0102539062,       -0.3281250000,      -13.9007568359,      -12.8326416016,     -221.3439941406
1488916786.9028930664,1488916786.9052190781,        1.1586914062,       -0.0810546875,       -0.2265625000,      -24.6734619141,        0.9155273438,     -233.6730957031
1488916786.9055020809,1488916786.9077908993,        0.8310546875,       -0.0810546875,       -0.2265625000,      -24.6734619141,        0.9155273438,     -233.6730957031
1488916786.9080750942,1488916786.9103610516,        0.8310546875,       -0.0810546875,       -0.2265625000,      -26.6571044922,        2.8533935547,     -211.3494873047
1488916786.9106440544,1488916786.9129331112,        0.8310546875,       -0.0810546875,       -0.2265625000,      -26.6571044922,        2.8533935547,     -211.3494873047
1488916786.9132161140,1488916786.9156661034,        0.3310546875,        0.1108398438,       -0.3393554688,      -22.7508544922,       -7.2326660156,     -178.3905029297
1488916786.9159560204,1488916786.9183719158,        0.3378906250,        0.1108398438,       -0.3393554688,      -21.5454101562,       -7.2326660156,     -178.3905029297
